"Time (s)","Linear Acceleration x (m/s^2)","Linear Acceleration y (m/s^2)","Linear Acceleration z (m/s^2)"
1.179198950E-1,2.492222786E-1,4.357872009E-1,1.791744232E-1
1.679198950E-1,-6.207774878E-1,-6.255650520E-2,3.841209412E-2
2.179198950E-1,2.227432728E-1,1.430685520E-1,1.433925629E-1
2.679198950E-1,-7.380521297E-2,3.358919621E-1,1.002178192E0
3.179198950E-1,2.510531545E-1,7.150959969E-2,1.503915787E-1
3.679198950E-1,-2.722148299E-1,-7.323074341E-2,-1.615810394E-2
4.179198950E-1,-1.284925193E-1,-7.004859447E-1,1.510848999E-1
4.679198950E-1,-2.242521793E-1,-6.052386761E-1,-1.109666824E-1
5.179198950E-1,-4.531720281E-1,-1.749687910E0,-1.747589111E-1
5.679198950E-1,1.954321861E-1,-1.376544237E0,-2.140674591E-1
6.179198950E-1,1.047339201E0,-2.388352394E0,-2.974631310E0
6.679198950E-1,-1.294734478E-1,-2.443008423E-1,1.266820908E0
7.179198950E-1,1.849398136E0,-7.426561117E-1,-1.262831688E0
7.679198950E-1,1.837026596E0,1.329070449E0,1.781829834E0
8.179198950E-1,-1.251079559E0,1.121101856E0,3.061256409E-1
8.679198950E-1,1.715518951E0,2.261674404E0,2.251282692E0
9.179198950E-1,1.845635891E0,1.348595858E0,-8.765897751E-1
9.679198950E-1,1.531546593E0,2.325492382E0,2.869531631E0
1.017919895E0,1.845588684E-1,2.762308598E0,3.027644157E0
1.067919895E0,-8.113269806E-1,1.705706239E0,2.771785259E-1
1.117919895E0,4.621419907E-1,1.573669910E0,1.610820770E0
1.167919895E0,-3.067822933E0,2.612423897E-1,5.805164576E-1
1.217919895E0,-7.594041824E-1,-2.973985672E-1,-4.526901245E-1
1.267919895E0,7.710704803E-1,-8.220317364E-1,-5.000867844E-1
1.317919895E0,1.428018570E0,-1.269190788E0,-7.531166077E-1
1.367919895E0,-1.515957832E0,-1.021275997E0,7.594847679E-1
1.417919895E0,-4.383778572E0,3.771357536E-1,-6.236884117E0
1.467919895E0,1.054915428E0,2.334680557E0,-1.137330055E0
1.517919895E0,-2.172465324E-1,2.561613083E0,1.336657047E0
1.567919895E0,-6.243948936E-1,1.795475483E0,2.702798843E-1
1.617919895E0,-7.382106781E-2,2.282881737E-1,8.396294117E-1
1.667919895E0,1.067902088E0,-2.135846615E0,6.987377644E0
1.717919895E0,1.822903633E0,-5.329496384E0,-1.242382884E0
1.767919895E0,5.326776505E-1,-9.292554855E-1,-3.907635212E-1
1.817919895E0,-2.317519188E-1,1.473444939E0,-1.126074672E0
1.867919895E0,-2.818374634E-1,-4.065198898E-1,-8.071451187E-1
1.917919895E0,1.838717461E-1,4.587888718E-1,3.613996506E-2
1.967919895E0,-1.070665598E0,8.550643921E-3,2.264506817E-1
2.017919895E0,4.579617977E-1,7.463455200E-3,1.957535744E-2
2.067919895E0,5.021619797E-2,5.730455875E0,1.126371861E0
2.117919895E0,-6.965243816E-1,-4.177885056E-1,1.468843699E0
2.167919895E0,3.596782684E-1,-1.402957916E0,-6.066570282E-1
2.217919895E0,-5.910568237E-1,-1.202681541E0,-8.670978546E-1
2.267919895E0,4.596486092E-1,9.621334076E-1,-3.390507698E-1
2.317919895E0,4.078057766E0,-3.287782669E0,-2.504681587E0
2.367919895E0,-2.917053938E0,-2.398481369E-1,2.019168854E0
2.417919895E0,1.888706982E-1,4.528102875E-1,-5.015497208E-1
2.467919895E0,-1.018216610E-1,8.733682632E-1,-1.583187580E-1
2.517919895E0,-1.125958413E-1,-7.549457550E-1,4.917485714E-1
2.567919895E0,-4.548962712E-1,6.832504272E-2,-3.910281658E-1
2.617919895E0,1.845580637E-1,5.021018982E-1,4.961593151E-1
2.667919895E0,-2.376541197E-1,6.315231323E-3,6.361722946E-2
2.717919895E0,3.751404881E-1,7.494869232E-1,-1.260032654E-1
2.767919895E0,-1.734333515E0,-2.929131508E0,-7.498672009E-1
2.817919895E0,-4.314268529E-1,3.177100182E0,-5.524580479E-1
2.867919895E0,5.300245881E-1,4.520511150E0,3.719933033E-1
2.917919895E0,9.697791338E-1,-3.056408882E0,1.788520575E0
2.967919895E0,3.769767284E-2,-7.255773544E-1,4.555816650E-1
3.017919895E0,-9.606130123E-1,1.725124359E0,4.155158997E-2
3.067919895E0,-8.107066154E-2,1.251265049E0,-3.334903717E-1
3.117919895E0,1.057441950E0,-3.664741516E-1,7.024669647E-2
3.167919895E0,-2.128505111E-1,4.665946960E-1,-4.245686531E-1
3.217919895E0,-1.206107140E0,5.719423294E-1,-6.046614647E-1
3.267919895E0,-4.555881023E-2,1.179059505E0,-7.770619392E-1
3.317919895E0,4.585126936E-1,2.625370026E-1,-1.109280586E-1
3.367919895E0,1.240114927E0,4.370117188E-1,2.020709515E-1
3.417919895E0,-4.728268832E-2,-1.870393753E-1,-8.211195469E-1
3.467919895E0,-6.322476864E-1,-8.902406693E-1,2.394006252E-1
3.517919895E0,3.726771474E-1,-1.465148926E0,2.220726252E0
3.567919895E0,-1.370684385E0,6.395864487E-1,-1.528422832E-1
3.617919895E0,-2.821746767E-1,-6.112289429E-1,-3.266410828E-1
3.667919895E0,1.221771598E0,1.044893265E0,-2.787144184E-1
3.717919895E0,1.755754948E0,5.142831802E-1,5.686111450E-1
3.767919895E0,5.886444449E-1,9.925994873E-1,-9.341049194E-2
3.817919895E0,8.835446239E-1,-7.799053192E-2,1.331938505E0
3.867919895E0,5.578961968E-1,6.685934067E-1,-6.916773319E-1
3.917919895E0,1.456290960E0,-7.241973877E-1,-6.136870384E-2
3.967919895E0,4.276874661E-1,1.024374008E0,1.976882219E-1
4.017919895E0,6.378623843E-1,-4.116611481E-1,9.232590199E-1
4.067919895E0,1.206370354E0,7.024164200E-1,5.898547173E-2
4.117919895E0,-5.573087931E-1,6.069707870E-1,8.215512037E-1
4.167919895E0,-2.334651947E-1,-6.340312958E-2,4.842073917E-1
4.217919895E0,-3.251984119E-1,7.683467865E-2,1.088392735E-1
4.267919895E0,5.605975389E-1,2.102661133E-2,3.261178732E-1
4.317919895E0,5.775326490E-1,1.373996735E-1,1.642975807E-1
4.367919895E0,-8.399499059E-1,7.083759308E-1,-1.614146233E-1
4.417919895E0,-2.714373767E-1,7.219696045E-2,4.440990686E-1
4.467919895E0,7.030252218E-1,-8.971405029E-2,1.856026053E-1
4.517919895E0,2.889521122E-1,6.651592255E-1,1.153333664E0
4.567919895E0,1.563639641E0,-7.673921585E-1,7.624074221E-1
4.617919895E0,3.472558558E-1,6.678209305E-1,1.509820461E0
4.667919895E0,3.435763121E0,7.011890411E-1,1.864369631E0
4.717919895E0,-3.907764554E-1,-4.706363678E-1,1.614691019E-1
4.767919895E0,-3.414350748E-1,-1.762489319E0,4.333174229E-1
4.817919895E0,1.138358831E0,-2.973423004E-1,2.593301773E0
4.867919895E0,1.474550605E0,-1.106655121E0,2.561856270E0
4.917919895E0,3.575687885E0,3.072986603E-1,1.971894979E0
4.967919895E0,7.521891594E-2,-3.499271393E0,2.316356182E0
5.017919895E0,-2.587863684E0,-4.117726326E0,6.003475189E-2
5.067919895E0,-1.233576298E0,7.318649292E-1,-3.555755615E-1
5.117919895E0,-4.232144356E-1,1.926383972E0,-1.410344601E0
5.167919895E0,8.743524551E-1,3.150256634E0,-1.656199932E0
5.217919895E0,1.056501389E0,3.363892317E0,-1.201469421E0
5.267919895E0,-1.604045868E0,2.747617245E0,-1.354452133E0
5.317919895E0,9.764003754E-2,-4.465684891E-1,1.882210732E0
5.367919895E0,1.279309750E0,9.391069412E-2,1.064054489E0
5.417919895E0,5.161724091E-1,1.795225143E0,3.144736290E-1
5.467919895E0,-5.774724483E-1,1.969184875E0,-9.633016586E-2
5.517919895E0,1.150982618E0,1.445279598E0,7.123637199E-1
5.567919895E0,1.564450741E0,-3.963403702E-1,1.522344112E0
5.617919895E0,2.330899239E-1,4.597377777E-2,1.217948437E0
5.667919895E0,2.251722813E-1,-2.833428383E-1,6.847095490E-1
5.717919895E0,9.319388866E-1,3.014779091E-1,6.326308250E-1
5.767919895E0,7.180213928E-1,5.281190872E-1,4.502878189E-1
5.817919895E0,-1.214488745E-1,-1.468515873E0,2.892360687E-1
5.867919895E0,7.721066475E-2,-8.029451370E-1,-1.099238873E0
5.917919895E0,1.090382338E0,-2.245270014E0,1.388340950E0
5.967919895E0,6.551990509E-1,-4.356436729E-1,-6.522960663E-1
6.017919895E0,-1.429530621E0,1.463653803E0,-2.669196129E0
6.067919895E0,-1.218052268E0,4.009101391E-1,-3.482047081E0
6.117919895E0,-6.083030701E-1,2.773952484E-2,-2.234172821E-2
6.167919895E0,-7.719805241E-1,1.634789467E0,-1.761982918E0
6.217919895E0,-1.948081732E0,1.147051930E0,1.209202766E0
6.267919895E0,1.174369335E0,3.743984699E-1,2.336094856E0
6.317919895E0,1.715337515E0,-1.023089886E0,-4.107265472E-1
6.367919895E0,-7.333993912E-3,2.903591156E0,-1.012024879E0
6.417919895E0,-4.270027876E-1,-1.205062866E0,3.153428078E0
6.467919895E0,1.066364050E-1,-2.797059536E0,4.924883842E-1
6.517919895E0,7.581770420E-1,3.333898067E0,-2.061545849E0
6.567919895E0,6.497602463E-1,2.574275017E0,-9.434700012E-1
6.617919895E0,4.731785655E-1,-1.651968956E-1,1.146202087E0
6.667919895E0,9.141240120E-1,-4.186582565E-1,1.582298279E-1
6.717919895E0,-8.484474421E-1,-1.690043449E0,6.577162743E-1
6.767919895E0,9.549062252E-1,-3.195957184E0,1.026710033E0
6.817919895E0,1.454778671E0,-2.310981750E-1,2.340013981E0
6.867919895E0,6.203455925E-1,-5.539407730E-1,2.537798405E0
6.917919895E0,1.251754761E-1,-7.016420364E-1,-2.207333565E0
6.967919895E0,-2.898567677E0,6.678199768E-1,-2.442063570E0
7.017919895E0,-3.282163143E-1,9.315309525E-1,-1.323415756E0
7.067919895E0,1.063295603E0,-1.276020527E0,2.005748749E-1
7.117919895E0,-6.547689438E-1,-1.183847427E0,1.493595123E0
7.167919895E0,2.447982550E0,-1.444820881E0,1.461085320E0
7.217919895E0,-2.835440636E-1,-4.795169830E-1,2.597312927E-1
7.267919895E0,1.385824203E0,7.612175941E-1,-9.265089035E-1
7.317919895E0,2.101234913E0,1.103435993E0,-3.267340660E-1
7.367919895E0,1.363543987E0,5.178413391E-1,3.845338821E-1
7.417919895E0,3.235104084E-1,1.400437355E-1,-1.478613853E0
7.467919895E0,1.177158356E-1,2.389440536E-1,8.622608185E-1
7.517919895E0,3.902497292E-1,-1.900585651E0,-4.931163788E-2
7.567919895E0,-1.864147186E-2,-2.388836384E0,3.193778992E-1
7.617919895E0,-7.510869503E-1,-1.794789791E0,-1.255262375E0
7.667919895E0,-2.305291176E0,8.570030928E-1,-3.137098312E0
7.717919895E0,-7.102150917E-1,9.720902443E-1,-1.581129074E0
7.767919895E0,2.212293148E-1,2.847802639E-1,-1.613044739E-2
7.817919895E0,1.054010391E-1,-6.389141083E-1,-8.759946823E-1
7.867919895E0,-9.080121517E-1,4.965018034E-1,-1.974703789E0
7.917919895E0,-1.363021255E0,1.030285358E0,-8.805322647E-1
7.967919895E0,-8.857703209E-1,1.235409260E0,-4.091920853E-1
8.017919895E0,-2.044684172E0,-8.771448135E-1,-5.926103592E-1
8.067919895E0,1.474369764E-1,3.088889122E-1,-1.506991386E0
8.117919895E0,1.992153525E0,3.304328442E0,-1.512547970E0
8.167919895E0,7.074359655E-1,-1.542412281E0,2.688387394E0
8.217919895E0,8.769886494E-1,-3.564297676E0,1.181741238E0
8.267919895E0,-2.024834871E0,-1.856449127E0,1.390708447E0
8.317919895E0,2.860975266E-2,-2.069084167E0,9.397459030E-2
8.367919895E0,7.075647116E-1,-1.236715317E-1,1.955877304E0
8.417919895E0,5.473105907E-1,5.814123154E-1,1.162157536E0
8.467919895E0,-2.893962860E-1,2.276058197E-1,1.451444626E-1
8.517919895E0,3.789229393E-1,-6.964850426E-1,-1.421647072E-1
8.567919895E0,1.625265598E0,-9.079351425E-1,5.757932663E-1
8.617919895E0,2.852598667E0,3.252716064E-1,3.242697716E-1
8.667919895E0,2.435150623E0,-4.919133186E-1,2.852282524E-1
8.717919895E0,5.727546215E-1,-3.614416122E-1,1.069350243E0
8.767919895E0,4.053931236E-1,-2.465295792E-1,1.611127853E-1
8.817919895E0,5.613982677E-1,-1.203279495E0,-8.278775215E-1
8.867919895E0,-2.257485390E-1,5.253791809E-1,-7.932815552E-1
8.917919895E0,5.370235443E-1,-1.746147633E0,-7.430782318E-1
8.967919895E0,9.420561790E-1,-3.350689650E0,9.078054428E-1
9.017919895E0,-1.457849026E0,1.864318848E-1,-4.374919415E0
9.067919895E0,-9.910025597E-1,-2.438423634E-1,-2.351613998E0
9.117919895E0,-3.050727844E-1,-1.028183579E0,-1.938980103E0
9.167919895E0,-1.447420835E0,2.134655714E-1,-2.636722088E0
9.217919895E0,-1.068577766E-1,1.838813782E0,-2.278610706E0
9.267919895E0,-1.305181503E0,8.995466232E-1,-1.524720669E0
9.317919895E0,-2.212585211E0,-6.703805923E-1,-1.590653896E0
9.367919895E0,-2.505540848E-1,5.726695061E-1,-1.069705963E0
9.417919895E0,5.413637161E-1,2.421550751E-1,2.210206985E-1
9.467919895E0,-2.449345589E-1,-1.342372894E0,6.561374664E-1
9.517919895E0,-3.060574532E-1,-1.843972683E0,1.475025177E0
9.567919895E0,8.812706470E-1,-3.219580650E-1,4.201378822E-1
9.617919895E0,-3.116123676E-1,-1.143724442E0,1.661705494E0
9.667919895E0,2.108976841E-1,-2.803080559E0,1.481605053E0
9.717919895E0,-2.677515745E-1,-2.046334267E0,9.615302086E-1
9.767919895E0,8.857190609E-2,4.998445511E-1,1.417660713E0
9.817919895E0,-1.530431509E-1,-1.267490387E-1,-8.990483284E-1
9.867919895E0,-1.771662474E0,-8.365588188E-1,-3.139142990E-1
9.917919895E0,1.019328475E0,1.216342926E0,-9.674782753E-1
9.967919895E0,2.575111389E-2,8.015155792E-1,8.563809395E-1
1.001791990E1,4.072205544E0,-1.706342220E0,5.169194221E0
1.006791990E1,8.601331711E-1,-2.912500381E0,-3.286218643E-2
1.011791990E1,-1.236188173E0,-1.547230244E0,-1.461715698E0
1.016791990E1,2.332949638E-1,-1.165371895E0,-1.380894661E0
1.021791990E1,-7.256071568E-1,7.111148834E-1,-2.762499809E0
1.026791990E1,-6.501563787E-1,1.119910240E0,-7.623729706E-1
1.031791990E1,2.498368025E-1,-1.174184322E0,-1.502024174E0
1.036791990E1,-6.350314617E-1,-2.830932140E-1,-3.399505615E-1
1.041791990E1,-8.437370062E-1,3.608124256E-1,-1.259954453E0
1.046791990E1,-1.240217805E0,7.113511562E-1,-2.401197433E0
1.051791990E1,-1.266083002E0,1.973783135E0,-3.695565224E0
1.056791990E1,-1.841530442E0,1.287359715E0,-2.781890869E0
1.061791990E1,-3.410177231E-1,1.952390671E-1,-6.789021492E-1
1.066791990E1,3.064923286E-1,-1.288447380E-1,2.033118725E0
1.071791990E1,-8.577177525E-1,-2.549288750E0,1.005920410E0
1.076791990E1,3.814564943E-1,-1.273036003E0,3.228187561E-2
1.081791990E1,1.071518660E0,1.628050327E0,-3.418087959E-1
1.086791990E1,-1.058735609E0,-1.132873535E0,1.247896671E0
1.091791990E1,1.425149918E0,-2.861446381E0,2.603543282E0
1.096791990E1,4.623939991E-1,-1.791404724E0,3.125757217E0
1.101791990E1,-4.811711907E-1,-2.728783607E0,1.014025688E0
1.106791990E1,-8.696624041E-1,8.024563789E-1,-1.712073565E0
1.111791990E1,-1.148899078E0,1.665593147E0,-1.609276295E0
1.116791990E1,1.834002733E-1,3.474993706E-1,-8.958058357E-1
1.121791990E1,4.436827660E0,-2.364759445E0,3.119137764E0
1.126791990E1,1.472318888E0,1.349830151E0,2.001041889E0
1.131791990E1,1.828649521E0,-2.212462425E-1,1.462474346E0
1.136791990E1,1.061834812E0,-2.432654858E0,-4.054923058E-1
1.141791990E1,-3.291082382E-2,-2.430233002E0,-1.586795807E0
1.146791990E1,-1.985520005E0,3.898329735E-1,-2.164685249E0
1.151791990E1,-1.140320659E0,-3.406620026E-2,-1.349075317E0
1.156791990E1,5.740222931E-1,-1.144110203E0,-3.071098328E-1
1.161791990E1,-9.354275465E-1,-6.820230484E-1,-9.732427597E-1
1.166791990E1,-2.753081322E0,1.274803996E0,-2.758577347E0
1.171791990E1,-1.824198008E0,1.691109180E0,-3.289609909E0
1.176791990E1,-8.422361612E-1,9.705984592E-1,-4.483213425E-1
1.181791990E1,3.075809479E-1,-8.662462234E-1,4.313459396E-1
1.186791990E1,4.469021559E-1,1.251826763E0,2.615423203E-1
1.191791990E1,-1.329119444E0,-8.461556435E-1,-7.272171974E-1
1.196791990E1,6.315617561E-1,-9.781742096E-1,-6.955451965E-1
1.201791990E1,5.035077929E-1,6.574449539E-1,9.848227501E-1
1.206791990E1,9.727702737E-1,-3.462570190E0,2.901832104E0
1.211791990E1,-7.493007183E-2,-2.404254913E0,2.903210163E0
1.216791990E1,-7.888158560E-1,-3.282041550E-1,6.246366501E-1
1.221791990E1,-6.564924121E-1,1.369848251E0,-7.320494652E-1
1.226791990E1,1.705880523E0,6.112465858E-1,-2.919578552E-2
1.231791990E1,1.873161316E0,-1.988674641E0,3.591372013E0
1.236791990E1,2.429965019E0,-5.251259804E-1,-3.199391365E-1
1.241791990E1,2.876671553E-1,-2.116045952E0,1.080964565E0
1.246791990E1,2.386644602E0,-6.992802620E-1,-4.672408104E-1
1.251791990E1,1.423168778E0,5.484476089E-1,-1.672907352E0
1.256791990E1,1.249915719E0,-2.412880898E0,1.390001297E0
1.261791990E1,-4.124698639E-1,-2.120882511E0,-1.157219410E0
1.266791990E1,-3.914701939E-1,-6.341695786E-1,5.654964447E-1
1.271791990E1,-8.528694510E-1,-3.989574909E-1,-2.321128845E0
1.276791990E1,-1.050773740E0,3.152017593E-1,-4.316827297E0
1.281791990E1,-6.983176470E-1,2.285638571E0,-4.846548557E0
1.286791990E1,-1.311727166E0,1.838824034E0,-3.153915405E0
1.291791990E1,4.485058784E-1,2.663912773E-1,1.808919907E-1
1.296791990E1,-1.853491068E-1,-2.759666443E-1,9.006395340E-1
1.301791990E1,-1.982352495E0,-2.228186131E0,-1.197538853E0
1.306791990E1,-3.469398022E-1,-7.652540207E-1,-1.168121815E0
1.311791990E1,3.616268635E-1,1.821775436E-1,-3.465538025E-1
1.316791990E1,-7.729070187E-1,-3.208684921E-1,1.296129704E0
1.321791990E1,2.462885618E0,-9.096622467E-1,2.696169853E0
1.326791990E1,-2.930438519E-2,-3.398867607E0,4.257858276E0
1.331791990E1,-4.992954135E-1,-3.714839935E0,2.108574867E0
1.336791990E1,-7.336645126E-1,-1.183764458E0,4.759664536E-1
1.341791990E1,-1.611026764E0,-5.214977264E-2,-4.141888618E-1
1.346791990E1,-2.900161743E-1,1.649595261E0,-1.252035618E0
1.351791990E1,1.254760027E0,2.984702110E0,-1.484477520E0
1.356791990E1,2.542350292E0,4.866118431E-1,3.169700623E0
1.361791990E1,2.905313730E0,-6.070383549E0,3.754259586E0
1.366791990E1,-1.284413338E-1,-3.697257519E0,2.562567711E0
1.371791990E1,-3.432339430E-1,-3.205918789E0,-6.460304260E-1
1.376791990E1,-6.789015532E-1,9.090929031E-1,-6.653544426E0
1.381791990E1,-3.278928757E0,3.459646463E0,-6.330054283E0
1.386791990E1,-4.954695702E-2,-1.018353701E0,-2.383723259E0
1.391791990E1,-6.797397137E-2,1.623059750E0,-1.476407051E0
1.396791990E1,8.581624031E-1,9.271152020E-1,-8.005819321E-1
1.401791990E1,-1.337120771E0,-4.141092300E-3,-3.194332123E-1
1.406791990E1,-1.437828064E0,7.959327698E-1,-2.277271748E0
1.411791990E1,-1.440435648E0,1.307170391E0,-1.203757286E0
1.416791990E1,2.571995258E-1,7.536115646E-1,-8.737854958E-1
1.421791990E1,-3.806927800E-1,-3.822568417E0,8.271198273E-1
1.426791990E1,2.598884106E0,-1.306569576E0,2.766033649E0
1.431791990E1,9.458370805E-1,-3.618002892E0,1.830731392E0
1.436791990E1,-8.628816605E-1,-6.693334579E-1,2.227390289E0
1.441791990E1,9.410819411E-1,2.048066139E0,1.221016407E0
1.446791990E1,-5.393654704E-1,-5.799160004E-1,8.201990128E-1
1.451791990E1,-1.724225283E-1,-1.737807274E0,3.016991615E-1
1.456791990E1,5.767668486E-1,-5.334129333E-1,9.784030914E-1
1.461791990E1,1.547693968E0,-3.904962540E-1,1.482684135E0
1.466791990E1,1.530785203E0,-7.807054520E-1,-4.470920563E-1
1.471791990E1,5.780034065E-1,-6.017532349E-1,3.650135994E-1
1.476791990E1,9.367182255E-1,-3.111525059E0,1.330559731E0
1.481791990E1,2.952649593E-1,-1.745227814E0,-1.026927471E0
1.486791990E1,1.951041222E-1,1.408703327E-1,-2.599607468E0
1.491791990E1,-1.170476913E0,5.227273703E-1,-3.349557877E0
1.496791990E1,-2.039059162E0,-5.354017019E-1,-3.754531860E0
1.501791990E1,2.313338518E-1,1.890874624E0,-2.729789257E0
1.506791990E1,-1.308389902E-1,1.572708845E0,-3.554573059E0
1.511791990E1,-2.049051523E-1,-4.931850433E-1,-1.844861507E0
1.516791990E1,-1.152090192E0,1.229166031E0,-3.006546021E0
1.521791990E1,-1.186678648E0,2.317790508E0,-1.467737198E0
1.526791990E1,2.761952877E-1,-2.136648178E0,7.759027481E-1
1.531791990E1,-5.616976023E-1,-6.488321304E0,1.198817730E0
1.536791990E1,7.035578489E-1,-1.222535133E0,2.102437496E0
1.541791990E1,6.322547793E-1,-1.925910950E0,1.292822361E0
1.546791990E1,4.221797585E-1,8.440074921E-1,2.519505501E0
1.551791990E1,6.999033093E-1,-7.906007767E-1,1.223624229E0
1.556791990E1,-1.607980847E0,-1.050001144E0,9.742069244E-2
1.561791990E1,-9.339070320E-2,2.228240967E-1,1.016551971E0
1.566791990E1,2.313194275E0,-2.165339947E0,2.276194096E0
1.571791990E1,3.330882788E-1,-6.972184181E-1,-6.211862564E-1
1.576791990E1,4.775921106E-1,2.070351601E0,-6.335544586E-2
1.581791990E1,2.567104816E0,-1.992903233E0,1.956513405E0
1.586791990E1,-7.103519440E-1,-1.010570049E0,-2.652606964E0
1.591791990E1,8.330216408E-1,8.328533173E-2,1.192579269E-1
1.596791990E1,-4.646070004E-1,-3.807346582E0,-1.106929779E-2
1.601791990E1,-9.989314079E-1,2.023651600E-1,-4.222750664E0
1.606791990E1,-1.330872893E0,1.693889856E0,-2.472510338E0
1.611791990E1,-5.294213295E-1,2.167628288E0,-5.280273438E0
1.616791990E1,-7.294799089E-1,5.293068886E-1,-2.217715263E0
1.621791990E1,1.107587814E-1,7.767097950E-1,-8.900794983E-1
1.626791990E1,-5.434876680E-1,1.658022642E0,-9.665355682E-1
1.631791990E1,-1.739658117E-1,-5.112295151E-1,4.004430771E-1
1.636791990E1,-6.347167492E-1,-4.385765076E0,-1.111082077E0
1.641791990E1,6.234504580E-1,-1.753274918E0,1.700195789E0
1.646791990E1,1.115986109E0,-1.913095474E0,1.936958790E0
1.651791990E1,-3.547220826E-1,-2.399732590E0,1.432113171E0
1.656791990E1,-2.324913740E-1,1.841852188E0,1.330707073E0
1.661791990E1,1.360060334E0,-3.113749504E0,2.841347694E0
1.666791990E1,-1.147491574E0,1.842842102E-1,-1.650834084E-1
1.671791990E1,7.273952961E-1,9.798445702E-1,8.119001389E-1
1.676791990E1,1.726792216E0,-5.699687004E-1,7.670373917E-1
1.681791990E1,-1.588193178E-1,8.851003647E-2,-1.113778591E0
1.686791990E1,1.789163828E0,-2.510493279E0,3.290117264E0
1.691791990E1,9.743212461E-1,-1.422974586E0,-3.573150635E-1
1.696791990E1,2.070518732E-1,-1.337468624E0,-9.171495438E-1
1.701791990E1,-8.268725872E-1,-2.098758698E0,-1.812071800E0
1.706791990E1,-1.105952263E0,8.550024033E-1,-2.540104866E0
1.711791990E1,-8.324309587E-1,1.242923260E0,-2.551811218E0
1.716791990E1,-1.753967762E0,-1.336845160E-1,-2.963800430E0
1.721791990E1,-5.722210407E-1,1.356856346E0,-4.382650852E0
1.726791990E1,-7.844536304E-1,1.073291302E0,-2.007507324E0
1.731791990E1,-1.058971882E-1,1.694189548E0,-2.727174759E-1
1.736791990E1,-9.790191650E-1,-1.282480717E0,-2.082650185E0
1.741791990E1,-2.038353205E0,-1.716849804E0,-1.631862640E0
1.746791990E1,-5.025875568E-2,-1.111411572E0,1.294159889E-1
1.751791990E1,1.581886411E0,-3.840983868E0,2.176722050E0
1.756791990E1,1.422296643E0,-2.001374245E0,2.225270748E0
1.761791990E1,-2.932139635E-1,1.779079437E-1,3.099209785E0
1.766791990E1,-1.217147112E-1,-9.643325806E-1,1.552453518E0
1.771791990E1,4.400217533E-2,1.320905685E-1,1.428221703E0
1.776791990E1,2.618293762E-1,-1.368329525E0,6.099610329E-1
1.781791990E1,-4.086531401E-1,-2.032455921E0,2.545603752E0
1.786791990E1,2.855113268E0,-1.197352886E0,1.600607872E0
1.791791990E1,-7.229138613E-1,-7.760491371E-1,-1.860211372E0
1.796791990E1,-1.252286553E0,4.492921829E-1,-7.370047569E-1
1.801791990E1,-8.132531643E-1,6.192166805E-1,1.295463562E0
1.806791990E1,2.326791286E-1,-2.584900141E0,-9.349536896E-1
1.811791990E1,1.470133543E0,-2.755458832E0,-2.821464539E-1
1.816791990E1,-8.663320541E-2,-1.529940128E0,-2.758885860E0
1.821791990E1,-1.510221481E0,1.873736620E0,-3.652560711E0
1.826791990E1,-1.653541088E0,4.202123880E-1,-3.189924717E0
1.831791990E1,-5.663381815E-1,7.939144969E-1,-1.230230331E0
1.836791990E1,-6.201694012E-1,1.069976687E0,-5.656166077E-1
1.841791990E1,1.380398273E0,-5.088026524E-1,-1.684690475E0
1.846791990E1,2.426934242E-1,-2.626533508E-1,-1.396407127E0
1.851791990E1,-7.590110302E-1,1.446988106E0,-1.874519348E0
1.856791990E1,7.394051552E-2,9.820232391E-1,-9.398174286E-2
1.861791990E1,3.376288414E0,-2.752464771E0,3.050829411E0
1.866791990E1,1.281116962E0,-4.849474907E0,2.825483322E0
1.871791990E1,4.392170906E-2,-2.905457020E0,2.531126499E0
1.876791990E1,3.331792355E-1,4.361686707E-1,1.357483387E0
1.881791990E1,-1.222724915E-1,-1.170582771E-1,4.176616669E-3
1.886791990E1,2.346525192E-1,2.141210079E0,-1.606540203E0
1.891791990E1,1.220829487E-1,-2.285876274E-1,1.949469566E0
1.896791990E1,1.983294010E0,-2.380237579E-1,2.337190628E0
1.901791990E1,4.493803978E-1,-1.809360981E0,-3.662585974E0
1.906791990E1,3.468073130E0,3.760523796E-1,7.444558144E-1
1.911791990E1,-1.292086840E0,1.603504658E0,7.167348862E-1
1.916791990E1,1.710228205E0,-1.886150122E0,-2.821768761E0
1.921791990E1,1.136302948E-3,-5.302152634E-1,-1.781560421E0
1.926791990E1,3.895668983E-1,-9.652616978E-1,3.098262787E0
1.931791990E1,1.412900448E0,-3.200981855E0,-1.114087105E0
1.936791990E1,-2.177888870E0,-6.424713135E-2,-4.596318245E0
1.941791990E1,-3.620046377E0,1.779471636E0,-5.675648689E0
1.946791990E1,-1.814280391E0,1.168115377E0,-4.094861031E0
1.951791990E1,-9.065694809E-1,1.343502522E0,1.455376625E0
1.956791990E1,2.920770645E-2,-3.887226582E-1,8.009643555E-1
1.961791990E1,-2.223290443E0,-1.137832165E0,1.340799332E-1
1.966791990E1,6.282525063E-1,-1.889881134E0,-2.341126442E0
1.971791990E1,1.438831568E0,-2.215234280E0,1.789174080E-1
1.976791990E1,2.434404373E0,-1.867980957E-1,1.347792149E0
1.981791990E1,9.281158447E-3,5.567646027E-1,1.753850937E0
1.986791990E1,3.684568405E-1,-2.344073772E0,3.408317089E0
1.991791990E1,4.678780556E0,-1.460578918E0,3.429261208E0
1.996791990E1,2.184044838E0,-2.280329704E0,2.764425755E0
2.001791990E1,-1.377889872E0,-9.802465439E-1,-8.817610741E-1
2.006791990E1,-2.233835697E0,3.478527069E0,-2.932225704E0
2.011791990E1,-2.757637024E0,2.012995243E0,-2.096419334E0
2.016791990E1,6.565305233E0,-9.722495079E-1,6.849831581E0
2.021791990E1,1.509511471E0,-3.755985737E0,7.950253487E-1
2.026791990E1,2.387099981E0,-1.949781895E0,9.194335938E-1
2.031791990E1,3.660871983E-1,-1.237858057E0,-3.491610527E0
2.036791990E1,-1.365160227E0,6.160974503E-2,-4.282598019E0
2.041791990E1,-1.919104576E0,-7.215380669E-3,-2.876493454E0
2.046791990E1,-1.877150536E-1,1.089869738E-1,-8.630332947E-1
2.051791990E1,-1.018547416E0,2.220787406E-1,-2.716803074E0
2.056791990E1,-1.259572983E0,9.047337770E-1,-3.094923019E0
2.061791990E1,-1.915639877E0,2.601392746E0,-3.106705189E0
2.066791990E1,-3.781676292E-1,8.242599964E-1,-1.408627510E0
2.071791990E1,8.247623444E-1,-1.386613846E0,1.906867027E-1
2.076791990E1,2.498385906E-1,-2.263192654E0,1.618862152E0
2.081791990E1,2.684926987E-1,-1.611258984E0,-7.044954300E-1
2.086791990E1,-1.526994705E-1,4.071855545E-1,-5.603008270E-1
2.091791990E1,3.252933025E-1,3.042774200E-1,2.437390327E0
2.096791990E1,4.188063622E0,-3.188842773E0,4.658064842E0
2.101791990E1,3.277216434E0,-1.419620037E0,5.097667694E0
2.106791990E1,-5.723400116E-1,-1.757482529E0,3.307914734E-1
2.111791990E1,-1.962234974E0,-9.175910950E-1,-2.571344376E-1
2.116791990E1,1.333633900E0,7.422580719E-1,-3.333239555E-1
2.121791990E1,1.494930744E0,2.958679199E-2,8.204793930E-2
2.126791990E1,2.451002836E0,-2.321071625E-1,1.682525158E0
2.131791990E1,1.325950861E0,-1.698537827E0,2.478995323E-1
2.136791990E1,2.417800426E-1,-7.681798935E-2,-1.552870750E0
2.141791990E1,1.341517448E0,-1.643004417E0,-5.053262711E-1
2.146791990E1,3.609740734E-1,3.763341904E-2,-9.808969498E-1
2.151791990E1,-1.038139105E0,-1.997147799E0,-1.478173256E0
2.156791990E1,-2.561024666E0,5.492877960E-1,-4.970215797E0
2.161791990E1,-7.591853142E-1,7.551472783E-1,-4.535548210E0
2.166791990E1,-1.138288379E0,2.036628485E0,-2.894564629E0
2.171791990E1,-1.086646557E0,-8.414974213E-1,-2.063952923E0
2.176791990E1,-5.624752045E-1,1.390187263E0,5.702285767E-1
2.181791990E1,3.718938828E-1,5.668783188E-2,2.459478378E-1
2.186791990E1,-4.134533405E-1,-2.857170582E0,1.338696480E-1
2.191791990E1,1.932015181E0,-3.538165092E-1,-6.578307152E-1
2.196791990E1,7.908995152E-1,-3.827438354E-1,1.041633606E0
2.201791990E1,1.299001932E0,-2.247021198E0,2.941179276E0
2.206791990E1,1.665934324E0,-2.302540779E0,2.859947205E0
2.211791990E1,-2.250123024E-1,-8.682847023E-1,1.313471317E0
2.216791990E1,-2.731120586E-1,1.539854527E0,-3.231287003E-2
2.221791990E1,4.471435547E-1,3.953771591E-1,-4.354538918E-1
2.226791990E1,2.006860733E0,-1.126851082E0,1.658310890E0
2.231791990E1,4.628174305E-1,-3.491601944E-1,6.600422859E-1
2.236791990E1,7.563433647E-1,-3.265624046E-1,3.759546280E-1
2.241791990E1,2.509044170E0,-7.256903648E-1,-4.139051437E-1
2.246791990E1,3.812236786E-1,-2.515059948E0,2.256442547E0
2.251791990E1,-2.692298889E-1,-1.668124199E0,-1.263021469E0
2.256791990E1,-1.083700657E0,-2.857627869E-1,-2.352129459E0
2.261791990E1,-4.222464561E0,4.860624075E-1,-4.584971905E0
2.266791990E1,-1.812848568E0,2.156595230E0,-2.421241760E0
2.271791990E1,-9.005117416E-2,1.415481329E0,-2.299179077E0
2.276791990E1,-7.138216496E-1,-5.603716373E-1,-5.939712524E-1
2.281791990E1,-1.791821003E0,1.435454845E0,-3.316236496E0
2.286791990E1,-2.675220013E0,2.359338284E0,-1.192223549E0
2.291791990E1,2.694551229E0,-1.542958260E0,-5.845766068E-1
2.296791990E1,1.231253386E0,-5.136126995E0,8.854756355E-1
2.301791990E1,3.322217464E-1,-1.974045753E0,8.986859322E-1
2.306791990E1,2.262674093E0,-2.084083557E-1,1.709138393E0
2.311791990E1,-5.724561214E-1,-4.365119934E-1,2.551555157E0
2.316791990E1,1.727220058E0,-1.835363388E0,2.798223019E0
2.321791990E1,-2.295818329E-1,-4.809045792E-1,8.200111389E-1
2.326791990E1,3.890266418E-1,1.242556572E-1,6.244392395E-1
2.331791990E1,1.177847624E0,7.090778351E-1,-2.010898590E-1
2.336791990E1,1.755427122E0,-5.330114365E-1,1.318618774E0
2.341791990E1,4.069715500E0,-1.869050503E0,2.828768730E0
2.346791990E1,-1.893413067E-1,-2.814967155E0,-1.697345734E0
2.351791990E1,-1.855866909E-1,2.406382561E-1,-1.683959007E0
2.356791990E1,-8.784627914E-2,2.984762192E-3,-2.245150566E0
2.361791990E1,-8.929383755E-1,-1.080932379E0,-4.747219086E-1
2.366791990E1,-9.495882988E-1,8.846395612E-1,-3.232504845E0
2.371791990E1,-1.521935701E0,5.782782435E-1,-1.504101753E0
2.376791990E1,-2.088817358E0,-2.837324142E-2,-3.569944859E0
2.381791990E1,-8.437733650E-1,1.585770607E0,-5.132486820E0
2.386791990E1,-2.891893864E0,1.825205326E0,-2.572954178E0
2.391791990E1,5.108449459E-1,6.485865116E-1,-2.137184143E-2
2.396791990E1,2.762957811E0,-4.255265713E0,7.940244675E-1
2.401791990E1,5.978565216E-1,-4.182277203E0,7.898101807E-1
2.406791990E1,2.000681877E0,-3.872494698E-1,1.454046249E0
2.411791990E1,4.222514629E-1,1.008672714E-1,1.158309937E0
2.416791990E1,-1.676981449E-1,7.762732506E-1,4.014431953E0
2.421791990E1,2.110927343E0,-1.995030403E0,2.025880814E0
2.426791990E1,-1.001482010E-1,-7.549796104E-1,2.424678802E-1
2.431791990E1,8.247885704E-1,-1.385813713E0,1.378531933E0
2.436791990E1,1.860384703E0,9.510922432E-1,-7.542061806E-1
2.441791990E1,1.339815617E0,-6.138463020E-1,-7.003784180E-3
2.446791990E1,1.858756065E0,-3.562526703E-1,1.399251461E0
2.451791990E1,1.809665442E0,-1.153524399E0,-2.540388107E-1
2.456791990E1,6.810863018E-1,-2.014159441E0,-1.507924557E0
2.461791990E1,-5.053305626E-1,-2.092109203E0,-3.158388138E-1
2.466791990E1,2.506341934E-1,-3.276002407E-1,-2.679187298E0
2.471791990E1,-3.072569370E0,1.744276643E0,-5.530365944E0
2.476791990E1,-4.575686455E-1,1.074598312E0,-3.743619442E0
2.481791990E1,-2.387862921E0,4.900337458E-1,-4.219472408E0
2.486791990E1,-3.851482868E-1,1.707605124E0,-2.284447670E0
2.491791990E1,-5.992579460E-1,6.038429737E-1,-1.869872093E0
2.496791990E1,-1.987531900E0,-2.363656044E0,1.446881294E-1
2.501791990E1,1.929028034E0,-2.659555435E0,1.119855881E0
2.506791990E1,2.142116547E0,-2.076200962E0,1.806889534E0
2.511791990E1,-3.749530315E-1,-2.358802319E0,2.112307072E0
2.516791990E1,1.554881811E0,1.927985668E0,1.434251308E0
2.521791990E1,1.013418198E0,-2.768273354E0,3.935136318E0
2.526791990E1,4.288117886E-1,-1.889072418E0,1.212694168E0
2.531791990E1,-1.243538141E0,1.558256149E-1,9.178214073E-1
2.536791990E1,3.483810425E-1,1.461498260E0,-5.555725098E-2
2.541791990E1,9.118101597E-1,3.375554085E-1,-3.722448349E-1
2.546791990E1,2.105202198E0,-5.093450546E-1,1.720523834E0
2.551791990E1,2.888035297E0,-2.407056332E0,2.428489685E0
2.556791990E1,9.346485138E-2,-3.260390282E0,-2.118034363E-1
2.561791990E1,9.334087372E-3,-9.537625313E-2,-2.600846291E0
2.566791990E1,-1.089115858E0,-7.828259468E-1,-1.853677273E0
2.571791990E1,-1.067023873E0,-4.264521599E-1,-6.381097317E0
2.576791990E1,-1.307260156E0,2.089125156E0,-2.076516628E0
2.581791990E1,-9.053825140E-1,4.583534002E-1,-3.312833786E0
2.586791990E1,-9.576828480E-1,1.894459486E0,-1.715993881E-1
2.591791990E1,-6.256747246E-1,2.321565151E-1,-2.062225342E0
2.596791990E1,-2.103100777E0,-8.680682182E-1,-1.971049786E0
2.601791990E1,-9.930877686E-1,-1.502363205E0,-9.837713242E-1
2.606791990E1,2.781450987E0,-3.419986248E0,2.089505196E0
2.611791990E1,4.939401150E-1,-3.151426315E0,1.333698273E0
2.616791990E1,7.544529438E-1,7.915115356E-2,3.796797276E0
2.621791990E1,1.566615820E0,-2.671718597E-2,2.427812099E0
2.626791990E1,4.609885216E-1,-2.689518929E0,1.365869999E0
2.631791990E1,-6.595993042E-2,1.195302010E-1,6.358132362E-1
2.636791990E1,1.167923212E0,-4.390239716E-3,9.226727486E-1
2.641791990E1,6.175134182E-1,-2.282757759E-1,6.380796432E-2
2.646791990E1,1.570487022E0,2.515554428E-1,9.355087280E-1
2.651791990E1,3.088840008E0,-2.190234661E0,1.802022934E0
2.656791990E1,7.341811657E-1,-1.071788788E0,-4.765348434E-1
2.661791990E1,8.707504272E-1,-1.596941233E0,-1.003826141E0
2.666791990E1,-2.835083008E-1,-1.272735834E0,-2.511553764E0
2.671791990E1,-1.406541824E0,7.314534187E-1,-2.802999020E0
2.676791990E1,-5.405540466E-1,7.875252962E-1,-2.804408550E0
2.681791990E1,-1.627497196E0,1.350392342E0,-4.584767342E0
2.686791990E1,-1.662051797E0,1.038753986E0,-4.923246861E0
2.691791990E1,-5.754721165E-1,1.542954922E0,-8.370075226E-1
2.696791990E1,4.464819431E-1,3.064436913E-1,-6.011180878E-1
2.701791990E1,-1.151946783E0,-3.256109715E0,-1.815795898E-2
2.706791990E1,7.242517471E-1,-2.728058338E0,6.758866310E-1
2.711791990E1,2.906966686E0,-1.356435299E0,1.406081200E0
2.716791990E1,1.069435120E0,-1.223802090E0,2.047221184E0
2.721791990E1,2.268832684E0,-5.270004272E-2,1.263630390E0
2.726791990E1,1.371324539E0,-7.627849579E-1,2.740622044E0
2.731791990E1,4.527316093E-1,3.615565300E-1,1.968857765E0
2.736791990E1,-1.525975704E0,-1.673205376E0,-9.266595840E-1
2.741791990E1,3.328670502E0,6.837654114E-2,1.495474339E0
2.746791990E1,2.116776466E0,-1.980542183E0,1.359129429E0
2.751791990E1,1.777217388E-1,-1.217334270E0,-8.314919472E-1
2.756791990E1,5.409526825E-2,-1.876521111E0,-6.837677956E-1
2.761791990E1,2.089931488E0,-3.182888031E-3,4.949941635E-1
2.766791990E1,-3.327343464E-1,-2.876922607E0,-1.301376343E0
2.771791990E1,-1.532371163E0,2.122840881E-1,-1.340192795E0
2.776791990E1,-2.105545521E0,9.406517148E-1,-3.932421684E0
2.781791990E1,-9.632740021E-1,2.074589729E0,-5.606984138E0
2.786791990E1,-3.068444252E0,8.238277435E-1,-4.357899189E0
2.791791990E1,1.135413647E-1,8.359298706E-1,-1.087399960E0
2.796791990E1,-3.226742744E-1,-1.257581711E-1,1.913642883E-2
2.801791990E1,-8.103303909E-1,-1.976740837E0,6.816525459E-1
2.806791990E1,-1.880671978E-1,-4.244678020E0,-1.187849998E0
2.811791990E1,4.911887646E-1,-8.883543015E-1,2.384567738E0
2.816791990E1,4.756864548E0,2.106223106E-1,2.585415363E0
2.821791990E1,-2.602298498E0,-5.059289932E-1,2.826375484E0
2.826791990E1,2.985496283E0,-3.615293503E-1,3.008469582E0
2.831791990E1,8.959569931E-1,-1.748846054E0,2.229588509E0
2.836791990E1,-6.952097416E-1,-3.267193794E0,-1.860857010E-1
2.841791990E1,1.953694820E-1,5.269351006E-1,-5.520653725E-1
2.846791990E1,4.011216164E-1,5.978183746E-1,-2.232065201E-1
2.851791990E1,2.713773966E0,-8.975434303E-1,1.624165058E0
2.856791990E1,7.515954971E-2,-1.091890812E0,-6.723594666E-2
2.861791990E1,1.049136162E0,-1.640414715E0,3.465652466E-2
2.866791990E1,4.469716549E-1,-1.969646454E0,-2.113968849E0
2.871791990E1,-1.506211400E0,7.099512815E-1,-1.588160038E0
2.876791990E1,-2.355086088E0,1.059604168E0,-5.374094009E0
2.881791990E1,-1.754409432E0,1.064992905E0,-4.295981407E0
2.886791990E1,-1.407284021E0,1.186205149E0,-5.202969551E0
2.891791990E1,-1.433304787E0,7.827069759E-1,-8.485121727E-1
2.896791990E1,6.010601521E-1,1.187567711E0,1.777648926E-3
2.901791990E1,-4.525802135E-1,-2.253880501E0,-7.772850990E-1
2.906791990E1,7.950067520E-1,-4.901982784E0,1.054587841E0
2.911791990E1,1.843921185E0,-1.453525543E0,1.423945427E0
2.916791990E1,1.499313116E0,2.679483414E0,1.216906071E0
2.921791990E1,-1.345427036E0,-3.221199989E0,3.751733303E0
2.926791990E1,3.366019011E0,-1.070407867E0,3.996927261E0
2.931791990E1,3.407361507E-1,5.426640511E-1,1.445684433E0
2.936791990E1,-2.106394768E-1,-1.141581059E0,-9.384560585E-1
2.941791990E1,-1.075481653E0,7.189493179E-1,-2.117972374E-1
2.946791990E1,4.514147758E0,-3.481507301E-1,3.405672073E0
2.951791990E1,9.392952919E-2,-3.229474068E0,-4.059743881E-1
2.956791990E1,3.552551270E-1,-1.859134197E0,4.223704338E-1
2.961791990E1,9.129676819E-1,-2.977976799E-1,-1.565831661E0
2.966791990E1,-5.026574135E-1,-6.209740639E-1,-1.569740295E0
2.971791990E1,-1.321083069E0,1.142449379E-1,-4.602108955E0
2.976791990E1,-2.289905787E0,1.410121799E0,-2.806861401E0
2.981791990E1,-6.921440363E-1,1.840616226E0,-4.779178619E0
2.986791990E1,-1.842211843E0,1.796658039E-1,-3.426816940E0
2.991791990E1,-1.339224339E0,5.931439400E-1,-1.706362724E0
2.996791990E1,-2.279605865E-1,4.261474609E-1,-1.671628475E0
3.001791990E1,3.157901764E-2,-1.552677155E0,8.478941917E-1
3.006791990E1,-3.277196884E-1,-4.683648109E0,-2.066875935E0
3.011791990E1,4.079351425E-1,-9.519686699E-1,4.928462029E0
3.016791990E1,5.865889549E0,-4.569475174E0,4.335095406E0
3.021791990E1,-4.768042564E-1,9.877405167E-1,3.522655487E0
3.026791990E1,-1.351048946E-1,-1.988449097E0,2.395112514E0
3.031791990E1,-2.816886902E-1,-6.238055229E-1,5.884203911E-1
3.036791990E1,-4.642581940E-2,-1.796841621E-1,-2.969627380E-1
3.041791990E1,1.366519213E0,-8.748435974E-1,3.633599281E-1
3.046791990E1,1.359264612E0,-3.294715881E-1,2.038145065E-2
3.051791990E1,1.413295269E0,-7.766766548E-1,1.105429649E0
3.056791990E1,-3.425097466E-2,-2.274536610E0,-7.659950256E-1
3.061791990E1,4.371268749E-1,-1.297516108E0,-8.459329605E-1
3.066791990E1,-1.413912773E-1,-3.649644852E-1,-2.443734169E0
3.071791990E1,-1.134384036E0,4.730319977E-2,-3.716184139E0
3.076791990E1,-9.494270086E-1,2.056621552E0,-2.646952629E0
3.081791990E1,-1.624076009E0,8.723356724E-1,-3.812822342E0
3.086791990E1,4.038715363E-2,2.441659451E0,-5.609992027E0
3.091791990E1,-7.687768936E-1,5.474684238E-1,-8.181457520E-1
3.096791990E1,6.272008419E-1,-6.507573128E-1,2.029381752E0
3.101791990E1,-1.121034622E0,-3.016259193E0,-1.843447208E0
3.106791990E1,-7.878971100E-2,-1.684778214E0,8.396005630E-1
3.111791990E1,1.735980511E0,-2.338338375E0,2.860398293E-1
3.116791990E1,4.530580044E0,-1.334290504E0,6.089648724E0
3.121791990E1,-1.557941437E-1,-1.603330612E0,2.425684452E0
3.126791990E1,5.518519878E-1,-1.044178009E-2,6.313476562E-1
3.131791990E1,-1.362085342E-3,-1.138804913E0,1.029884815E0
3.136791990E1,4.503607750E-2,2.046308517E-1,-8.807039261E-1
3.141791990E1,2.624330521E-1,5.485496521E-1,5.346212387E-1
3.146791990E1,5.260182381E0,-1.953828812E0,1.505760670E0
3.151791990E1,-1.178950310E0,-2.215490341E-1,1.862231255E0
3.156791990E1,1.192905188E0,-2.786563873E0,-8.796787262E-2
3.161791990E1,-4.808583260E-1,-2.182703495E0,-1.877244473E0
3.166791990E1,9.043128490E-1,1.044609189E0,-3.152497292E0
3.171791990E1,-3.167804480E0,-5.356919765E-1,-4.028776169E0
3.176791990E1,-1.849601507E0,2.557746410E0,-4.644884586E0
3.181791990E1,-1.809822917E0,1.154230595E0,-4.494523048E0
3.186791990E1,-1.540279388E-1,6.338047981E-2,-8.857750893E-1
3.191791990E1,-3.565394878E-1,-1.584010124E-1,2.379713058E-1
3.196791990E1,-9.295883179E-1,2.638812065E-1,-1.178990364E0
3.201791990E1,-1.374482870E0,-1.404806137E0,-1.438789845E0
3.206791990E1,1.304713488E0,-2.094996929E0,1.355878353E0
3.211791990E1,1.995769262E0,-5.323593616E0,3.368111134E0
3.216791990E1,2.100420713E0,-2.257364273E0,3.526037693E0
3.221791990E1,1.618492842E0,2.038613796E0,3.752070427E0
3.226791990E1,-7.092139721E-1,1.299675941E0,1.011961937E0
3.231791990E1,-1.166822195E0,-2.297589302E0,-1.444582939E-1
3.236791990E1,2.096502066E0,-2.125591278E0,2.656980038E0
3.241791990E1,2.169570446E0,-5.527806282E-1,8.929767609E-1
3.246791990E1,-1.189559460E0,5.731635094E-1,-2.422095776E0
3.251791990E1,1.857237816E-1,1.442797661E0,-2.344908714E-1
3.256791990E1,3.097153664E0,-2.088281631E0,2.061663151E0
3.261791990E1,1.506313801E0,-1.830650806E0,4.108619690E-1
3.266791990E1,-1.247531056E0,-4.088995934E0,-8.595857620E-1
3.271791990E1,-2.628883839E0,2.586173058E0,-5.716874599E0
3.276791990E1,-2.995612621E0,2.091385603E0,-7.103233337E0
3.281791990E1,-2.561750412E-1,5.318610668E-1,-3.207334995E0
3.286791990E1,-6.984677315E-1,7.044525146E-1,1.361250877E0
3.291791990E1,-7.950539589E-1,8.616249561E-1,2.777780533E0
3.296791990E1,-1.477802277E0,-3.849932671E0,-2.912378788E0
3.301791990E1,-8.191523552E-1,5.845975876E-2,-1.369549274E0
3.306791990E1,2.811416388E0,3.590007782E0,2.465161324E0
3.311791990E1,2.255927086E0,-7.863501549E0,-9.343500137E-1
3.316791990E1,-1.567185998E0,-4.781904221E-1,5.315168858E0
3.321791990E1,5.807747841E0,-5.685604095E0,3.620090961E0
3.326791990E1,-1.000489950E0,1.220820427E0,-3.124227524E-1
3.331791990E1,-2.714273453E0,2.933618546E0,-1.958910465E0
3.336791990E1,1.611876488E-2,6.100840569E-1,-2.895679474E-1
3.341791990E1,2.820460320E0,-1.734361649E-1,1.644799709E0
3.346791990E1,3.647129297E0,-2.342061520E0,3.828626156E0
3.351791990E1,-2.870559692E-4,-3.252849102E0,-9.084901810E-1
3.356791990E1,2.410971403E0,-9.607787132E-1,1.994771957E0
3.361791990E1,-3.503544331E-1,3.353834152E-1,-4.069598675E0
3.366791990E1,-1.374711275E0,-2.222270012E0,-4.072134018E0
3.371791990E1,-2.396928072E0,1.979263783E0,-2.479070187E0
3.376791990E1,1.136407852E0,1.412687063E0,-2.120099545E0
3.381791990E1,-1.534812212E0,5.875067711E-1,-1.722489834E0
3.386791990E1,-1.540845394E0,-9.454901218E-1,-1.926306725E0
3.391791990E1,1.698207855E-2,2.499191046E0,-3.983450890E0
3.396791990E1,-1.799125433E0,2.562188625E0,-4.205386162E0
3.401791990E1,1.577236652E0,3.871927261E-1,-8.662166595E-1
3.406791990E1,2.632074356E-1,-3.110087872E0,8.384118080E-1
3.411791990E1,2.817143440E0,-6.756114006E0,4.928400993E0
3.416791990E1,2.983292818E0,-5.179059029E0,1.270628929E0
3.421791990E1,-2.964200497E0,3.600923538E0,1.650756836E0
3.426791990E1,5.373430252E-1,4.340586185E0,3.382058144E-1
3.431791990E1,-1.290903211E0,5.524644852E-1,-5.123858452E-1
3.436791990E1,2.948847055E0,-2.214084148E0,4.127246380E0
3.441791990E1,2.256214857E0,-4.612424374E0,2.218626022E0
3.446791990E1,-6.238520145E-1,-1.443925381E0,1.176543236E-1
3.451791990E1,2.208471060E0,1.450854301E0,-8.631296158E-1
3.456791990E1,9.426410198E-1,4.334712029E-1,-6.810598373E-1
3.461791990E1,1.007974625E0,4.730353355E-1,-8.199052811E-1
3.466791990E1,-6.222176552E-2,-1.193979979E0,-2.239942551E-1
3.471791990E1,-4.901986122E-1,-3.524577141E0,1.132240295E0
3.476791990E1,-1.100378036E-1,-1.270575047E0,-7.451057434E-1
3.481791990E1,-3.411952734E0,3.706066132E0,-5.600987434E0
3.486791990E1,-2.091354609E0,2.035802603E0,-6.955166817E0
3.491791990E1,-2.714593887E0,2.525449753E0,-4.729321480E0
3.496791990E1,1.340105772E0,-4.570701122E-1,2.309531212E0
3.501791990E1,2.165763855E0,-6.490054131E-1,2.783780098E0
3.506791990E1,-1.621688604E0,-3.837145329E0,-1.986026764E-1
3.511791990E1,2.735941410E-1,-1.201673031E0,-1.589252472E0
3.516791990E1,3.222773075E-1,3.255849361E0,-8.557701111E-2
3.521791990E1,3.457361221E0,-5.282945633E0,7.344669819E0
3.526791990E1,-6.801799536E-1,3.952569962E-1,1.146524429E0
3.531791990E1,-1.546565533E0,-3.814145088E0,1.403741360E0
3.536791990E1,5.188999176E-1,-8.318805695E-2,1.825943947E0
3.541791990E1,-4.352116585E-1,2.244857311E0,6.598105431E-1
3.546791990E1,9.666097164E-1,-5.999712944E-1,2.407283783E-1
3.551791990E1,3.298921585E-1,1.555881500E-1,3.798608780E-1
3.556791990E1,6.718070030E0,-1.420559406E0,6.745430946E0
3.561791990E1,7.040030956E-1,-2.098361969E0,-1.053770065E0
3.566791990E1,6.639277935E-1,-4.042011261E0,1.627011299E0
3.571791990E1,-2.270192623E0,8.724448681E-1,-5.785765648E0
3.576791990E1,-2.743433952E0,2.555836678E0,-4.309616089E0
3.581791990E1,-6.419341564E-1,6.933588982E-1,-4.515521049E0
3.586791990E1,-1.082029104E0,1.490447283E0,-1.707988262E0
3.591791990E1,-5.057127476E-1,1.030072570E0,-1.820456505E0
3.596791990E1,-6.941564083E-1,9.047203064E-1,-1.285113811E0
3.601791990E1,-5.160260201E-1,3.641223907E-1,-2.725981236E0
3.606791990E1,-1.673202038E0,-2.405332088E0,-6.177759171E-1
3.611791990E1,1.543984413E0,-4.137738228E0,1.769659996E0
3.616791990E1,9.554845095E-1,-2.531007767E0,3.261994362E0
3.621791990E1,2.767413616E0,-1.129229546E0,2.855856895E0
3.626791990E1,-5.179684162E-1,2.495168686E0,2.028158188E0
3.631791990E1,4.160858154E0,-3.665809631E0,4.919397354E0
3.636791990E1,-1.301455140E0,-3.446856499E0,-2.522683144E-1
3.641791990E1,-7.092320919E-1,2.411918640E-1,-7.225565910E-1
3.646791990E1,1.842126369E0,7.094969749E-1,4.178371429E-1
3.651791990E1,-5.427122116E-3,5.405125618E-1,-1.683614731E0
3.656791990E1,2.443525314E0,-1.967684269E0,2.760643482E0
3.661791990E1,1.645112276E0,-2.278062344E0,7.043533325E-1
3.666791990E1,1.409155846E0,-3.295303583E0,-9.144220352E-1
3.671791990E1,-1.752753377E0,4.765844345E-2,-3.719519615E0
3.676791990E1,-2.216981888E0,8.307316303E-1,-5.243669987E0
3.681791990E1,-1.529091239E0,1.508815646E0,-6.348643780E0
3.686791990E1,-1.184445143E0,4.484304190E-1,-1.050408363E0
3.691791990E1,3.219399452E-1,5.729714632E-1,-1.453623772E0
3.696791990E1,-1.452509165E0,1.862211227E0,-2.258852959E0
3.701791990E1,-1.780097604E0,-1.966829300E-1,-1.785968781E0
3.706791990E1,1.227128506E0,-5.620851517E-1,1.551494598E-1
3.711791990E1,8.995761871E-1,-4.328736305E0,9.872183800E-1
3.716791990E1,1.747155309E0,-3.212514400E0,2.317778111E0
3.721791990E1,1.869649053E0,-1.159794807E0,2.316603184E0
3.726791990E1,-1.474874020E-1,1.326500893E0,2.583600998E0
3.731791990E1,8.026745319E-1,-1.247692108E0,2.294375896E0
3.736791990E1,-1.879286766E-2,-2.546272278E0,7.880959511E-1
3.741791990E1,2.310507298E-1,5.027422905E-1,1.519770622E-1
3.746791990E1,1.559310675E0,9.161829948E-1,-4.503679276E-1
3.751791990E1,8.624203205E-1,-1.635374069E0,3.300051689E-1
3.756791990E1,2.981730461E0,1.927828789E-1,2.710629463E0
3.761791990E1,7.617795467E-1,-3.504330635E0,-1.254558563E-1
3.766791990E1,-8.836066723E-1,-2.190039158E0,-1.383932590E0
3.771791990E1,-1.705490232E0,8.531670570E-1,-3.458261490E0
3.776791990E1,-5.051813126E-1,-1.242713928E-1,-3.156172752E0
3.781791990E1,-1.937430382E0,9.152114391E-2,-3.945768833E0
3.786791990E1,-7.632230520E-1,3.528374672E0,-3.213039398E0
3.791791990E1,-6.205418110E-1,1.345390677E0,-3.162256718E0
3.796791990E1,-1.097156048E0,1.133532286E0,-1.509458542E0
3.801791990E1,5.105774403E-1,3.355050087E-1,5.268096924E-2
3.806791990E1,1.278800964E-1,-2.741161346E0,5.706524849E-1
3.811791990E1,-1.419830322E-1,-3.803827286E0,4.956579208E-2
3.816791990E1,1.219329596E0,-1.106505871E0,7.965383530E-1
3.821791990E1,1.947906017E0,1.090801239E0,1.966750622E0
3.826791990E1,2.066025734E-1,-2.244423866E0,3.486821651E0
3.831791990E1,4.301497936E-1,-8.712291718E-2,2.035489559E0
3.836791990E1,8.800287247E-1,-1.983856201E0,3.406708241E0
3.841791990E1,-4.284830093E-1,-1.040874958E0,-4.450583458E-1
3.846791990E1,-2.153055668E-1,-4.531621933E-2,-4.845595360E-1
3.851791990E1,2.809723139E0,2.480621338E-1,1.456164837E0
3.856791990E1,7.942349911E-1,-1.995353699E-1,1.728258133E-1
3.861791990E1,4.292790890E-1,-1.637523651E0,1.307360649E0
3.866791990E1,1.081681728E0,-1.587657928E0,-8.975877762E-1
3.871791990E1,-3.987987041E-1,-2.991514444E0,-1.070797920E0
3.876791990E1,-1.086960077E0,-6.399154663E-3,-2.319627762E0
3.881791990E1,-1.896832466E0,1.700708508E0,-4.327009201E0
3.886791990E1,-2.313300610E0,2.401775837E0,-6.471312046E0
3.891791990E1,-1.173520446E0,1.159171104E0,-4.772014618E0
3.896791990E1,5.083630085E-1,1.204044104E0,1.514940262E-1
3.901791990E1,-3.836803436E-1,-6.618485451E-1,-9.172930717E-1
3.906791990E1,-1.110173225E0,-1.028431416E0,-1.122050285E-1
3.911791990E1,4.223153591E-1,-1.981740952E0,-1.102436066E0
3.916791990E1,1.453393459E0,-1.823889256E0,1.373712063E0
3.921791990E1,1.013513088E0,-3.850460052E-2,2.612289906E0
3.926791990E1,1.243429899E0,-2.532773972E0,3.289975643E0
3.931791990E1,1.265148044E0,-6.250791550E-1,2.658860207E0
3.936791990E1,9.885685444E-1,-8.872346878E-1,2.950045109E0
3.941791990E1,-7.669721842E-1,-1.521704674E0,-6.969175339E-1
3.946791990E1,-8.905391693E-1,6.889352798E-1,-1.372275352E0
3.951791990E1,2.414173126E0,1.022244453E0,1.781723976E0
3.956791990E1,2.051589251E0,-1.563627243E0,1.044936657E0
3.961791990E1,3.946197033E-1,-2.279770374E0,6.045403481E-1
3.966791990E1,9.994118214E-1,-2.008024216E0,6.360235214E-1
3.971791990E1,1.237797737E-1,-1.950250149E0,-1.262945175E0
3.976791990E1,-7.901219130E-1,1.140082121E0,-4.462181568E0
3.981791990E1,-2.987651825E0,4.175173044E-1,-3.662570000E0
3.986791990E1,-8.093349934E-1,6.257992387E-1,-3.647147179E0
3.991791990E1,-1.119394302E-1,2.511762857E0,-2.051567078E0
3.996791990E1,-3.919460773E-1,-3.247668743E-1,-3.089883804E0
4.001791990E1,-2.193177700E0,1.719872952E-1,-2.578314781E0
4.006791990E1,-2.162733078E-1,2.010364532E0,-1.389369488E0
4.011791990E1,8.451924324E-1,-2.186367989E0,6.277399063E-1
4.016791990E1,8.836076260E-1,-5.001626015E0,2.698043346E0
4.021791990E1,5.944732428E-1,-3.307212353E0,1.862852097E0
4.026791990E1,2.042497873E0,-1.854306221E0,3.253142357E0
4.031791990E1,2.443063259E-1,2.077268600E0,2.261602879E0
4.036791990E1,3.531090021E-1,1.013128281E0,1.023354053E0
4.041791990E1,-2.319049835E-1,3.803310394E-1,-7.163190842E-2
4.046791990E1,1.054722548E0,-1.134520054E0,2.725325584E0
4.051791990E1,3.878576279E0,-3.297164440E0,2.730317116E0
4.056791990E1,7.383251190E-1,-1.751985550E-1,-5.464158058E-1
4.061791990E1,4.714479446E-1,-3.360190868E0,-3.055834770E-1
4.066791990E1,-3.741948605E-1,1.400212765E0,-2.029829025E0
4.071791990E1,6.713914871E-2,-8.393759727E-1,1.215975761E0
4.076791990E1,-6.450188160E-1,-3.251626015E0,-1.653573990E0
4.081791990E1,-8.543033600E-1,2.208702087E0,-1.529833794E0
4.086791990E1,-2.199101210E0,8.715725541E-1,-4.150867462E0
4.091791990E1,-1.915094614E0,1.245392799E0,-3.884744644E0
4.096791990E1,-1.744346142E0,1.574869633E0,-4.089210510E0
4.101791990E1,-3.809502125E-1,7.708086967E-1,-1.163466454E0
4.106791990E1,-1.017401934E0,-5.147991180E-1,-8.432059288E-1
4.111791990E1,1.019908905E0,-2.372269630E-1,1.133083344E0
4.116791990E1,-8.146381378E-1,-7.174976826E0,-3.916010857E-1
4.121791990E1,1.494516253E0,4.923801422E-1,3.330575466E0
4.126791990E1,3.102633715E0,-1.742160797E0,9.888954163E-1
4.131791990E1,-1.947171926E0,-1.289857864E0,4.005341053E0
4.136791990E1,2.366414785E0,6.188964844E-1,1.399719238E0
4.141791990E1,-5.409946442E-1,-2.444664001E0,2.300961971E0
4.146791990E1,-5.921578407E-2,8.244590759E-1,-3.949699402E-1
4.151791990E1,1.395373821E0,-4.139261246E-1,1.982466698E0
4.156791990E1,2.872546911E0,-8.812909126E-1,2.770833969E-1
4.161791990E1,-1.326148510E-1,-6.994457245E-1,-8.162212372E-1
4.166791990E1,1.571459770E0,-2.097704887E0,1.202725410E0
4.171791990E1,8.245091438E-1,-1.857318878E0,-1.402617455E0
4.176791990E1,-1.177389264E0,-1.954171658E-1,-2.038469315E0
4.181791990E1,-1.053186417E0,-2.396786213E-1,-5.100190163E0
4.186791990E1,-1.333554745E0,2.978262901E0,-2.972881317E0
4.191791990E1,-1.578960776E0,1.183081150E0,-1.326821327E0
4.196791990E1,-1.008854866E0,4.487485886E-1,-2.326930046E0
4.201791990E1,-1.877430916E0,1.429181814E0,-2.189783096E0
4.206791990E1,-1.082340717E0,-9.361553192E-2,4.924888611E-1
4.211791990E1,-4.578139782E-1,-1.759730339E0,-1.740841866E-1
4.216791990E1,8.873438835E-2,-3.638689518E0,3.093562126E-1
4.221791990E1,3.000171661E0,-8.659143448E-1,2.292415142E0
4.226791990E1,1.186716676E0,-9.793577194E-1,1.162470818E0
4.231791990E1,1.022723198E0,-2.827421188E0,4.019526482E0
4.236791990E1,1.970554948E0,1.610937119E-1,2.290012836E0
4.241791990E1,-1.852066994E0,-1.656320572E0,1.860971451E-1
4.246791990E1,5.215656757E-1,1.502730370E0,3.529644012E-1
4.251791990E1,1.142542601E0,1.335312366E0,1.167481422E0
4.256791990E1,4.790627956E0,-3.462376595E0,1.314869404E0
4.261791990E1,7.304973602E-1,-6.245980263E-1,1.063866615E-1
4.266791990E1,2.595429659E0,-2.071010590E0,1.882705688E0
4.271791990E1,6.312942505E-2,-2.808692932E0,-3.523701668E0
4.276791990E1,-2.444174290E-1,3.215136528E-1,-1.920006275E0
4.281791990E1,6.332397461E-4,-6.737904549E-1,-3.375733852E0
4.286791990E1,-2.201647043E0,-9.804451466E-2,-3.186869621E0
4.291791990E1,-3.293011189E-1,2.797488689E0,-4.236979485E0
4.296791990E1,-1.428249955E0,1.143717289E0,-4.091001987E0
4.301791990E1,-1.010989904E0,5.763850212E-1,-2.635936737E0
4.306791990E1,1.538745880E0,-4.520158768E-1,-1.475854397E0
4.311791990E1,3.458116055E-1,-2.222774506E0,5.381970406E-1
4.316791990E1,-5.101336241E-1,-2.796000004E0,-1.455093861E0
4.321791990E1,1.208729029E0,4.087100029E-1,-1.304482937E0
4.326791990E1,5.059506893E-1,-4.454326630E-2,2.695295334E0
4.331791990E1,3.079270840E0,-6.793097496E0,4.537731171E0
4.336791990E1,2.564513683E-1,-3.024539948E-1,3.011868477E0
4.341791990E1,-3.233519793E-1,1.184250832E0,-1.156508684E0
4.346791990E1,-2.092817068E0,1.068305969E0,-1.690053940E-1
4.351791990E1,1.210506201E0,-1.309008598E-1,1.121170521E0
4.356791990E1,2.617846251E0,-1.845434666E0,3.230697632E0
4.361791990E1,5.680036545E-2,-4.550677299E0,7.331929207E-1
4.366791990E1,1.868104935E-1,1.764836311E-1,1.038938999E0
4.371791990E1,-3.055157661E-1,-1.348864555E0,-1.610205650E0
4.376791990E1,-1.339042664E0,-1.236302853E0,-2.505403042E0
4.381791990E1,-6.475474834E-1,-1.593589783E-1,-7.297258377E-1
4.386791990E1,-1.637348413E0,-2.246298075E0,-1.668994904E0
4.391791990E1,-1.544898748E0,4.336179256E0,-5.930635929E0
4.396791990E1,-1.242728829E0,1.243395209E0,-4.482754707E0
4.401791990E1,-2.249419689E0,9.262011051E-1,-9.942874908E-1
4.406791990E1,-3.148317337E-3,1.573853493E0,-2.835388184E-1
4.411791990E1,7.070229053E-1,-5.221233368E-1,-3.413844109E-1
4.416791990E1,-1.849173546E0,-1.952773571E0,-1.245655060E0
4.421791990E1,2.695083618E-2,-1.361074448E-1,5.724864006E-1
4.426791990E1,1.227769375E0,-1.451482773E0,8.482189178E-1
4.431791990E1,1.651493430E0,-3.970477104E0,5.956780434E0
4.436791990E1,2.794608355E0,-3.913015366E0,1.807725430E0
4.441791990E1,-5.341479778E-1,1.814054966E0,1.360245705E0
4.446791990E1,-8.962484598E-1,2.681970596E0,-1.557639122E0
4.451791990E1,-6.887078285E-1,-4.051690102E-1,3.586206436E-1
4.456791990E1,3.607379436E0,-2.259594917E0,1.623814106E0
4.461791990E1,1.995119810E0,-1.096402168E0,2.636234760E0
4.466791990E1,1.035089254E0,-1.691134453E0,-7.965359688E-1
4.471791990E1,1.472680569E0,-2.992916107E-2,-5.013613701E-1
4.476791990E1,5.703926086E-2,-3.374570370E0,-3.166618347E-1
4.481791990E1,3.941605091E-1,-1.270878077E0,1.152612686E0
4.486791990E1,4.793417454E-1,-1.239178896E0,-3.562695503E0
4.491791990E1,-3.207294703E0,1.524418950E0,-6.171056747E0
4.496791990E1,-1.674795270E0,3.547193527E0,-5.954302311E0
4.501791990E1,-4.305911064E-2,7.718684673E-1,-1.511398792E0
4.506791990E1,3.026101589E-1,-1.462187529E0,1.537364960E0
4.511791990E1,-2.385892868E-1,-2.569804192E-1,-9.886713028E-1
4.516791990E1,-8.709313869E-1,2.610211372E-1,-2.315957546E0
4.521791990E1,-6.116409302E-1,3.558435440E-1,-2.375821590E0
4.526791990E1,1.628924608E0,-1.847996712E-1,1.505775452E-1
4.531791990E1,2.107212067E0,-5.199719429E0,3.239693642E0
4.536791990E1,2.692642689E0,-4.869973183E0,5.552216530E0
4.541791990E1,-1.976866245E0,-3.614654541E-1,2.650387287E0
4.546791990E1,-2.803444862E-2,1.077199936E0,-1.020250320E-1
4.551791990E1,-4.566537142E-1,1.813372612E0,-1.238653183E0
4.556791990E1,1.099821329E-1,7.325739861E-1,-6.168589592E-1
4.561791990E1,4.121365070E0,-2.920356750E0,3.421732426E0
4.566791990E1,-2.902271748E-1,-2.947879791E0,1.852184772E0
4.571791990E1,2.008268595E0,-1.383137703E-1,1.466970444E-1
4.576791990E1,-1.445035934E-1,-7.324428558E-1,-1.325924873E0
4.581791990E1,-2.765769958E-1,2.265303135E-1,-2.697721481E0
4.586791990E1,-1.602861166E0,2.678513527E-2,-1.839618683E0
4.591791990E1,4.066967964E-1,-2.216859341E0,-1.346635818E-1
4.596791990E1,-2.179511070E0,2.548920393E0,-3.176759720E0
4.601791990E1,-2.328592539E0,1.140009165E0,-3.568464279E0
4.606791990E1,-2.146871805E0,2.954131365E0,-5.497591019E0
4.611791990E1,-1.209732294E0,2.224066734E0,-1.882881165E0
4.616791990E1,1.289618254E0,-7.174377441E-1,3.365039825E-2
4.621791990E1,-3.960106373E-1,-1.738228321E0,1.211330891E0
4.626791990E1,2.259213924E-1,-1.892948151E0,1.495818138E0
4.631791990E1,1.704204321E0,-2.181765556E0,4.315891266E-1
4.636791990E1,-4.464380741E-1,-1.859242439E0,1.573991299E0
4.641791990E1,-2.559019327E-1,-2.684249878E0,3.028570175E0
4.646791990E1,8.185108900E-1,3.839082718E-1,3.134044647E0
4.651791990E1,-7.099721432E-1,5.067281723E-1,1.015516758E0
4.656791990E1,-3.938361406E-1,6.541662216E-1,-9.186983109E-2
4.661791990E1,1.867370129E0,8.256378174E-1,1.950055599E0
4.666791990E1,3.724825859E0,-7.282032967E-1,1.588055611E0
4.671791990E1,1.643321514E-1,-4.548449516E-1,1.536779404E-1
4.676791990E1,2.194594622E0,-2.324055195E0,6.820921898E-1
4.681791990E1,6.546325684E-1,-2.479874134E0,-2.477631569E-1
4.686791990E1,5.404489040E-1,-6.211757660E-3,-2.923548698E0
4.691791990E1,-8.192297816E-1,-8.153367043E-2,-1.835902214E0
4.696791990E1,-2.596133232E0,-7.059990168E-1,-5.483956337E0
4.701791990E1,-8.257670403E-1,2.851677418E0,-3.354176044E0
4.706791990E1,-3.321478367E-1,9.228083491E-1,-1.546110630E0
4.711791990E1,-2.481902838E0,1.191000223E0,-2.455289841E0
4.716791990E1,-1.966453195E0,1.539142370E0,-2.206486702E0
4.721791990E1,9.946165085E-1,-1.878050327E0,-3.366150856E-1
4.726791990E1,-9.652328491E-1,-1.671081066E0,-1.959271431E-1
4.731791990E1,8.178331852E-1,4.039001465E-1,3.303756714E-1
4.736791990E1,1.917420626E0,-3.601325989E0,6.131935120E-2
4.741791990E1,-9.437727928E-2,3.252315521E-2,3.932354450E0
4.746791990E1,4.638615131E0,-7.401817322E0,6.947364807E0
4.751791990E1,-1.053498983E0,3.869199753E-1,2.410206795E-1
4.756791990E1,-1.291364193E0,1.945677757E0,1.057348251E-1
4.761791990E1,-7.183395624E-1,-5.055270195E-1,-4.785284996E-1
4.766791990E1,4.112341404E-1,1.949770451E0,-7.648692131E-1
4.771791990E1,2.981207848E0,-3.186891079E0,4.200986862E0
4.776791990E1,1.073253155E-1,-2.846984863E0,5.400490761E-1
4.781791990E1,6.751356125E-1,-8.779788017E-1,4.204306602E-1
4.786791990E1,8.676369190E-1,-2.209302425E0,-7.073812485E-1
4.791791990E1,-1.408376932E0,-2.668702602E-1,-3.211354256E0
4.796791990E1,-1.438789964E0,1.169844151E0,-3.034990311E0
4.801791990E1,-1.294884682E0,1.125714421E0,-2.210720062E0
4.806791990E1,-8.234126568E-1,1.226562977E0,-1.717765808E0
4.811791990E1,-1.233125210E0,-1.156542301E-1,-3.839670181E0
4.816791990E1,-1.556212187E0,1.730181217E0,-3.797618866E0
4.821791990E1,-4.766490459E-1,2.511712551E0,-3.496946335E0
4.826791990E1,1.001367569E-1,-1.408938885E0,-2.903313637E-1
4.831791990E1,3.495957851E-1,-3.446240902E0,1.878070354E0
4.836791990E1,2.050559998E0,-2.501516342E0,3.308753490E0
4.841791990E1,8.023935556E-1,-3.393477440E0,9.068059921E-1
4.846791990E1,5.580532551E-1,7.320652008E-1,1.859714031E0
4.851791990E1,8.783242702E-1,-1.003701210E0,2.886210442E0
4.856791990E1,-3.166534901E-1,-1.228721619E0,9.435143471E-1
4.861791990E1,5.817472935E-1,1.977546692E0,5.428314209E-1
4.866791990E1,4.513373375E-1,-3.626966476E-1,6.749343872E-1
4.871791990E1,4.428552628E0,-8.740906715E-1,1.442224503E0
4.876791990E1,-6.120314598E-1,-3.930330276E-1,4.280686378E-1
4.881791990E1,1.357564926E0,-3.471012115E0,8.583240509E-1
4.886791990E1,4.819512367E-1,-2.089638710E-1,-1.187220097E0
4.891791990E1,2.672624588E-2,-1.119405270E0,-2.098964214E0
4.896791990E1,-1.068115592E0,-3.175792217E0,-1.982411385E0
4.901791990E1,2.810705900E-1,1.970971584E0,-2.298553467E0
4.906791990E1,-1.206813216E0,2.429931641E0,-4.774764061E0
4.911791990E1,-2.530257940E0,2.011861801E0,-5.568096161E0
4.916791990E1,-3.189927340E-1,9.320734739E-1,-2.002645969E0
4.921791990E1,2.151606560E0,1.236168623E0,7.707891464E-1
4.926791990E1,-6.288354397E-1,-9.771041870E-1,-7.228803635E-1
4.931791990E1,-1.849571466E0,-1.860999584E0,-2.184239388E0
4.936791990E1,1.547757030E0,-1.233947754E0,-6.627469063E-1
4.941791990E1,2.090848923E0,-2.558071613E0,1.821587086E0
4.946791990E1,7.160907984E-1,-2.388791084E0,3.917718410E0
4.951791990E1,8.813288212E-1,-2.788158417E0,3.081446171E0
4.956791990E1,1.424490809E0,-1.882324219E-1,3.057387829E0
4.961791990E1,3.577260971E-1,8.689517975E-1,-9.800386429E-2
4.966791990E1,-1.339383245E0,-1.593858242E0,-5.572242737E-1
4.971791990E1,2.233178854E0,-3.655681610E-1,5.615687370E-1
4.976791990E1,2.396718264E0,-1.754773140E0,3.249508381E0
4.981791990E1,1.466333866E-1,-1.552437782E0,-1.569046497E0
4.986791990E1,-6.646690369E-1,-1.154450417E0,-6.945066452E-1
4.991791990E1,5.621433258E-3,-1.136933327E0,-4.427680969E-1
4.996791990E1,-2.267196178E-1,-1.761806011E-1,-2.330202103E0
5.001791990E1,-8.883546591E-1,9.786033630E-2,-3.426164627E0
5.006791990E1,-2.389814138E0,1.798254371E0,-3.763495445E0
5.011791990E1,-1.236474633E0,1.384466648E0,-3.039851189E0
5.016791990E1,-1.140772820E0,1.106185079E0,-3.010919094E0
5.021791990E1,-4.292206764E-1,9.835131168E-1,-1.937102318E0
5.026791990E1,-3.774423599E-1,8.511581421E-1,-1.584730148E0
5.031791990E1,-1.021382809E-1,-2.262688637E0,4.710836411E-1
5.036791990E1,8.119745255E-1,-3.667895794E0,6.381506920E-1
5.041791990E1,2.782372236E-1,-2.457629681E0,2.668495655E0
5.046791990E1,4.247603416E0,-6.497926712E-1,2.562857628E0
5.051791990E1,-2.947250843E0,-9.019832611E-1,3.383944988E0
5.056791990E1,3.970431089E0,-3.023614883E-1,2.122842789E0
5.061791990E1,-9.087288380E-2,-1.233259201E0,1.540286541E0
5.066791990E1,-3.573957682E-1,-1.883618832E0,-1.047149658E0
5.071791990E1,4.283092022E-1,3.152012825E-1,4.252943993E-1
5.076791990E1,2.234317780E0,-5.116262436E-1,1.158817291E0
5.081791990E1,2.444772720E0,5.263519287E-2,-1.783485413E-1
5.086791990E1,3.276264668E-1,-3.065326214E0,3.715362549E-1
5.091791990E1,5.017769337E-1,-1.894881725E0,-7.154464722E-1
5.096791990E1,-7.792618275E-1,-1.282816172E0,-1.878162384E0
5.101791990E1,-6.311426163E-1,1.045443535E0,-4.586194038E0
5.106791990E1,-9.277749062E-1,8.866283894E-1,-4.367278099E0
5.111791990E1,-1.756113887E0,2.085153580E0,-3.344149590E0
5.116791990E1,-8.311972618E-1,1.957485557E0,-3.327108383E0
5.121791990E1,-1.260403991E0,7.068235874E-1,-1.753011703E0
5.126791990E1,-4.954822063E-1,-5.274324417E-1,1.006391525E0
5.131791990E1,-5.752873421E-1,-2.693966866E0,3.468489647E-1
5.136791990E1,6.676306725E-1,-2.858732224E0,1.358003139E0
5.141791990E1,2.055808783E0,-1.152297974E0,8.606925011E-1
5.146791990E1,-4.758154750E-1,-2.359859467E0,4.139633656E0
5.151791990E1,3.108420849E0,-1.464521408E0,4.264981270E0
5.156791990E1,1.219565868E-1,-9.974937439E-1,1.036436081E0
5.161791990E1,-9.561457634E-1,4.945850372E-1,2.228393555E-1
5.166791990E1,1.312259078E0,2.391119003E-1,-3.117837906E-1
5.171791990E1,1.734556198E0,-7.955164909E-1,1.961782932E0
5.176791990E1,1.845630169E0,-1.170448780E0,6.192431450E-1
5.181791990E1,1.032655239E0,-1.582616329E0,-4.510893822E-1
5.186791990E1,3.438766003E-1,-3.425852299E0,7.929658890E-1
5.191791990E1,-5.443875790E-1,-1.475523472E0,-1.180970192E0
5.196791990E1,-8.270123005E-1,-1.719663858E0,-2.388813019E0
5.201791990E1,-1.714978814E0,2.075218201E0,-6.111109734E0
5.206791990E1,-1.925584078E0,1.755208492E0,-2.915343761E0
5.211791990E1,-1.123368502E0,8.582608700E-1,-3.476712227E0
5.216791990E1,-7.540193796E-1,1.415086985E0,-6.784973145E-1
5.221791990E1,3.870670795E-1,1.358908653E0,-1.501549721E0
5.226791990E1,-1.269118667E0,-4.947967529E-1,-2.757351875E0
5.231791990E1,1.731932163E-2,-1.960085869E0,-3.300800323E-1
5.236791990E1,3.429803610E0,-3.494999409E0,3.936911583E0
5.241791990E1,3.572485447E-1,-2.031090736E0,1.248081684E0
5.246791990E1,-3.278829575E0,-2.401027679E0,3.365761757E0
5.251791990E1,2.302812099E0,-7.175245285E-1,2.100628853E0
5.256791990E1,3.537684679E-1,7.608084679E-1,1.817186356E0
5.261791990E1,2.992367744E-1,-6.412158012E-1,4.242892265E-1
5.266791990E1,7.349169254E-2,-8.836202621E-1,8.315753937E-1
5.271791990E1,3.885746717E0,-7.954535484E-1,1.582320690E0
5.276791990E1,7.584187984E-1,-8.237814903E-1,3.512477875E-2
5.281791990E1,1.412377357E0,-1.969961643E0,1.180280685E0
5.286791990E1,-3.846442699E-1,-5.314307213E-1,-1.988968849E0
5.291791990E1,4.754805565E-2,-1.870616198E0,-6.314859390E-1
5.296791990E1,-1.243953228E0,-1.792269707E0,-1.859284878E0
5.301791990E1,-1.435900688E0,2.666662216E0,-4.476683140E0
5.306791990E1,-1.065021157E0,1.143708467E0,-4.289127350E0
5.311791990E1,-1.803306699E0,1.592346191E0,-3.385787487E0
5.316791990E1,5.032982826E-1,1.607425928E0,-3.479279995E0
5.321791990E1,-7.978754044E-1,-4.497759342E-1,2.796401978E-1
5.326791990E1,-6.061980724E-1,-5.947027206E-1,1.742615700E-1
5.331791990E1,-4.850468636E-1,-2.004573822E0,-1.420689106E0
5.336791990E1,4.217830896E-1,-2.595824718E0,1.424490452E0
5.341791990E1,1.823286891E0,-1.755795479E0,3.026000977E0
5.346791990E1,1.521549106E0,-2.379772186E0,4.738582611E0
5.351791990E1,-1.833312511E-1,-8.237276077E-1,2.464001179E0
5.356791990E1,3.015863895E-2,8.045759201E-1,1.689678669E0
5.361791990E1,-5.454487801E-1,-2.102991581E0,8.943581581E-1
5.366791990E1,-3.513329029E-1,-7.474937439E-1,-2.723298073E-1
5.371791990E1,1.800819397E0,1.643180847E-2,1.862990379E0
5.376791990E1,1.798282146E0,-1.228963375E0,5.620412827E-1
5.381791990E1,-1.991565228E-1,-1.567090988E0,2.128729820E-1
5.386791990E1,5.124399662E-1,-3.211049557E0,1.203755379E0
5.391791990E1,-1.389534473E-1,-3.321039200E0,-4.774227142E-1
5.396791990E1,-4.204511642E-1,-1.582670212E-1,-5.428627968E0
5.401791990E1,-4.402209759E0,2.984059811E0,-5.314766884E0
5.406791990E1,-1.652105570E0,3.501307487E0,-4.340888023E0
5.411791990E1,-8.951071501E-1,-6.042652130E-1,4.620027542E-1
5.416791990E1,1.162605286E-1,7.679934502E-1,-1.234045029E-1
5.421791990E1,-1.145457149E0,-1.030006409E-1,-2.628748417E0
5.426791990E1,-8.899998665E-1,-6.004619598E-2,-1.068087578E0
5.431791990E1,-4.827976227E-2,1.283109188E0,-2.056911945E0
5.436791990E1,3.524423838E-1,-9.548454285E-1,1.249274254E0
5.441791990E1,2.725979328E0,-6.621716976E0,3.195796013E0
5.446791990E1,8.756482601E-1,-4.424327850E0,3.885323048E0
5.451791990E1,1.126912117E0,-1.296682358E-1,2.294515610E0
5.456791990E1,-8.845407963E-1,3.258438110E0,-9.447398186E-1
5.461791990E1,-1.327722192E0,1.889020443E0,-1.181740761E0
5.466791990E1,2.273680210E0,-6.227574348E-1,2.513531685E0
5.471791990E1,7.699726105E0,-3.774908543E0,4.405341625E0
5.476791990E1,-7.194985151E-1,-2.555151939E0,-9.253864288E-1
5.481791990E1,4.191968441E-1,-1.929204464E0,-5.194730759E-1
5.486791990E1,6.544017792E-2,-1.318883419E0,-3.071554661E0
5.491791990E1,-2.470676184E0,3.906583786E-1,-1.782061577E0
5.496791990E1,6.058168411E-1,-7.363550663E-1,-2.656989574E0
5.501791990E1,-1.220798135E0,-1.053260446E0,-2.047295094E0
5.506791990E1,-9.133522511E-1,2.187576294E0,-3.179313660E0
5.511791990E1,-1.686320066E0,2.002252340E0,-6.295710087E0
5.516791990E1,-3.076715469E-1,1.861243367E0,-9.540061951E-1
5.521791990E1,-1.335500717E0,-2.100196838E0,-9.996547699E-1
5.526791990E1,-3.527493477E-1,3.706345558E-1,7.455797195E-1
5.531791990E1,-1.470820904E-1,1.000776291E-1,6.870379448E-1
5.536791990E1,7.825757265E-1,-4.858886719E0,7.239274979E-1
5.541791990E1,3.938956261E-1,1.147616863E0,6.764936447E-1
5.546791990E1,9.935578108E-1,-8.039855957E-1,2.588097572E0
5.551791990E1,1.745499372E0,-3.765428543E0,5.773494720E0
5.556791990E1,7.879080772E-1,9.612255096E-1,1.719080925E0
5.561791990E1,-1.059194565E0,8.069829941E-1,5.101885796E-1
5.566791990E1,5.844585896E-1,-3.586737633E0,1.732878685E0
5.571791990E1,3.135885239E0,1.322554111E0,1.190596104E0
5.576791990E1,4.551377296E-1,1.182761192E-1,5.003604889E-1
5.581791990E1,1.285820007E-1,-1.791388035E0,-1.800075531E0
5.586791990E1,7.754366398E-1,-8.844976425E-1,2.654453278E0
5.591791990E1,1.831614494E0,-3.151103497E0,8.507003784E-1
5.596791990E1,2.018499374E-1,-2.390219450E0,-3.618891239E0
5.601791990E1,-4.356395245E0,4.377127647E0,-7.530632973E0
5.606791990E1,-1.071677327E0,9.994053841E-2,-4.730297089E0
5.611791990E1,-1.197636127E-1,3.284645796E0,-2.185248375E0
5.616791990E1,-5.709159374E-1,5.223350525E-1,4.176235199E-1
5.621791990E1,-1.107289076E0,-2.163758516E0,-3.056154251E-1
5.626791990E1,-3.213093281E-1,1.347339630E0,-1.493616581E0
5.631791990E1,-7.594312429E-1,4.764871597E-1,-1.104277611E0
5.636791990E1,8.393654823E-1,-1.877046108E0,-1.721754551E0
5.641791990E1,-6.792691946E-1,8.424873352E-1,2.093725681E0
5.646791990E1,5.573679924E0,-1.144143200E1,5.990964413E0
5.651791990E1,-3.378485441E-1,6.217079163E-1,5.045716286E0
5.656791990E1,-8.400564194E-1,4.353971481E-1,1.152577877E0
5.661791990E1,-8.908067942E-1,8.569111824E-1,-1.145397902E0
5.666791990E1,-6.088339090E-1,9.610419273E-1,-4.752016068E-2
5.671791990E1,3.406609774E0,-1.729550362E0,2.820920944E0
5.676791990E1,2.049377203E0,-1.177388668E0,8.767118454E-1
5.681791990E1,1.455299854E-1,-9.319372177E-1,-9.942240715E-1
5.686791990E1,-2.959856987E-1,-3.921649933E0,1.047104836E0
5.691791990E1,2.292425632E-1,-1.174180984E0,-9.485430717E-1
5.696791990E1,2.496762276E-1,-3.208372593E-1,-2.672964096E0
5.701791990E1,-2.561307430E0,1.660691619E0,-5.959502220E0
5.706791990E1,-1.641933799E0,4.028659821E0,-4.221040726E0
5.711791990E1,8.399983644E-1,7.989537716E-1,-8.712635040E-1
5.716791990E1,-2.196789026E0,-1.589686394E0,-1.646743774E0
5.721791990E1,-3.156244755E-1,1.551333666E0,-1.230618954E0
5.726791990E1,-3.962333202E-1,2.441247463E0,-3.648116589E0
5.731791990E1,-3.131229877E0,-9.353117943E-1,-1.251681805E0
5.736791990E1,3.427300453E0,-2.731733322E0,1.207704544E0
5.741791990E1,3.322463751E0,-3.000396729E0,2.807384014E0
5.746791990E1,2.983280420E-1,-6.058271408E0,2.855186462E0
5.751791990E1,-1.096151114E0,7.572469711E-1,3.521088123E0
5.756791990E1,1.007120490E0,2.127546787E0,8.994607925E-1
5.761791990E1,-9.536637664E-1,3.843383789E-1,-1.072392464E-1
5.766791990E1,2.069475412E0,-1.090599537E0,1.167781353E0
5.771791990E1,5.446234703E0,-4.516395092E0,5.455390930E0
5.776791990E1,-8.710207939E-1,-1.646530151E0,-1.319482803E0
5.781791990E1,1.722084761E0,1.425204277E-1,-1.269378662E-1
5.786791990E1,5.236697197E-2,-5.695953369E-1,-1.770485401E0
5.791791990E1,-2.024466991E-1,3.109059334E-1,-3.604144096E0
5.796791990E1,-1.422380567E0,-2.317764997E0,-1.465390205E0
5.801791990E1,1.027138233E-1,-1.070891380E0,8.120670319E-1
5.806791990E1,-8.860355616E-1,2.883168697E0,-3.217118263E0
5.811791990E1,-3.263340235E0,1.750808239E0,-6.482222557E0
5.816791990E1,-2.372708321E0,1.164844632E0,-4.552912712E0
5.821791990E1,1.543189526E0,2.910794258E0,-1.151552677E0
5.826791990E1,3.995234966E-1,-1.588797569E0,1.738618374E0
5.831791990E1,-6.717880964E-1,-3.442866325E0,-9.781289101E-1
5.836791990E1,7.337104082E-1,-1.616022110E0,6.817908287E-1
5.841791990E1,3.392390728E0,-8.835768700E-1,1.903697968E0
5.846791990E1,-7.490150928E-1,-1.428564072E0,2.042300224E0
5.851791990E1,3.205129623E0,-3.258114815E0,4.177445889E0
5.856791990E1,-5.463945866E-2,-1.567399979E0,2.959021568E0
5.861791990E1,-1.051807404E0,-5.351352692E-2,-1.601371765E-1
5.866791990E1,5.167021751E-1,9.722886086E-1,-6.538605690E-1
5.871791990E1,2.124527454E0,-1.258871555E0,2.907115936E0
5.876791990E1,1.353810310E0,-2.343936443E0,8.091893196E-1
5.881791990E1,-1.663908958E-1,-1.501784325E-1,3.827133179E-1
5.886791990E1,4.658977985E-1,-2.709336281E0,-1.459691048E0
5.891791990E1,-4.503717422E-1,-1.387427568E0,-7.052783966E-1
5.896791990E1,-9.435415268E-2,-4.879546165E-1,1.735000610E-1
5.901791990E1,-2.923594475E0,-2.942252159E-1,-3.764043808E0
5.906791990E1,-1.200137854E0,2.212984562E0,-4.642332077E0
5.911791990E1,-1.223410130E0,2.982704163E0,-4.325119972E0
5.916791990E1,-1.476580620E0,9.121274948E-2,-2.224884510E0
5.921791990E1,-8.320946693E-1,-1.064708233E0,9.293441772E-1
5.926791990E1,3.243217468E-1,1.169553041E0,3.294224739E-1
5.931791990E1,-1.056694984E0,-5.050644875E-1,-3.474688530E-1
5.936791990E1,-6.496361494E-1,-5.214975357E0,-5.019412041E-1
5.941791990E1,-5.685006380E-1,-3.461117744E0,1.657612324E0
5.946791990E1,7.821701050E0,3.991199970E0,3.752977371E0
5.951791990E1,-3.948912621E0,-1.898685455E0,3.839216709E0
5.956791990E1,5.253697634E-1,-1.956485748E0,2.630202293E0
5.961791990E1,1.880909681E0,-8.871288300E-1,1.690701485E0
5.966791990E1,-1.159474373E0,-3.966612816E-1,-1.693076134E0
5.971791990E1,-1.965768337E-1,2.080503464E0,-3.446431160E-1
5.976791990E1,5.310025692E0,-9.682960510E-1,3.788509846E0
5.981791990E1,2.250077724E-1,-3.650674820E0,-4.921822548E-1
5.986791990E1,1.125702858E0,-1.010550976E0,1.341359138E0
5.991791990E1,5.778255463E-1,-2.568204880E0,-1.132413864E0
5.996791990E1,-1.166921854E0,-2.837793827E-1,-2.486719131E0
6.001791990E1,-2.953470707E0,2.260870457E0,-4.642270088E0
6.006791990E1,-3.939408064E-1,8.135146499E-1,-4.607323170E0
6.011791990E1,-6.425662041E-1,1.173860550E0,-4.590604782E0
6.016791990E1,1.142251492E-1,2.875565052E0,-2.681536674E0
6.021791990E1,-2.883880138E-1,1.361500978E0,-2.540318489E0
6.026791990E1,-1.693415642E-2,1.350703239E0,-1.775693893E0
6.031791990E1,-4.046527147E-1,-4.313825607E0,4.292001724E-1
6.036791990E1,1.295943975E0,-3.495721340E0,2.180842400E0
6.041791990E1,3.639181852E-1,-2.594587803E0,1.246415615E0
6.046791990E1,1.164418697E0,-5.654497147E-1,9.265208244E-1
6.051791990E1,-2.373881340E-1,2.322709560E0,3.123371601E0
6.056791990E1,3.251520157E0,-2.628772736E0,4.377121925E0
6.061791990E1,6.760530472E-1,2.888898849E-1,1.081930637E0
6.066791990E1,-7.419897318E-1,-2.371284962E0,6.092691422E-1
6.071791990E1,2.437609673E0,-3.821653843E0,5.303258896E-1
6.076791990E1,1.333873034E0,-8.234405518E-1,1.524292469E0
6.081791990E1,-6.311206818E-1,-5.196619034E-2,-1.679600239E0
6.086791990E1,-1.999795079E0,-2.653689861E0,-2.872776985E0
6.091791990E1,2.105203390E0,1.386224627E0,1.113500595E0
6.096791990E1,-2.836768627E-1,-1.634867668E0,-2.319699287E0
6.101791990E1,-3.784213781E0,1.723449111E0,-2.514947414E0
6.106791990E1,3.917171955E-1,-2.288179398E0,1.208493233E0
6.111791990E1,-4.355773926E-1,2.393683195E0,-5.468419552E0
6.116791990E1,-2.289503813E0,3.590223551E0,-7.074289799E0
6.121791990E1,-2.504094839E0,3.328031540E0,-5.591211319E0
6.126791990E1,-2.262917042E0,-1.676498413E0,-3.008595943E0
6.131791990E1,6.760716438E0,-9.242397308E0,5.866163731E0
6.136791990E1,1.133299112E0,-6.534852028E0,3.181813717E0
6.141791990E1,-9.140397310E-1,3.159017563E-1,4.332094193E-1
6.146791990E1,-2.420036197E-1,5.281725883E0,1.019869804E0
6.151791990E1,4.491631985E0,-1.165075302E0,7.146162510E0
6.156791990E1,1.413129091E0,-4.025043488E0,-5.864429474E-1
6.161791990E1,-1.410811663E0,5.852146149E-1,-4.500975609E-1
6.166791990E1,4.181867838E-1,-2.761360645E0,1.637620449E0
6.171791990E1,3.529181004E0,-1.983180523E0,3.133201599E-2
6.176791990E1,1.274186611E0,1.478147507E-1,-4.699649811E-1
6.181791990E1,5.144450665E-1,-1.262635708E0,-7.264027596E-1
6.186791990E1,1.478855610E-1,-2.078272343E0,-2.007674694E0
6.191791990E1,5.023055077E-1,4.037499428E-1,-4.939193726E-1
6.196791990E1,1.770197153E-1,-2.479617357E0,-1.160103798E0
6.201791990E1,-1.277107596E0,2.565176964E0,-4.492804050E0
6.206791990E1,-2.041457176E0,1.264661551E0,-5.924122810E0
6.211791990E1,-2.276737690E-1,2.127200365E0,-6.226507187E0
6.216791990E1,-1.241710424E0,1.402858019E0,-3.547913551E0
6.221791990E1,1.498597145E0,-4.160332680E-1,2.437886238E0
6.226791990E1,-1.255625010E0,-4.193993568E0,-8.205156326E-1
6.231791990E1,-4.800057411E-2,-3.357215405E0,1.812469959E0
6.236791990E1,1.324052811E0,-8.768920898E-1,-1.475172043E-1
6.241791990E1,4.057908058E-2,4.780721664E-1,3.621930599E0
6.246791990E1,9.481868744E-1,-4.095892906E0,4.923556328E0
6.251791990E1,9.666903019E-1,-8.967475891E-1,2.162113667E0
6.256791990E1,-2.653321028E-1,3.761291504E-3,5.194759369E-1
6.261791990E1,-2.309722900E-1,-3.033113480E-1,-4.030389786E-1
6.266791990E1,4.868643284E-1,9.182343483E-1,-1.250929832E-1
6.271791990E1,2.475215197E0,-8.898682594E-1,2.104284763E0
6.276791990E1,1.528675556E0,-3.701964855E0,1.068596363E0
6.281791990E1,-3.265135288E-1,-2.093104362E0,6.459770203E-1
6.286791990E1,2.085781097E-1,-1.162868261E0,-1.842999458E0
6.291791990E1,-1.616455436E0,-3.570556641E-1,-3.428993225E0
6.296791990E1,-2.191381931E0,2.108014822E-1,-4.291046619E0
6.301791990E1,-1.902156472E0,1.388660669E0,-3.677003860E0
6.306791990E1,1.332955360E-1,6.188291311E-1,-2.217420578E0
6.311791990E1,-1.487043619E0,1.373714685E0,-2.255203247E0
6.316791990E1,2.772605419E-1,2.229785681E0,-1.768779755E-1
6.321791990E1,-4.641242027E-1,-4.909868240E-1,-3.044383526E0
6.326791990E1,-1.749238968E0,-2.090505123E0,1.424154282E0
6.331791990E1,1.514813185E0,-3.744388103E0,1.678085327E0
6.336791990E1,1.627383709E0,-1.625268936E0,2.733541489E0
6.341791990E1,7.868691683E-1,-2.438744545E0,2.334340572E0
6.346791990E1,1.005292773E0,3.351424217E0,1.462728500E0
6.351791990E1,1.830891848E0,1.847267151E-1,3.439509869E0
6.356791990E1,-4.489951134E-1,-5.088672638E0,7.492170334E-1
6.361791990E1,1.156101227E-1,9.286084175E-1,1.287743568E0
6.366791990E1,3.921273708E0,-8.309950829E-1,1.312346935E0
6.371791990E1,4.405636787E-1,-1.931543350E-1,-3.314403534E0
6.376791990E1,-1.353297234E-1,3.784241676E-1,1.667455673E0
6.381791990E1,2.455858946E0,-2.631120682E0,5.260667801E-1
6.386791990E1,-8.576419353E-1,-3.574691772E0,1.794460297E0
6.391791990E1,-2.527189255E-2,-7.712318897E-1,-2.011236668E0
6.396791990E1,-2.968035221E0,2.628178120E0,-4.037894726E0
6.401791990E1,-2.517426014E-1,-4.932277203E-1,-6.766910553E0
6.406791990E1,-2.398853779E0,2.436723709E0,-4.828919411E0
6.411791990E1,8.610577583E-1,4.973237991E0,-1.024320602E0
6.416791990E1,1.277270317E-1,-8.199276924E-1,-1.840285301E0
6.421791990E1,3.504104614E-1,-3.754141331E0,2.844515324E0
6.426791990E1,1.596021891E0,-1.756532192E0,2.601952553E-1
6.431791990E1,5.177556276E-1,-1.166811943E0,-1.347751141E0
6.436791990E1,1.025999904E0,1.217248440E0,1.417757511E0
6.441791990E1,3.158186913E0,-3.112114906E0,2.851922035E0
6.446791990E1,1.944559216E0,-3.605300903E0,5.007033825E0
6.451791990E1,6.651028395E-1,2.964410782E-1,9.250059128E-1
6.456791990E1,-1.473925114E-1,1.378674507E-1,-3.379154205E-2
6.461791990E1,1.031140685E0,2.828974724E-1,-1.742329597E-1
6.466791990E1,2.991010427E0,-1.331387043E0,1.740293980E0
6.471791990E1,1.945710182E-2,-5.383790493E0,4.093270302E-1
6.476791990E1,7.332308292E-1,-8.376374245E-1,-3.142209053E-1
6.481791990E1,4.519906044E-1,-4.842123985E-1,-2.618515968E0
6.486791990E1,-1.569407821E0,-3.361140013E0,-1.888487816E0
6.491791990E1,-9.097543359E-1,1.198299646E0,-2.982527733E0
6.496791990E1,-3.373707533E0,-1.667316198E0,-2.819138527E0
6.501791990E1,-7.824029922E-1,2.395301342E0,-4.946755409E0
6.506791990E1,-2.005026102E0,2.887138605E0,-4.023551941E0
6.511791990E1,-1.061225176E0,6.412172318E-2,-3.531157017E0
6.516791990E1,-1.521084070E0,-1.849707603E0,2.085876465E-2
6.521791990E1,3.286910057E-1,-3.210725784E-1,1.631975651E0
6.526791990E1,-1.877994776E0,-3.364922047E0,-1.074259758E0
6.531791990E1,9.897875786E-1,-2.380469322E0,1.346855164E0
6.536791990E1,1.228687167E0,7.252960205E-1,2.527412415E0
6.541791990E1,-3.722212315E-1,-2.940473557E-1,4.489305019E0
6.546791990E1,3.413410664E0,-9.232006073E-1,1.052700520E0
6.551791990E1,-2.416375875E-1,-1.045417786E-1,1.944096565E0
6.556791990E1,-7.275083065E-1,-1.630302429E0,5.233912468E-1
6.561791990E1,-3.448458910E-1,-1.454305649E-2,-4.991955757E-1
6.566791990E1,1.893975258E0,-4.063282013E-1,2.202529430E0
6.571791990E1,1.053413153E0,-2.195553780E-1,1.443576813E-2
6.576791990E1,1.289711714E0,-1.159856319E0,1.897389889E0
6.581791990E1,-1.330131769E0,-2.355952740E0,-2.872400284E-1
6.586791990E1,-1.082216024E0,-8.107271194E-1,4.663276672E-1
6.591791990E1,-2.307583809E0,-4.555093288E0,1.783752441E-1
6.596791990E1,-2.822662830E0,7.163928747E-1,-2.946765900E0
6.601791990E1,-1.455964565E0,6.243568420E0,-1.156104565E1
6.606791990E1,-4.373644829E0,4.344998360E0,-6.661153793E0
6.611791990E1,-8.025853634E-1,2.782001495E-1,-1.672135353E0
6.616791990E1,2.511790037E0,-1.480959892E0,5.206458569E0
6.621791990E1,-2.437167406E0,-5.795844555E0,9.128956795E-1
6.626791990E1,4.561642408E-1,-2.641801357E0,-4.021393299E0
6.631791990E1,-1.452907324E-1,6.629484177E0,-4.556123734E0
6.636791990E1,-3.408753633E0,1.981449127E-2,6.155192852E0
6.641791990E1,6.245460510E0,-6.771294594E0,9.604866982E0
6.646791990E1,4.764861107E0,-2.401388168E0,3.980298042E0
6.651791990E1,-2.439561129E0,-1.046967506E0,-3.596224785E-1
6.656791990E1,-6.484485865E-1,-1.753088951E0,-6.740798950E-1
6.661791990E1,1.377328396E0,1.637501717E0,-1.322952271E0
6.666791990E1,-7.487722635E-1,1.823985577E0,-1.787238598E0
6.671791990E1,4.563124657E0,-1.455690861E0,4.541035652E0
6.676791990E1,5.612335205E-1,-2.793868542E0,-1.550786972E0
6.681791990E1,1.937842369E-2,-2.964777946E0,-4.911565781E-1
6.686791990E1,-4.932333231E-1,-5.854690075E-1,-2.799753189E0
6.691791990E1,-2.595578432E0,1.730002046E0,-5.258992195E0
6.696791990E1,-2.216223240E0,7.554926276E-1,-5.068416595E0
6.701791990E1,4.321905375E-1,-6.237223148E-1,-1.923110962E0
6.706791990E1,-2.553098202E-1,3.012549639E0,-3.865093231E0
6.711791990E1,-1.235733032E0,1.901741028E0,-2.301797867E0
6.716791990E1,-1.047116280E0,-5.307326317E-1,-2.285146713E-1
6.721791990E1,3.360686302E-1,-2.809162140E0,1.097198486E0
6.726791990E1,6.575328112E-1,-2.919853687E0,1.304329872E0
6.731791990E1,4.611774683E-1,-3.580516815E0,1.257974625E0
6.736791990E1,1.605301738E0,-9.228115082E-1,3.037152767E0
6.741791990E1,2.657052517E0,-1.885538101E-1,4.027881622E0
6.746791990E1,-5.406277180E-1,-4.946107864E-1,1.323158741E0
6.751791990E1,-1.084842443E0,4.295482635E-1,-8.160161972E-2
6.756791990E1,1.477902770E0,-1.365115643E0,2.229823112E0
6.761791990E1,2.488425732E0,-1.780497074E0,1.156507015E0
6.766791990E1,8.002450466E-1,6.225981712E-1,-1.473681927E0
6.771791990E1,1.114168882E0,1.011848450E-3,-1.351799011E0
6.776791990E1,9.400608540E-1,-3.237984657E0,1.127836227E0
6.781791990E1,-4.392557144E-1,-4.005875587E-1,-1.008757591E0
6.786791990E1,1.229582071E0,-1.707636833E0,-1.507301331E-1
6.791791990E1,-1.625694275E0,4.360816479E-1,-5.720549583E0
6.796791990E1,-2.248715401E0,2.948369980E0,-3.651323795E0
6.801791990E1,6.506549120E-1,-1.395777225E0,-3.769918442E0
6.806791990E1,-1.210312366E0,-3.712611198E-1,-5.024080276E-1
6.811791990E1,-3.686904907E-3,4.166109085E0,-2.708314896E0
6.816791990E1,-1.387600064E0,1.638615608E0,-5.400106907E0
6.821791990E1,-2.269192457E0,4.267215729E-2,-9.382309914E-1
6.826791990E1,4.436816216E0,-3.995911121E0,2.788738728E0
6.831791990E1,1.545957923E0,-1.383416462E1,6.119837761E0
6.836791990E1,2.066969872E0,5.148038864E-1,1.698126316E0
6.841791990E1,-2.887617588E0,2.774864674E0,1.035317898E0
6.846791990E1,-9.162843227E-2,3.413702011E0,7.279863358E-1
6.851791990E1,-4.814314842E-1,-1.294927597E0,1.905395985E0
6.856791990E1,3.730102539E0,-4.863257408E0,9.312777519E-1
6.861791990E1,2.814667225E-1,1.170005798E-1,3.566014767E0
6.866791990E1,3.228685856E0,-2.285720825E0,-7.851848602E-1
6.871791990E1,-1.471496820E0,4.827365875E-1,-2.623002052E0
6.876791990E1,2.249571323E0,-6.693797112E-1,3.057695389E0
6.881791990E1,-1.056104660E0,-3.688060284E0,-1.197332382E0
6.886791990E1,-9.825327396E-1,-5.868191719E-1,-1.877347946E0
6.891791990E1,-1.281486273E0,9.166495800E-1,-5.716397285E0
6.896791990E1,-1.609018445E0,1.214048624E0,-4.102250099E0
6.901791990E1,-1.226709485E0,1.013442278E0,-3.582177162E0
6.906791990E1,-3.731060028E-1,2.123183489E0,-2.567658424E0
6.911791990E1,-1.718733668E0,1.038702488E0,-1.942403793E0
6.916791990E1,-2.534503937E-1,2.306022644E-1,-1.727404594E0
6.921791990E1,-1.268963814E0,-1.478329659E0,7.557725906E-1
6.926791990E1,8.170857430E-1,-4.228215218E0,2.584573746E0
6.931791990E1,1.182944179E0,-3.524610519E0,1.424624443E0
6.936791990E1,-7.660029531E-1,4.203224182E-2,2.361428261E0
6.941791990E1,6.196603775E-1,-3.250398636E-1,2.563689709E0
6.946791990E1,2.098411322E-1,-5.815715790E-1,2.817784309E0
6.951791990E1,-9.245562553E-2,-2.056303024E-1,8.106079102E-1
6.956791990E1,-6.766471863E-1,-7.740211487E-1,6.302299500E-1
6.961791990E1,1.694137335E0,-7.595109940E-2,-3.052568436E-2
6.966791990E1,2.808377504E0,-1.200726509E0,3.200751781E0
6.971791990E1,9.879546165E-1,-9.038939476E-1,-6.268191338E-1
6.976791990E1,3.095343113E-1,-4.652428627E-1,1.462736130E-1
6.981791990E1,1.677904129E-1,-1.310388088E0,-1.198878288E0
6.986791990E1,-5.245141983E-1,-3.308594942E0,1.134541512E0
6.991791990E1,-3.795248270E-1,-1.261477232E0,6.147480011E-2
6.996791990E1,-1.778119683E0,9.607478976E-1,-6.126464844E0
7.001791990E1,-1.797159672E0,3.659002781E0,-6.765514374E0
7.006791990E1,-1.704390049E0,2.396188259E0,-5.746843815E0
7.011791990E1,1.381777048E0,-8.260560036E-2,1.841252327E0
7.016791990E1,1.187640190E0,-2.915725708E-1,1.162605286E0
7.021791990E1,-2.432540894E0,-2.397103786E0,-1.019344330E0
7.026791990E1,-2.325388193E-1,-1.051503658E0,-1.193630219E0
7.031791990E1,9.400526285E-1,2.587873936E0,-1.245206356E0
7.036791990E1,-5.036931038E-1,-2.562362671E0,1.379562378E0
7.041791990E1,4.685444355E0,-5.327273369E0,4.558202267E0
7.046791990E1,1.189841032E0,-2.329411507E0,5.537649155E0
7.051791990E1,-1.550354600E0,-6.668291092E-1,1.029481888E-1
7.056791990E1,-8.730411530E-3,3.189134598E0,-7.201046944E-1
7.061791990E1,-3.522542715E-1,9.459590912E-2,8.743658066E-1
7.066791990E1,3.745102167E0,-3.140024662E0,1.349621773E0
7.071791990E1,1.325334311E0,-1.082282066E-1,2.537190914E0
7.076791990E1,3.258129835E0,-1.357823849E0,7.048358917E-1
7.081791990E1,-8.485101461E-1,-1.963308334E0,-2.349251747E0
7.086791990E1,-9.486148357E-1,-3.964912891E-1,-4.536943436E-1
7.091791990E1,-8.842262030E-1,-2.442789793E0,1.334733963E-1
7.096791990E1,-1.068126559E0,-2.369851828E0,-2.803768158E0
7.101791990E1,-1.385029793E0,2.728771448E0,-5.197412491E0
7.106791990E1,-1.944394827E0,3.906116962E0,-6.516515255E0
7.111791990E1,-8.787537813E-1,4.273207188E-1,-3.311855316E0
7.116791990E1,5.815846920E-1,1.047902107E-1,1.271463394E0
7.121791990E1,3.364050388E-1,4.226303101E-2,1.648885727E0
7.126791990E1,-1.012304783E0,-2.913000584E0,2.064466476E-2
7.131791990E1,-2.846860886E-1,-2.720860004E0,-1.728205204E0
7.136791990E1,5.017508268E-1,4.279600620E0,-2.643394470E-1
7.141791990E1,1.569092631E0,-2.322314262E0,1.054598808E0
7.146791990E1,2.386775970E0,-5.609865189E0,5.803573608E0
7.151791990E1,1.182854891E0,-5.014562607E-1,2.818050385E0
7.156791990E1,-9.690513611E-1,7.367582321E-1,-1.423463821E-1
7.161791990E1,-1.449109554E0,-1.354945183E0,-4.437494278E-1
7.166791990E1,1.784635067E0,-7.078971863E-1,2.732381821E-1
7.171791990E1,1.104577303E0,1.122451782E0,1.359836102E0
7.176791990E1,1.968914986E0,1.279821396E-1,4.665966034E-1
7.181791990E1,4.436523914E-1,-2.146360397E0,-2.561802864E-1
7.186791990E1,2.986079454E0,-1.579245090E0,5.409758568E0
7.191791990E1,-5.839338303E-1,-5.965122223E0,2.063589096E-1
7.196791990E1,-8.182892203E-1,5.891914368E-1,-4.662948132E0
7.201791990E1,-2.538879395E0,2.534421921E0,-6.482092381E0
7.206791990E1,1.977568865E-1,1.647859335E0,-4.416238308E0
7.211791990E1,-8.641551733E-1,1.727599144E0,-4.663809776E0
7.216791990E1,-2.946854830E-1,3.692095280E-1,1.277665138E0
7.221791990E1,6.443774700E-1,1.787453413E0,6.563043594E-1
7.226791990E1,-1.136764288E0,-1.172374725E0,-4.206438065E-1
7.231791990E1,-1.300683498E0,-2.689121723E0,-3.569331169E-1
7.236791990E1,1.338196635E0,-5.246448517E-2,-9.346513748E-1
7.241791990E1,1.333385944E0,-6.825227737E-1,1.227293968E0
7.246791990E1,2.342730522E0,-5.304163933E0,3.061857700E0
7.251791990E1,-7.300269604E-1,1.020976067E0,3.383793354E0
7.256791990E1,-4.064591527E-1,9.014167786E-1,7.327680588E-1
7.261791990E1,-2.137207985E-2,-1.574221611E0,1.214497089E0
7.266791990E1,5.235311985E-1,-1.350111961E-1,7.547426224E-2
7.271791990E1,2.254370928E0,-2.588900566E0,4.106239319E0
7.276791990E1,7.399020195E-1,-1.284832954E0,-5.396938324E-2
7.281791990E1,4.964840412E-1,1.364564419E0,-9.404401779E-1
7.286791990E1,1.257697582E0,-1.700843334E0,4.965534210E-1
7.291791990E1,-7.875139713E-1,-2.618938446E0,-3.954210281E-1
7.296791990E1,-3.385595083E-1,-1.758410931E0,5.179023743E-2
7.301791990E1,9.740793705E-1,-1.068751812E-1,-1.405245781E0
7.306791990E1,-2.769948721E0,3.350008011E0,-6.229488850E0
7.311791990E1,-1.621892333E0,2.083167315E0,-5.762403011E0
7.316791990E1,-9.126991630E-1,2.017601252E0,-3.042999268E0
7.321791990E1,8.321661949E-1,-1.446464062E-1,9.396457672E-1
7.326791990E1,-4.532436132E-1,3.772926331E-2,8.920860291E-2
7.331791990E1,-7.595925331E-1,2.072143555E-2,-5.311870575E-1
7.336791990E1,-5.761981010E-3,-1.838857651E0,-1.603501797E0
7.341791990E1,8.292223215E-1,-2.587480545E-1,-7.572364807E-1
7.346791990E1,1.134243369E0,-2.143792629E0,2.842774868E0
7.351791990E1,9.920493364E-1,-4.719072342E0,4.634188175E0
7.356791990E1,1.800151110E0,6.972713470E-1,2.978302956E0
7.361791990E1,-1.075940967E0,1.017141342E-1,-1.047801971E-1
7.366791990E1,2.674266100E-1,1.319642067E0,1.698670387E-1
7.371791990E1,7.579864264E-1,-9.259614944E-1,7.396454811E-1
7.376791990E1,3.192394257E0,-1.612644196E0,1.489876747E0
7.381791990E1,7.925364971E-1,-6.966590881E-1,8.736062050E-1
7.386791990E1,8.949570656E-1,-1.588394642E0,1.033785343E0
7.391791990E1,-3.033407927E-1,-2.460763454E0,-1.945654392E0
7.396791990E1,1.372890472E-1,-2.777826786E-1,-2.406234741E-1
7.401791990E1,-1.259855270E0,-2.069223404E0,-9.388380051E-1
7.406791990E1,-6.352289915E-1,1.933162451E0,-4.051392555E0
7.411791990E1,-1.846736312E0,1.823390841E0,-3.950185776E0
7.416791990E1,-5.183842182E-1,8.024189472E-1,-3.832951069E0
7.421791990E1,-1.494194269E0,1.848386645E0,-9.701251984E-1
7.426791990E1,8.987693787E-1,-4.436049461E-1,-1.418800831E0
7.431791990E1,-1.369105458E0,3.795647621E-1,-1.805194855E0
7.436791990E1,-8.277970552E-1,7.742371559E-1,-1.287206650E0
7.441791990E1,6.305081844E-1,-2.278778553E0,2.042479515E-1
7.446791990E1,1.134979129E0,-1.164356232E0,7.103457451E-1
7.451791990E1,1.502106667E0,-3.155490398E0,3.252523422E0
7.456791990E1,2.376550436E0,-4.561504364E0,2.240385056E0
7.461791990E1,-1.136851430E0,1.160359383E0,1.587861538E0
7.466791990E1,3.094315529E-2,2.641474724E0,-4.873390198E-1
7.471791990E1,-1.783426762E0,-9.879240990E-1,5.549030304E-1
7.476791990E1,1.856468558E0,-5.348434448E-1,1.436737061E0
7.481791990E1,3.064725876E0,-1.957694530E0,3.019438267E0
7.486791990E1,1.205921173E-3,-2.627454758E0,-1.188353062E0
7.491791990E1,-1.927263737E-1,5.680141449E-1,-1.337429047E0
7.496791990E1,1.336886883E-1,-2.229156017E0,1.067244530E0
7.501791990E1,4.590773582E-2,-1.376685858E0,-1.767930031E0
7.506791990E1,-8.174034357E-1,1.071476221E0,-2.567152977E0
7.511791990E1,-2.273303986E0,-1.333903670E0,-3.059474945E0
7.516791990E1,-7.049631476E-1,4.414984226E0,-4.712510109E0
7.521791990E1,8.771061897E-3,1.464709759E0,-1.822083473E0
7.526791990E1,-2.048198938E0,-2.142902136E0,-1.682776928E0
7.531791990E1,-4.428238869E-1,2.610841751E0,-2.578959942E0
7.536791990E1,2.063911200E0,1.281996250E0,2.015143394E0
7.541791990E1,-1.110787868E0,-3.276997566E0,-3.512002468E0
7.546791990E1,-2.728930473E0,6.052160263E-2,-1.551484585E0
7.551791990E1,1.701913476E0,5.935115814E-1,2.369767666E0
7.556791990E1,7.332544804E0,-1.168424797E1,7.236738205E0
7.561791990E1,-1.656522036E0,5.328340530E-1,2.649858952E0
7.566791990E1,-4.619215727E-1,-2.217006683E-2,-6.200790405E-2
7.571791990E1,-5.058047771E-1,1.514386177E0,-6.541767120E-1
7.576791990E1,1.018383503E-1,-1.476543427E0,2.219944477E0
7.581791990E1,3.549184322E0,-3.158926964E0,1.632180214E0
7.586791990E1,-2.929275036E-1,1.532915592E0,-1.221729279E0
7.591791990E1,7.083530426E-1,-2.925009727E-1,1.970438480E0
7.596791990E1,2.168479919E0,-3.207590580E0,1.490354538E-2
7.601791990E1,9.043216705E-1,-1.065037251E0,1.435709000E0
7.606791990E1,8.922483921E-1,-3.529455185E0,-8.856439590E-1
7.611791990E1,-1.519010544E0,-1.839490891E0,-1.387797356E0
7.616791990E1,-2.494522333E-1,3.784474611E0,-6.341237068E0
7.621791990E1,-1.303933501E0,1.652747631E0,-4.911954403E0
7.626791990E1,-1.375896454E0,4.514447451E-1,-3.274224758E0
7.631791990E1,1.141709208E0,1.510617375E0,-3.746948242E-1
7.636791990E1,1.527115345E0,-9.384706020E-1,1.875241280E0
7.641791990E1,-1.973661184E-1,-2.434947491E0,-1.687467575E0
7.646791990E1,-1.385630846E0,-4.971790314E-1,-3.540919304E0
7.651791990E1,-2.247170210E-1,4.270161629E0,-1.903247833E0
7.656791990E1,1.196914911E0,-3.224015713E0,6.425247192E-1
7.661791990E1,3.534525394E0,-8.544285774E0,7.295797348E0
7.666791990E1,1.669489384E0,-2.243294716E0,2.200237751E0
7.671791990E1,-4.629638195E-1,-5.620288849E-2,-7.727274895E-1
7.676791990E1,1.484621525E0,4.356986523E0,-2.199386358E0
7.681791990E1,2.256737709E0,5.169582367E-1,3.041019440E-1
7.686791990E1,6.832965016E-1,-2.340409279E0,-1.216307163E0
7.691791990E1,1.178328276E0,-4.162921906E-1,8.674101830E-1
7.696791990E1,-3.004523516E-1,-2.282469749E0,-9.767584801E-1
7.701791990E1,9.061080217E-1,1.816031933E0,-1.901391983E0
7.706791990E1,1.229729414E0,1.598036766E0,-1.136123180E0
7.711791990E1,-1.615066409E0,-7.064361572E-1,-1.239737034E0
7.716791990E1,-4.086960852E-1,-1.985440254E0,-3.615112305E-1
7.721791990E1,3.696224213E0,1.244403839E0,1.169286251E0
7.726791990E1,1.062254190E0,-1.861850739E0,1.306942463E0
7.731791990E1,-4.698518217E-1,1.954603195E-1,-3.305613041E0
7.736791990E1,2.639236450E0,1.665566444E0,-6.781716347E-1
7.741791990E1,1.570347309E0,1.707000732E-1,2.263936996E-1
7.746791990E1,5.465090275E-1,-4.952785015E0,-1.534286976E0
7.751791990E1,2.845721006E0,1.672794342E0,1.249886990E0
7.756791990E1,1.775200725E0,3.201436996E-1,-2.920000076E0
7.761791990E1,7.000077963E-1,-5.886602402E-1,-1.964025259E0
7.766791990E1,2.359347105E0,1.426177502E0,-1.268414497E0
7.771791990E1,3.756372929E0,-1.437548637E0,1.572577953E0
7.776791990E1,-2.210668772E-1,-4.888168812E0,-1.895174980E0
7.781791990E1,2.436322212E0,1.381289482E0,-1.339689255E0
7.786791990E1,5.709451437E-1,-4.030323029E-1,-2.643664837E0
7.791791990E1,3.840427160E0,-1.084965229E0,6.044960022E-2
7.796791990E1,1.735661864E0,1.721404076E0,-1.820499659E0
7.801791990E1,3.012295723E0,-3.039291859E0,1.837274551E0
7.806791990E1,8.188603520E-1,-1.185569286E0,-4.668181896E0
7.811791990E1,1.345686555E0,1.589694500E0,2.030002117E0
7.816791990E1,3.635078907E0,-3.203559399E0,-2.634735107E0
7.821791990E1,-4.066048265E-1,-1.282482624E0,7.808399200E-2
7.826791990E1,2.569717646E0,-2.308527470E0,-1.055426121E0
7.831791990E1,7.148920894E-1,-1.170291901E0,-8.380827904E-1
7.836791990E1,1.874896765E0,6.957421303E-1,-1.924751759E0
7.841791990E1,1.415585876E-1,-6.996955872E-1,-1.471311092E0
7.846791990E1,3.793022394E0,-1.399251938E0,6.627359390E-1
7.851791990E1,1.534901261E-1,-1.796877384E0,-1.425807953E0
7.856791990E1,1.680420160E0,-1.737406254E0,6.495714188E-1
7.861791990E1,7.431924939E-1,-8.509821892E-1,-2.689389467E0
7.866791990E1,-3.800516129E-1,-3.851284981E-1,-3.864703178E-1
7.871791990E1,1.098501444E0,-2.398279190E0,3.416882992E0
7.876791990E1,3.895107269E0,3.041610718E-1,-2.074750423E0
7.881791990E1,3.066232204E-1,-2.685000420E0,6.515917778E-1
7.886791990E1,1.809773445E0,-3.685424328E0,-9.146423340E-1
7.891791990E1,3.132900238E0,-2.546476841E0,1.832938194E0
7.896791990E1,2.570691586E0,-1.584644556E0,-4.193493843E0
7.901791990E1,-8.893986940E-1,-2.467422009E0,-3.670215607E0
7.906791990E1,-1.827801347E0,2.170020342E-1,-2.926058292E0
7.911791990E1,1.901495218E0,-1.215565562E0,-2.410140038E0
7.916791990E1,5.781922340E-1,1.580623627E0,-2.753152370E0
7.921791990E1,8.896696568E-1,-7.352321148E-1,-2.443177700E0
7.926791990E1,1.900540590E-1,-1.467847824E-1,-1.766319275E0
7.931791990E1,8.705955744E-1,-3.196852207E-1,-1.967220783E0
7.936791990E1,8.721530437E-1,-6.178045273E-2,-1.229303360E0
7.941791990E1,-3.279453516E-1,-4.001007557E0,-2.222065926E-1
7.946791990E1,-2.648577690E-1,-1.938249588E0,-1.376673698E0
7.951791990E1,7.724578977E-1,-8.197627068E-1,1.570692062E-1
7.956791990E1,1.041914463E0,-3.454123974E0,2.202184200E0
7.961791990E1,2.835803509E0,-1.388225555E0,1.444912434E0
7.966791990E1,-1.285716772E0,1.270503998E-1,1.120494843E0
7.971791990E1,-5.292165279E-2,-2.223777771E-1,-1.867387772E0
7.976791990E1,-5.342221260E-1,-2.151902676E0,9.718465805E-2
7.981791990E1,6.375110149E-2,-1.196910381E0,6.907987595E-1
7.986791990E1,8.514685631E-1,1.052699089E-1,4.953327179E-1
7.991791990E1,1.314212799E0,-1.012834549E0,-3.564357758E-3
7.996791990E1,-4.760658741E-1,2.001242638E-1,-1.778254509E0
8.001791990E1,7.614381313E-1,-1.597771645E-1,9.632101059E-1
8.006791990E1,1.382368803E0,-1.897873878E0,1.004783630E0
8.011791990E1,8.165097237E-2,-3.387338638E0,1.227436066E-1
8.016791990E1,-4.276371002E-1,-1.275752306E0,-6.723680496E-1
8.021791990E1,-1.701091528E0,-1.515591145E0,-1.923995018E0
8.026791990E1,-2.500090837E0,7.408900261E-1,-3.102156639E0
8.031791990E1,-3.938302994E-1,-6.888302565E-1,-1.987128735E0
8.036791990E1,-8.716596365E-1,9.428232312E-1,-3.248615742E0
8.041791990E1,-1.276275516E0,1.521830440E0,-2.032375813E0
8.046791990E1,-1.680079937E0,7.957100868E-2,-2.172561646E0
8.051791990E1,-2.014134407E0,1.300551176E0,-8.961296082E-1
8.056791990E1,-1.007363319E0,-1.226489067E0,3.892121315E-1
8.061791990E1,-7.699738741E-1,-2.580726147E0,1.222360134E0
8.066791990E1,-4.747657776E-1,-1.100156307E0,-1.608467102E-2
8.071791990E1,-1.227416992E0,-4.809991360E0,-1.554092407E0
8.076791990E1,3.430825233E0,3.428187370E0,1.894060612E0
8.081791990E1,1.010012627E-2,-1.609665871E0,2.452777386E0
8.086791990E1,-1.154221892E0,-2.684719086E0,1.455267429E0
8.091791990E1,-1.163911819E0,-1.071857452E0,1.441733360E0
8.096791990E1,-1.057022691E0,-2.291613579E0,3.459895134E0
8.101791990E1,3.138586760E0,-1.067416191E0,-1.161592007E0
8.106791990E1,-1.720565557E0,1.019430637E0,-3.501285315E0
8.111791990E1,-1.168404341E0,8.857927322E-1,-2.007918358E-1
8.116791990E1,-4.813618660E-1,1.400085926E0,8.294343948E-1
8.121791990E1,1.974529028E0,-1.036248207E0,1.151385307E0
8.126791990E1,6.920061111E-1,-4.126027107E0,1.835975647E0
8.131791990E1,-8.661599159E-1,-2.201051712E0,-1.291361809E0
8.136791990E1,1.634242535E-1,9.977369308E-1,-2.349729538E0
8.141791990E1,-4.409122467E0,5.473160744E-2,-2.033881187E0
8.146791990E1,-1.939949632E0,5.327782631E-1,-2.307348728E0
8.151791990E1,-5.286445618E-1,-1.253581047E-1,-2.993230820E-1
8.156791990E1,-1.294816136E0,1.440013528E0,6.385574341E-1
8.161791990E1,-2.139441967E0,3.975954056E-1,-5.301237106E-1
8.166791990E1,-2.887772322E0,-2.701737881E-1,-1.163496494E0
8.171791990E1,-1.869769096E0,9.839584827E-1,-3.145892143E0
8.176791990E1,-1.279435158E0,1.660953045E0,-1.298081398E0
8.181791990E1,6.196246147E-1,-3.023128510E-1,2.327362061E0
8.186791990E1,3.643081188E-1,-7.158297062E0,2.303157806E0
8.191791990E1,1.935868263E-1,-1.301953793E0,2.512404919E0
8.196791990E1,1.750023365E-1,1.184720993E0,1.035612106E0
8.201791990E1,-2.326636791E0,7.441368103E-1,2.980460644E0
8.206791990E1,7.021894455E-1,-6.725664139E-1,9.745831490E-1
8.211791990E1,1.954958439E-1,9.895467758E-2,-7.327971458E-1
8.216791990E1,-1.020122290E0,-2.720582962E0,2.354070663E0
8.221791990E1,1.652459145E0,-8.835272789E-1,-1.522445679E-2
8.226791990E1,1.678036213E0,3.025941849E-1,-2.838501930E-1
8.231791990E1,-8.044624329E-2,4.221653938E-1,-1.825842857E-1
8.236791990E1,8.388276100E-1,-1.038614750E0,-3.320136070E-1
8.241791990E1,1.398609877E0,-2.829928398E-1,3.864002228E-2
8.246791990E1,5.749242306E-1,-1.928030491E0,-4.407205582E-1
8.251791990E1,-3.721184731E-1,-2.058379650E0,-1.716691971E0
8.256791990E1,-9.003080130E-1,2.067327499E-3,-5.741634369E-1
8.261791990E1,-1.178691387E-1,-6.327438354E-1,-3.709374428E0
8.266791990E1,-1.930225253E0,-4.191068411E-1,-3.056930542E0
8.271791990E1,-6.950314045E-1,9.200678468E-1,-2.989179134E0
8.276791990E1,-1.479579210E0,1.037459493E0,-2.778798580E0
8.281791990E1,-1.417954803E0,1.659851789E0,-2.137976170E0
8.286791990E1,-2.459821224E0,-2.852511406E-1,-3.893537521E-1
8.291791990E1,-1.675359249E0,-8.518791199E-1,5.097365379E-1
8.296791990E1,1.269509792E-1,-1.460648060E0,8.962426186E-1
8.301791990E1,3.842866421E-2,-4.097644806E0,9.106497765E-1
8.306791990E1,1.207894683E0,-1.381311417E-1,4.696335793E-1
8.311791990E1,6.645129919E-1,1.859955788E-1,8.264079094E-1
8.316791990E1,4.773513079E-1,-2.013253212E0,2.955217838E0
8.321791990E1,-7.709616423E-1,-1.016798019E0,1.768193722E0
8.326791990E1,-1.073577404E-1,-6.783761978E-1,1.559112549E0
8.331791990E1,-1.972548008E0,-1.426548958E0,-2.578411102E-1
8.336791990E1,7.280802727E-2,1.381893158E-1,-6.071395874E-1
8.341791990E1,2.562099457E0,-4.154224396E-1,2.731470585E0
8.346791990E1,6.339826584E-1,-2.313113213E-1,1.310913086E0
8.351791990E1,2.993369102E-1,-5.647821426E-1,-9.862103462E-1
8.356791990E1,5.970311165E-2,-4.789037704E-1,3.171539307E-2
8.361791990E1,7.227740288E-1,-5.436005592E-1,3.890991211E-2
8.366791990E1,3.844780922E-1,-2.207357407E0,3.962793350E-1
8.371791990E1,-1.404769301E0,-1.001217842E0,-1.589147568E0
8.376791990E1,-2.594396591E0,1.343989253E0,-3.636009216E0
8.381791990E1,-1.097960114E0,-2.665859461E-1,-1.906938553E0
8.386791990E1,-1.091760278E0,1.197146893E0,-2.746577740E0
8.391791990E1,-1.854291797E0,-9.132266045E-2,-3.091739178E0
8.396791990E1,1.947066784E-1,2.625347853E0,-1.016648293E0
8.401791990E1,-9.115648270E-1,1.277946949E0,-2.181682587E-1
8.406791990E1,-2.020346642E0,-1.531361580E0,-7.657961845E-1
8.411791990E1,1.557526588E-1,-1.646053791E0,-3.058257103E-1
8.416791990E1,-1.025456190E-1,-1.509518623E0,9.201564789E-1
8.421791990E1,1.268126965E0,-3.022412777E0,1.484955311E0
8.426791990E1,-4.863150120E-1,-3.794442177E0,2.548305988E0
8.431791990E1,2.048379898E0,3.904650688E0,1.483737469E0
8.436791990E1,-1.196234226E0,-1.507958412E0,5.329084396E-2
8.441791990E1,-2.320052385E-1,6.951951981E-2,1.190826893E0
8.446791990E1,5.696092844E-1,-5.341329575E-1,1.413459778E-1
8.451791990E1,2.452443361E0,-5.289416313E0,4.853947639E0
8.456791990E1,2.610419512E0,3.754940033E-1,-1.026132107E0
8.461791990E1,-1.047558069E0,1.075215816E0,-3.291387796E0
8.466791990E1,8.302736282E-1,2.669038773E-1,2.049036026E-1
8.471791990E1,-1.567909598E0,6.216197014E-1,-2.673287392E0
8.476791990E1,2.606246471E0,-1.238508701E0,4.071835518E0
8.481791990E1,-4.808242321E-1,-6.898441792E0,-2.263917923E-1
8.486791990E1,3.944675922E-1,1.025021791E0,-2.003629208E0
8.491791990E1,-1.170240283E0,1.227657080E0,-3.837033749E0
8.496791990E1,-2.021368027E0,1.044620514E0,-4.811942577E0
8.501791990E1,-5.560100079E-1,1.508004546E0,-2.577506065E0
8.506791990E1,-7.245492935E-1,1.788904786E0,-2.072227478E0
8.511791990E1,-1.936483383E-2,1.970920324E0,-8.309559822E-1
8.516791990E1,-8.628451824E-1,-1.815304279E0,-8.562374115E-2
8.521791990E1,-5.799858570E-1,-2.295926094E0,2.210211754E-1
8.526791990E1,1.774390936E-1,-1.053880692E0,8.564038277E-1
8.531791990E1,1.966807842E-1,-2.720530987E0,-6.858778000E-2
8.536791990E1,8.231935501E-1,1.166729927E-1,1.180132389E0
8.541791990E1,1.756724954E0,-6.437683105E-2,2.364344120E0
8.546791990E1,-8.098011613E-1,-2.691100121E0,2.777977467E0
8.551791990E1,1.012355447E0,1.371984482E-1,1.764464855E0
8.556791990E1,-9.377181530E-1,-1.220369339E0,2.140512466E-1
8.561791990E1,7.205846310E-1,6.062998772E-1,-3.800520897E-1
8.566791990E1,4.707200527E-1,-1.075568199E-1,-4.855775833E-2
8.571791990E1,1.130383253E0,-1.213949203E0,1.200684071E0
8.576791990E1,1.158053637E0,-1.244004250E0,1.824310303E0
8.581791990E1,-2.723596096E-1,-2.416986465E0,1.851081848E-1
8.586791990E1,5.474410057E-1,-1.335385323E0,-1.583518982E0
8.591791990E1,-7.515740395E-2,4.154551029E-1,-2.619791031E-1
8.596791990E1,-2.131690025E0,-1.139849663E0,-2.262684822E0
8.601791990E1,-1.626490593E0,-3.221790791E-1,-1.991626740E0
8.606791990E1,1.775889397E-1,9.356235266E-1,-9.144706726E-1
8.611791990E1,-1.434400201E0,3.417042494E-1,-2.997463226E0
8.616791990E1,-2.547115564E0,1.077079296E0,-3.058864594E0
8.621791990E1,-2.558404922E0,5.895528793E-1,-1.522572994E0
8.626791990E1,-1.902473807E0,5.053820610E-1,-3.394058228E0
8.631791990E1,3.343341351E-1,2.337124348E0,3.623008728E-1
8.636791990E1,2.459939957E0,-4.357890129E0,3.749032021E0
8.641791990E1,1.445048690E0,-5.002999783E0,2.087332249E0
8.646791990E1,3.322362900E-1,2.243385315E0,2.979507446E-1
8.651791990E1,1.135768533E0,-1.936974525E0,1.943739414E0
8.656791990E1,-9.134396315E-1,1.125083447E0,2.122252464E0
8.661791990E1,-6.272644997E-1,1.690993309E-1,1.064719677E0
8.666791990E1,1.792571783E0,-1.523080826E0,3.811507225E0
8.671791990E1,3.414535046E0,3.360481262E-1,-9.356780052E-1
8.676791990E1,2.218687534E-1,-1.111161709E0,2.291541576E0
8.681791990E1,8.218348026E-1,-1.655246258E0,5.600333214E-1
8.686791990E1,5.080482960E-1,9.229025841E-1,-1.413001537E0
8.691791990E1,2.429882765E0,-1.017971039E-1,-4.279518127E-1
8.696791990E1,3.214472294E0,-1.624888420E0,3.177099228E-1
8.701791990E1,-1.034181118E0,-1.187922955E0,-1.618886948E0
8.706791990E1,-7.909436822E-1,-2.646128654E0,-3.118315697E0
8.711791990E1,-1.468414545E0,9.039161205E-1,-3.700273991E0
8.716791990E1,-2.272558928E0,1.205286980E-1,-3.015643597E0
8.721791990E1,-1.831069350E0,2.315184355E0,-4.520228386E0
8.726791990E1,-4.648468494E-1,1.677642941E0,-2.975361824E0
8.731791990E1,4.803442955E-2,5.720620155E-1,6.262016296E-1
8.736791990E1,2.083303928E-1,-1.564867020E0,2.052134991E0
8.741791990E1,-1.158573151E0,-2.480261326E0,-1.022842407E0
8.746791990E1,-3.006054163E-1,1.407868862E0,-8.812808990E-1
8.751791990E1,-2.362405062E-1,-2.545299053E0,2.305607796E0
8.756791990E1,2.240382671E0,-2.283499718E0,2.483988285E0
8.761791990E1,7.299661636E-3,-2.882707596E0,4.225364685E0
8.766791990E1,-4.678598642E-1,-1.710729599E0,1.058769703E0
8.771791990E1,-1.174108982E0,1.481466770E0,-1.664712429E0
8.776791990E1,1.286731958E-1,2.551592350E0,-1.541769981E0
8.781791990E1,1.658499241E0,-4.726901054E-1,1.557711124E0
8.786791990E1,1.973174810E0,-1.968324184E0,3.061375618E0
8.791791990E1,7.255108356E-1,-2.293360710E0,8.964366913E-1
8.796791990E1,2.215015411E0,-2.888484478E0,8.230724335E-1
8.801791990E1,1.210352898E0,-7.892923355E-1,-1.997344971E0
8.806791990E1,-9.071812630E-1,-3.416898251E-1,-2.426662445E0
8.811791990E1,-1.981890440E0,-3.018689156E-1,-4.215404034E0
8.816791990E1,-6.488888264E-1,3.681167364E-1,-1.889414787E0
8.821791990E1,-3.094203472E-1,7.922610044E-1,-2.927502155E0
8.826791990E1,-1.491757393E0,2.999517918E-1,-3.564589500E0
8.831791990E1,-1.552593708E0,1.132992268E0,-1.984760761E0
8.836791990E1,-1.622883797E0,9.415588379E-1,-2.831548691E0
8.841791990E1,-9.716262221E-1,9.944548607E-1,-4.379363060E-1
8.846791990E1,2.121464252E0,-3.155664921E0,7.996492386E-1
8.851791990E1,1.421586752E0,-4.920864582E0,1.626430035E0
8.856791990E1,7.425408363E-1,-1.507960796E0,2.221620083E0
8.861791990E1,1.923898458E0,-7.336483002E-1,1.820291042E0
8.866791990E1,-1.272714615E0,1.446609497E0,8.263254166E-1
8.871791990E1,-1.011420250E0,6.925954819E-1,1.556075096E0
8.876791990E1,8.256424665E-1,-1.629093170E0,8.849797249E-1
8.881791990E1,1.706213832E0,-3.264196396E0,2.313540459E0
8.886791990E1,9.657697678E-1,-2.086602211E0,8.124237061E-1
8.891791990E1,5.583438873E-1,3.399825096E-1,-5.058178902E-1
8.896791990E1,9.007320404E-1,5.964450836E-1,-1.376213074E0
8.901791990E1,-1.224446416E0,-6.052942276E-1,-2.474238396E0
8.906791990E1,-3.336975574E-1,-9.940714836E-1,1.314007759E0
8.911791990E1,3.160669804E-1,-1.536272287E0,8.251142502E-1
8.916791990E1,-1.557257175E-1,-1.369321108E0,-2.407765388E0
8.921791990E1,-2.957649231E0,2.533711433E0,-7.000968456E0
8.926791990E1,-1.924759626E0,3.144638538E0,-6.057021141E0
8.931791990E1,-1.198717237E0,-1.680457592E-1,-7.429447174E-1
8.936791990E1,-6.289589405E-1,-1.186351538E0,1.258497238E-1
8.941791990E1,8.676128387E-1,2.477707863E0,6.518540382E-1
8.946791990E1,-6.560002565E-1,-3.654358387E0,-5.132155418E-1
8.951791990E1,-1.486210942E0,-2.706041336E0,-8.183202744E-1
8.956791990E1,8.387874365E-1,4.990325928E0,4.887604713E-1
8.961791990E1,1.175850153E0,-5.551672935E0,2.305417061E0
8.966791990E1,2.312464237E0,-5.020006180E0,6.667369366E0
8.971791990E1,1.345005989E0,-1.241588593E-1,3.057713985E0
8.976791990E1,-9.532033205E-1,1.487760544E-1,-4.806771278E-1
8.981791990E1,-1.755161405E0,6.736054420E-1,-1.766648054E0
8.986791990E1,5.962064266E-1,-7.267856598E-2,1.826752663E0
8.991791990E1,3.572739363E0,-3.742259979E0,2.444150448E0
8.996791990E1,-4.267666340E-1,-1.091760635E0,-1.070394516E-1
9.001791990E1,9.196467400E-1,-1.881348133E0,-4.661607742E-2
9.006791990E1,-4.378390312E-2,4.773983955E-1,-2.644886494E0
9.011791990E1,-3.485543728E-1,-1.551348925E0,-3.197374344E-1
9.016791990E1,-1.682020307E0,-1.971289635E0,-2.355131626E0
9.021791990E1,-1.439975858E0,2.896709442E0,-5.440143585E0
9.026791990E1,-3.072488308E-2,1.401540875E0,-4.297060966E0
9.031791990E1,-2.518353224E0,1.097991467E-1,-3.278509140E0
9.036791990E1,2.373454571E-1,1.200485706E0,-2.170877457E-1
9.041791990E1,-2.542109489E-1,8.379592896E-1,-7.481765747E-1
9.046791990E1,-3.212265968E0,-2.133904457E0,-6.957130432E-1
9.051791990E1,9.496722221E-1,-4.778761864E-1,1.885657310E-1
9.056791990E1,2.104120255E0,-2.604284286E0,2.337286949E0
9.061791990E1,2.725355625E-1,-2.003414631E0,2.326537609E0
9.066791990E1,4.748140574E-1,-1.726341248E-1,-4.814028740E-1
9.071791990E1,5.008406639E-1,-1.646098137E0,3.319487095E0
9.076791990E1,-2.002227306E-1,-2.984685898E-1,2.164310455E0
9.081791990E1,1.712198257E-1,6.943120956E-1,-1.670603752E-1
9.086791990E1,-2.156511545E-1,3.000020981E-1,7.070527077E-1
9.091791990E1,9.024038315E-1,-6.394982338E-1,3.881099701E0
9.096791990E1,4.800034523E0,-5.354303360E0,8.132648468E-1
9.101791990E1,-1.300801158E0,5.113673210E-1,3.382849693E-1
9.106791990E1,7.779679298E-1,-2.717293262E0,-8.149414062E-1
9.111791990E1,-1.510883927E0,1.456851959E-1,-4.902753830E0
9.116791990E1,-6.066970825E-1,2.122773409E0,3.006038666E-1
9.121791990E1,-4.552195072E-1,-2.536486149E0,-1.738145828E0
9.126791990E1,-1.937728763E0,1.376081824E0,-4.033916473E0
9.131791990E1,-1.552299976E0,2.572170496E0,-6.734881401E0
9.136791990E1,-2.885613441E0,2.040333748E0,-4.907583237E0
9.141791990E1,7.513208389E-1,-6.987211704E-1,-2.524890900E-1
9.146791990E1,3.436884880E-1,-6.535654068E-1,5.684299469E-1
9.151791990E1,-2.009191751E0,-1.090203285E0,1.555786133E-1
9.156791990E1,-8.244227171E-1,-5.059498310E0,-7.907581329E-1
9.161791990E1,3.017769575E0,8.035182953E-2,1.788252831E0
9.166791990E1,4.189800024E-1,-1.024466515E0,2.864274979E-1
9.171791990E1,-1.686086535E0,2.399959564E-1,3.824477673E0
9.176791990E1,2.968175411E0,-1.767765045E0,3.969423771E0
9.181791990E1,-1.012683749E0,-2.242118835E0,1.578226089E0
9.186791990E1,6.124142408E-1,-1.066894531E0,1.221941471E0
9.191791990E1,8.832223415E-1,-3.976998329E-1,-1.542744637E-1
9.196791990E1,-6.625127792E-2,1.092690468E0,-6.407489777E-1
9.201791990E1,1.397017002E0,-2.570152283E-2,5.530753136E-1
9.206791990E1,2.017929077E0,-3.251683712E0,2.844288349E0
9.211791990E1,1.543650627E-1,-1.920853615E0,-2.417163849E-1
9.216791990E1,5.589597225E-1,-9.333965778E-1,-1.506716728E0
9.221791990E1,-7.714662552E-1,-2.451586723E-1,-3.794590950E0
9.226791990E1,-3.541312218E0,1.052556157E0,-3.859332085E0
9.231791990E1,3.709465265E-1,1.415989518E0,-3.004687309E0
9.236791990E1,-8.615769148E-1,2.301648140E0,-3.774267197E0
9.241791990E1,-5.044069290E-1,-3.479743004E-2,-2.232052803E0
9.246791990E1,-7.334947586E-1,1.163908005E0,-3.053493500E-1
9.251791990E1,3.968667984E-1,2.359180450E-1,-1.327457428E-1
9.256791990E1,-5.191923380E-1,-4.355576515E0,3.173308372E-1
9.261791990E1,2.076973915E-1,-2.165465355E0,-7.217721939E-1
9.266791990E1,2.110763073E0,1.208763599E0,1.391868591E0
9.271791990E1,2.187144518E0,-3.181581497E0,2.016685009E0
9.276791990E1,-4.202010036E-1,-5.420398712E-2,2.978505611E0
9.281791990E1,1.166507959E0,-2.443799973E-1,1.243893623E0
9.286791990E1,-9.215593338E-3,-1.889381409E0,1.344049454E0
9.291791990E1,1.105480313E0,1.651182175E-1,-1.223783493E-1
9.296791990E1,7.754585743E-1,-9.653606415E-1,6.447048187E-1
9.301791990E1,1.775954843E0,-1.420597076E0,1.279382706E-1
9.306791990E1,1.015240908E0,5.922827721E-1,-1.928553581E-1
9.311791990E1,1.868663788E0,-1.075353146E0,9.425992966E-1
9.316791990E1,-2.315446138E-1,-3.394705296E0,-5.294351578E-1
9.321791990E1,-3.191876411E-1,-1.715757370E0,8.686637878E-1
9.326791990E1,-2.987889051E-1,2.903927565E-1,-3.114593029E0
9.331791990E1,-2.476324558E0,1.723189354E0,-6.063022137E0
9.336791990E1,-1.118090630E0,2.217026234E0,-5.667376995E0
9.341791990E1,-3.969268799E-1,4.159903526E-1,-1.733088493E0
9.346791990E1,7.220056057E-1,-1.579985619E-1,8.867845535E-1
9.351791990E1,-5.647897720E-1,6.967244148E-1,-7.112922668E-1
9.356791990E1,-1.366803288E0,-1.361723900E0,-2.168099880E0
9.361791990E1,1.210786104E0,1.009167671E0,-2.088117123E0
9.366791990E1,-1.181981564E0,-1.343765259E0,6.597828865E-1
9.371791990E1,1.789272904E0,-8.742866516E0,3.787263870E0
9.376791990E1,1.371350765E0,1.519123077E0,3.878640652E0
9.381791990E1,-4.919548035E-1,-1.923961639E0,2.213936329E0
9.386791990E1,-1.235585332E0,1.766990662E0,-1.922178268E-2
9.391791990E1,-8.768820763E-2,1.945935726E0,1.121035099E0
9.396791990E1,2.074860811E0,-3.388380527E0,1.932109356E0
9.401791990E1,4.712692499E-1,-1.580740452E0,5.689301491E-1
9.406791990E1,1.661910772E0,-1.435342789E0,2.292050838E0
9.411791990E1,1.661990881E0,-1.461567879E-1,-1.266734123E0
9.416791990E1,-8.449116945E-1,-1.653800011E-1,-1.726680756E0
9.421791990E1,-1.177414179E0,-2.635343552E0,-1.684932709E-1
9.426791990E1,-1.094159603E0,-6.232178211E-1,1.118519783E0
9.431791990E1,5.764479637E-1,-1.114031315E0,-2.231414795E0
9.436791990E1,-2.538970232E0,2.546849251E0,-6.371730804E0
9.441791990E1,-9.956686497E-1,3.514291286E0,-3.446244240E0
9.446791990E1,2.627172470E-1,3.378150463E-1,-1.442763329E0
9.451791990E1,-1.281057835E0,-1.164398670E0,4.363317490E-1
9.456791990E1,-3.039994240E-1,2.198904991E0,-6.306543350E-1
9.461791990E1,-6.992751360E-1,6.763448715E-1,-1.651507378E0
9.466791990E1,1.163840294E-3,-3.335406780E0,-3.000793457E-1
9.471791990E1,3.599189520E-1,-2.650454521E0,2.079095840E-1
9.476791990E1,1.820327401E0,-1.054735184E-1,3.539154053E0
9.481791990E1,2.173817635E0,-3.887563705E0,3.822290897E0
9.486791990E1,-3.437087536E-1,2.919788361E-1,1.887824535E0
9.491791990E1,-2.225655317E-1,1.648788452E0,-5.627846718E-1
9.496791990E1,2.358363867E-1,-1.596487045E0,1.127435207E0
9.501791990E1,1.536713719E0,-6.278071404E-1,1.543712616E-1
9.506791990E1,1.779862046E0,-4.845571518E-1,4.389243126E-1
9.511791990E1,1.826218843E0,-7.302889824E-1,6.939167976E-1
9.516791990E1,1.535887480E0,-1.204876423E0,7.767124176E-1
9.521791990E1,-8.197513819E-1,-2.839704990E0,-9.664125443E-1
9.526791990E1,-2.570540905E-1,-1.615701437E0,4.956922531E-1
9.531791990E1,-1.309274435E-1,-1.827243805E0,-1.896561146E0
9.536791990E1,-2.508866549E0,2.124500513E0,-5.140867710E0
9.541791990E1,-1.346511364E0,1.967423439E0,-3.742130280E0
9.546791990E1,-1.316937923E0,1.838894486E0,-4.004014015E0
9.551791990E1,-5.851626396E-1,7.865943909E-1,6.683015823E-1
9.556791990E1,-7.947722673E-1,-5.825290680E-1,-1.411223412E0
9.561791990E1,-1.929427147E0,-2.149486542E-2,-2.098195076E0
9.566791990E1,-1.840195656E-1,1.518296719E0,-4.728741646E-1
9.571791990E1,1.090287089E0,-4.066063881E0,4.229054451E-1
9.576791990E1,8.154233694E-1,-1.071418285E0,3.248255253E0
9.581791990E1,3.103131294E0,-3.178961754E0,2.852299690E0
9.586791990E1,-1.561259389E0,-1.387747765E0,3.133994102E0
9.591791990E1,7.203624249E-1,1.493000984E0,1.281900406E0
9.596791990E1,-8.250297904E-1,1.916790009E-2,1.597499847E-2
9.601791990E1,1.042540073E-1,-2.499718666E-1,-2.969303131E-1
9.606791990E1,1.659777164E0,3.730049133E-1,1.418996334E0
9.611791990E1,1.919206619E0,-1.220317364E0,1.471999168E0
9.616791990E1,8.112463951E-1,-1.102486134E0,-8.187665939E-1
9.621791990E1,1.835243702E-1,-3.329329491E0,1.663506985E0
9.626791990E1,5.797176361E-1,-2.033728600E0,1.173557281E0
9.631791990E1,7.544665337E-1,-2.001988649E0,-3.591271400E0
9.636791990E1,-3.026051044E0,7.041841745E-1,-4.467262745E0
9.641791990E1,-3.092824221E-1,1.784263253E0,-4.393539429E0
9.646791990E1,-8.269925117E-1,1.696610570E0,-2.810016632E0
9.651791990E1,-1.358698368E0,5.954931974E-1,-2.494934082E0
9.656791990E1,-7.170376778E-1,-4.690933228E-1,-1.246206284E0
9.661791990E1,-1.261234283E-3,2.586827755E0,-8.677644730E-1
9.666791990E1,-1.363768816E0,-4.554939270E-1,-1.944577217E0
9.671791990E1,-1.401195526E0,-3.835111618E0,-4.454236031E-1
9.676791990E1,3.193200111E0,3.825821877E-1,2.362938404E0
9.681791990E1,5.800727606E-1,-5.036053181E0,2.590557575E0
9.686791990E1,1.185665250E0,-5.121116638E-1,2.343570232E0
9.691791990E1,8.396325111E-1,8.366756439E-1,2.254791737E0
9.696791990E1,-6.890890002E-1,-1.253310204E0,2.445088863E0
9.701791990E1,-2.068617344E-1,-5.410242081E-1,-5.101170540E-1
9.706791990E1,8.576486111E-1,-1.128994942E0,7.027187347E-1
9.711791990E1,2.146280050E0,5.054807663E-2,4.335837364E-1
9.716791990E1,4.422824383E-1,-2.942004204E-1,8.188028336E-1
9.721791990E1,7.087023258E-1,-1.046280861E0,1.453542709E-1
9.726791990E1,1.337071657E0,-1.528168678E0,1.177775383E0
9.731791990E1,-3.467397690E-1,-4.026402473E0,4.386444092E-1
9.736791990E1,4.649167061E-1,1.774852276E-1,-2.635085106E0
9.741791990E1,-1.743235588E0,1.777531743E0,-5.307228565E0
9.746791990E1,-1.909503341E0,6.572661996E-1,-5.522990227E0
9.751791990E1,-2.523386478E-1,2.045340061E0,-5.518964291E0
9.756791990E1,-3.171827793E-1,-1.790542603E-1,1.046233177E0
9.761791990E1,5.498077869E-1,2.542916298E0,-1.829890251E0
9.766791990E1,-2.790990591E0,1.091528177E0,-3.294806004E0
9.771791990E1,-1.966718316E0,-3.110280514E0,-5.610017776E-1
9.776791990E1,7.521748543E-1,-3.326350689E0,7.864422798E-1
9.781791990E1,2.809850216E0,1.673851490E0,3.289887905E0
9.786791990E1,7.774007320E-1,-6.458657265E0,1.744358540E0
9.791791990E1,-4.292583466E-2,7.913713455E-1,1.994199276E0
9.796791990E1,1.566486001E0,-2.337731361E0,3.443387508E0
9.801791990E1,-1.209304810E0,1.587677002E-1,1.090991020E0
9.806791990E1,-2.047182083E0,1.435688019E0,-1.756071568E0
9.811791990E1,8.444108963E-1,-3.039507866E-1,1.512784481E0
9.816791990E1,5.464387894E0,-3.311368465E0,3.796906471E0
9.821791990E1,-4.162588120E-1,-2.183790207E-1,1.523434639E0
9.826791990E1,-4.904372692E-1,-3.604380608E0,-1.729079247E0
9.831791990E1,-6.333184242E-1,-2.601680756E-1,-2.458748817E0
9.836791990E1,6.056149006E-1,1.976331472E0,2.025794983E-1
9.841791990E1,-9.891402721E-1,-4.571485996E0,-4.324407578E-1
9.846791990E1,-2.211384773E0,2.298003197E0,-3.055163383E0
9.851791990E1,-1.345905304E0,1.769487143E0,-2.524109840E0
9.856791990E1,-1.795104027E0,1.266612768E0,-5.845254421E0
9.861791990E1,-1.294458866E0,8.040776253E-1,-2.879881382E0
9.866791990E1,1.157810450E0,2.440017462E0,8.920001984E-2
9.871791990E1,-8.691573143E-2,-6.525068283E-1,-2.318019867E-1
9.876791990E1,-1.275647998E0,-3.764484882E0,-1.709861755E-1
9.881791990E1,1.242926002E0,-4.435138702E-1,-9.364423752E-1
9.886791990E1,1.235073090E0,-1.177179813E0,9.444518089E-1
9.891791990E1,1.538405418E0,-4.287206650E0,3.587111473E0
9.896791990E1,8.239157796E-1,1.756334305E-1,2.439968109E0
9.901791990E1,5.254852772E-1,6.441335678E-1,1.350434303E0
9.906791990E1,7.080742121E-1,2.499432564E-1,8.296904564E-1
9.911791990E1,1.090646982E-1,-1.930891991E0,-7.113361359E-2
9.916791990E1,1.828798771E0,-1.776046753E0,2.727089882E0
9.921791990E1,2.890092373E0,-2.251822948E0,7.008142471E-1
9.926791990E1,8.955645561E-1,1.906619072E-1,-9.395217896E-1
9.931791990E1,-6.487069130E-1,-6.987137794E-1,-1.695143700E0
9.936791990E1,2.746746540E-1,-1.255868435E0,-4.075431824E-1
9.941791990E1,-4.566965103E-1,-1.895368814E0,1.042819023E0
9.946791990E1,7.067072392E-2,-1.871550083E-1,-1.295787811E0
9.951791990E1,-1.875174999E0,1.613656998E0,-5.220269203E0
9.956791990E1,-8.635651469E-1,1.920607328E0,-3.356710911E0
9.961791990E1,-2.559462786E0,3.451519012E-1,-4.643556118E0
9.966791990E1,-3.222482204E-1,2.776421070E0,-1.544161797E0
9.971791990E1,9.322452545E-1,1.388908863E0,-4.607791901E-1
9.976791990E1,-1.896638393E0,-3.112088680E0,-6.908216476E-1
9.981791990E1,-2.143502235E-2,-1.389718533E0,1.511114597E0
9.986791990E1,1.004882574E0,-3.787821293E0,1.910280228E0
9.991791990E1,1.004842043E0,-1.871459007E0,1.509673119E0
9.996791990E1,1.189872742E0,4.202044487E0,5.412797928E-1
1.000179199E2,3.857790232E-1,-2.227508545E0,1.776020527E0
1.000679199E2,1.569840908E-1,-1.216832161E0,3.599006176E0
1.001179199E2,2.027401924E0,-1.971416473E-1,2.568943024E0
1.001679199E2,-6.550019979E-1,-2.087584019E0,7.117066383E-1
1.002179199E2,2.682405710E-1,1.771287918E-1,-3.788642883E-1
1.002679199E2,3.291797638E0,-5.179882050E-1,8.658556938E-1
1.003179199E2,1.617340326E0,-1.074793339E0,1.738700867E-1
1.003679199E2,-8.757911921E-1,-1.725076199E0,9.633731842E-2
1.004179199E2,5.692451000E-1,-2.137498140E0,-9.838328362E-1
1.004679199E2,3.786182404E-1,-1.392633200E0,-3.558893204E-1
1.005179199E2,-5.230009556E-1,2.533900738E-1,-5.004743576E0
1.005679199E2,-1.680923581E0,2.201126099E0,-5.740186214E0
1.006179199E2,-5.709264278E-1,2.006393433E0,-4.894405365E0
1.006679199E2,1.923301220E-1,2.479988575E0,-1.138740540E0
1.007179199E2,3.771533966E-1,-1.874050140E0,-4.376668930E-1
1.007679199E2,-2.042325735E0,-1.036489010E0,-1.134022713E0
1.008179199E2,-7.973282337E-1,2.198628902E0,-1.631083488E-1
1.008679199E2,5.969117880E-1,-2.100790977E0,-1.302777290E0
1.009179199E2,8.609507084E-1,-1.437818050E0,6.120934486E-1
1.009679199E2,2.672138214E-1,-7.672898293E0,4.323894501E0
1.010179199E2,5.722617626E0,2.158566475E0,3.316897392E0
1.010679199E2,-3.635904789E0,5.368518829E-1,1.823307037E0
1.011179199E2,4.911242723E-1,-2.900705338E-1,2.030158043E-1
1.011679199E2,-9.073873758E-1,-4.828362465E-1,1.426833153E0
1.012179199E2,4.728364944E0,-4.260078430E0,4.226923943E0
1.012679199E2,-2.253204346E0,1.247449398E0,-1.737082481E0
1.013179199E2,1.860208511E0,1.259678364E0,-4.052634239E-1
1.013679199E2,7.219800949E-1,-2.306155682E0,5.512742996E-1
1.014179199E2,1.170729160E0,-1.958486557E0,7.619953156E-1
1.014679199E2,-1.709515452E0,-3.117808104E0,2.865447998E-1
1.015179199E2,3.916029930E-1,4.212236404E-2,-1.912980556E0
1.015679199E2,-3.223200321E0,1.939757109E0,-6.345654964E0
1.016179199E2,-5.168746710E-1,1.312458754E0,-3.801085472E0
1.016679199E2,-1.273577929E0,1.672888279E0,-3.011231422E0
1.017179199E2,1.570830345E-1,8.660717010E-1,-1.357250214E-1
1.017679199E2,-3.787229061E-1,1.385488510E0,-2.793269157E0
