Unnamed: 0,acc_Acceleration x (m/s^2),acc_Acceleration y (m/s^2),acc_Acceleration z (m/s^2),gyr_Gyroscope x (rad/s),gyr_Gyroscope y (rad/s),gyr_Gyroscope z (rad/s),mag_Magnetic field x (µT),mag_Magnetic field y (µT),mag_Magnetic field z (µT),lin_acc_Linear Acceleration x (m/s^2),lin_acc_Linear Acceleration y (m/s^2),lin_acc_Linear Acceleration z (m/s^2),gyr_magnitude,filtered_gyr_magnitude
1970-01-01 00:00:00.000,-2.012962103,3.975973845,8.375178337000001,-0.003665083554,-0.5951179266,0.1073564067,,,,,,,0.6047347992778954,
1970-01-01 00:00:00.100,-1.457378566,3.879064679,8.795268059,-0.1301104687499999,-0.904435724,0.26121355595,14.62169981,-40.223400115,-38.643499375000005,-0.1857776046,0.18661534785,0.1087932586599999,0.9503500590507651,
1970-01-01 00:00:00.200,-0.2986541763,4.0202412605,9.8068342195,-0.2973298951999999,-0.67804044485,0.26907821,12.511099815,-39.826898575,-39.497499465,0.074469029915,0.2394802570499999,0.5727853774499999,0.7877480526975824,
1970-01-01 00:00:00.300,-0.33828529715,3.731756449,9.367451668,-0.0560452360649998,-0.135989870885,0.028786178655,11.26060009,-39.46699905,-40.05869865,-0.0105808377,-0.0008605718599999,0.06711673738,0.14987647430620357,
1970-01-01 00:00:00.400,-0.4507479667499999,3.1812577245,8.8933739665,-0.0741415835335,-0.20196137945,0.20112146435,10.443199635,-39.241300585,-40.455198284999994,-0.1763723493,-0.6528623104,0.02005910875,0.2945084321721369,
1970-01-01 00:00:00.500,1.2287144511,1.3184452655,8.843274116500002,-0.2915268615,-1.689527154,0.56190313395,8.137399912,-38.808200835,-41.30309868,-0.128869921,-1.5631160734999998,-0.1944131851,1.8042242230449663,
1970-01-01 00:00:00.600,3.432504058,0.5572285501,7.9214394095,-1.557202399,-2.6616142985,0.1860793531199999,4.1296998265,-37.50889969,-42.13879967,0.4589328766,-1.31632661815,-0.853905201,3.0892872173186747,
1970-01-01 00:00:00.700,6.9840509895,0.01854437588,8.534151792500001,-2.4034548995,-2.164537251,0.04955500365,-2.5924999715999997,-33.909898755,-43.065998075,1.843212366,0.29320716865,0.2594990730000001,3.2348528039593925,
1970-01-01 00:00:00.800,7.847261667,-0.18738793025,7.5001528265,-2.112080753,-1.6930395365000002,0.3274141326599999,-11.486299516,-27.327999115,-43.57229996,0.232219696,1.69138813,1.27870416645,2.7266220848534695,
1970-01-01 00:00:00.900,9.5901341435,-0.870837896845,6.4885873795,-2.217375517,-1.9059197305,-0.08254073935,-21.44759941,-17.97669935,-42.699998855,1.688591242,1.83704412,0.99647092795,2.9250807127586502,
1970-01-01 00:00:01.000,8.838338852,-1.21331065875,4.217648983,-0.4182012975,-1.9756327865,-0.2121167070999999,-31.45769882,-7.759199856,-39.16199875,-0.3133840561,2.2340074185,1.65241134145,2.0305198176219275,
1970-01-01 00:00:01.100,7.7047395705,-2.132603168,2.895016313,-0.874427855,-0.2309002727,0.2274642512199999,-39.77809906,0.4330999255,-33.507299425,-1.30284047115,0.91745614985,1.0956686138,0.9325658127531326,
1970-01-01 00:00:01.200,9.5937235365,-4.319493532,2.2941187025,-0.33924929424,1.101739347,1.07440397145,-45.64019966,6.8014996055,-28.212498665,0.00583314895,-0.5597151518,-0.47638845445,1.5758374174507523,
1970-01-01 00:00:01.300,7.832755089,-6.039633989,3.679114461,0.3820849508,0.65093410015,1.774816692,-48.275398255,11.669299605,-25.26009941,-0.0439696309999998,-1.1452333925,0.0031840801,1.9286467801460565,
1970-01-01 00:00:01.400,7.431957483,-5.550002575,2.0868403915,-0.2577011883,-0.6420004666000001,1.4315969346500002,-47.57390022,16.341899395,-25.162499425,-1.6644315719999998,1.3559081553,-3.687107086,1.5899824794208037,
1970-01-01 00:00:01.500,6.387939214499999,-5.140680313000001,3.3750762940000003,0.2678565308499999,-0.9571213125,1.706020057,-45.07900047,21.93559933,-26.675299645000003,-0.4208207129999999,2.178544283,0.8034684656500001,1.9744196015150888,
1970-01-01 00:00:01.600,4.8665525915,-9.3004529465,2.7297619585,0.5845044702,-0.0551289617999999,1.601717889,-41.80939865,27.413398745,-27.98069954,0.497040510095,-0.95377922065,3.91350352785,1.7059263976079226,
1970-01-01 00:00:01.700,5.624329567,-10.1575322155,2.772982359,0.13240114368,-0.4270585773000001,0.1963110379949999,-38.576400755,32.110399245,-28.52970028,1.17779064175,-3.1293759347499996,-0.8165732025999999,0.48831046981602433,
1970-01-01 00:00:01.800,5.182554722,-6.763911247499999,2.708376169,0.0378725305199999,-0.303667441,0.5727456659,-36.41699982,35.331199645,-28.261300085,-0.2567946910999999,0.5334625246,-0.96660989535,0.649373421922018,
1970-01-01 00:00:01.900,3.5808589455,-8.445766449,2.4065814015000004,0.12873606015,-0.0834570094035,0.37750361115,-34.403999330000005,37.52719879,-28.07829952,-0.44339692595,0.2336697578605,0.13129532338,0.4074886771835638,
1970-01-01 00:00:02.000,4.1051864625,-5.493920803,3.0016463995,0.47829341145,0.0923906490449999,0.103004116585,-32.98880005,38.667900085,-28.16979885,0.254088997835,2.8689596651,0.57297360922,0.49790608301254125,
1970-01-01 00:00:02.100,3.0732816455,-7.97767067,3.7903807165,0.4465293548949999,0.805325806,0.3930038586,-31.860300065,38.7166996,-28.822499275,-0.1684230565999999,-0.9103732108,0.4310933354,1.0011943624826216,
1970-01-01 00:00:02.200,2.7693932055,-10.05464077,4.0585263970000005,-0.7695148289,0.7257628961,2.277009547,-29.39589882,38.332399370000005,-30.615899085,-0.06570410725,-0.1202740667,-0.6030743122,2.510708531546743,
1970-01-01 00:00:02.300,0.7416255178,-8.306982994,2.5310082584,0.15683503727,0.4638621211,0.18172706478,-24.82089901,38.38119888,-32.47029877,0.5805019140000003,-1.76381540295,-0.2427563664999998,0.5222930426306938,
1970-01-01 00:00:02.400,0.2506481707,-8.613413810499999,3.2935707565000003,0.076661333445,0.3386384584,0.011224318295,-19.70909977,38.35680008,-34.336900709999995,0.0435245186,0.66308927535,-0.3299342394,0.34738876043171213,
1970-01-01 00:00:02.500,-0.0761216692849999,-9.733853341,3.615555048,0.18249062075,0.1786728166199999,0.1579040177,-15.042600155,38.655700685,-35.373899460000004,-0.28374605625,-0.34331035614,0.0503602028,0.30026734898494434,
1970-01-01 00:00:02.600,-0.08554340713,-9.089735031,4.235744715,0.0907871723399999,0.050929389895,0.025808297095,-11.25449991,39.02779961,-35.764299394999995,-0.026548028,0.2542085647615,0.27988827228,0.10724822430004871,
1970-01-01 00:00:02.700,1.0899307135000005,-5.6626146435,3.352344513,-0.21524730882,0.325581587855,-0.18707197905,-9.5647997855,38.48489952,-36.270599364999995,-0.67959651345,-1.0898222924,-0.4379352331499999,0.4328171665381575,
1970-01-01 00:00:02.800,0.16331015525,-8.4266240605,4.653441905999999,0.3807105570999999,-0.1836359603099999,-1.461604774,-8.7046999935,38.08229828,-36.636600495,0.0492988675999999,3.848805666,-0.0902323723,1.5214963718609253,
1970-01-01 00:00:02.900,1.482503176,-9.7888874995,4.6331026555,0.2706053257,-0.4534013867,0.5195255876,-9.192699909,37.435699465,-36.892799375,0.50373840332,-1.8909931182,1.12205112,0.7407475250919245,
1970-01-01 00:00:03.000,0.48768717035,-7.8293156625,4.3362431525,0.4287384152,-0.0240521114349999,0.4179722369,-10.0222997655,36.600000385,-37.29540062,-0.52084183692,1.488194704,-0.145969390865,0.5992461293591131,
1970-01-01 00:00:03.100,1.0060323922,-8.6516985895,4.33863616,0.2060845940999999,-0.03191676922,0.30328565835,-10.78480005,35.501998900000004,-37.8382988,0.42229571945,0.0500602722,-0.177160978315,0.368064845704663,
1970-01-01 00:00:03.200,-0.18260228635,-7.847261906,3.7028930185,-0.35108447075,-0.01664558798,0.46057881415,-11.26060009,34.21489906,-38.35679817,-0.625832975115,0.8755009171999999,-0.6908617019500001,0.5793705422653346,
1970-01-01 00:00:03.300,1.0682457685,-8.748608589,3.726970911,-0.8121214508999999,-0.149657581,0.27625567465,-10.58349991,33.861099245,-38.31410027,0.8493138103,0.3497743607,0.04557144645,0.8707788699428916,
1970-01-01 00:00:03.400,-0.3693919927,-10.4330058075,3.2923742535,-0.90329039095,-0.14813045787,-0.191500615315,-9.949099542,34.64800072,-37.075798035,-0.3397651873599999,-0.5386400223000001,-0.29085946085,0.9351730581006936,
1970-01-01 00:00:03.500,-0.0855433941,-9.6931748415,3.325873971,-0.1037676855849999,-0.05566345716,-0.4148416519,-10.0100994105,36.31329918,-34.99569893,-0.4990036187999999,-0.41278123865,1.0339419844,0.4312305058617622,
1970-01-01 00:00:03.600,1.5889837446,-8.985647199499999,2.199602246,-0.0745997168,0.0109188966499999,-0.1763057858,-10.74819994,38.01519966,-32.708198545,0.4697984606499999,0.21683216105,-0.3026777506,0.1917500199667501,
1970-01-01 00:00:03.700,1.7973088621,-8.79287529,2.5812574625,-0.29061058165,0.203335776935,-0.0208451622199999,-11.84619999,39.375499725,-30.823299405,1.17219969645,0.7534413337500001,0.23760032653,0.35529490446203915,
1970-01-01 00:00:03.800,1.3520943525,-9.3100242615,2.4053850170000004,-0.20402298125,-0.209444254615,0.0811663307249999,-12.86490011,40.198999404999995,-29.78019905,0.72072041035,0.29530143739,0.32013058655,0.3034472703992093,
1970-01-01 00:00:03.900,1.830958009,-9.5626168265,2.1145074365000003,-0.28816719355,-0.0087045732635,0.0593285392949999,-13.53589964,40.668699265,-28.981099129999997,0.94198921305,0.1500883101499999,0.0681597590299999,0.2943398997911448,
1970-01-01 00:00:04.000,1.4573785065,-9.4178504945,2.234148562,-0.1469087675499999,0.1386623289349999,0.08406785503,-13.65789986,41.284797665,-28.078299525,0.92211636915,0.14537763595,0.4911222458149999,0.21880775054390353,
1970-01-01 00:00:04.100,0.38838503512,-9.4334044455,2.0439192055,-0.039399648085,-0.1732515618299999,0.0569615066049999,-13.46879959,41.852100375,-27.163298605,-0.3953869939,0.27178382871,0.6528792977,0.18658255325851764,
1970-01-01 00:00:04.200,0.73310105525,-9.624979496,1.8224335315,-0.2076880634,-0.2604499981,0.0665823496099999,-13.46269989,42.205898285,-26.14459896,0.1176995634999999,0.04893064499,0.21747857335,0.33970831969311654,
1970-01-01 00:00:04.300,0.30329026285,-9.271739006,1.3184452654,-0.4701996892499999,-0.0543654067449999,0.1298050470599999,-13.45050001,42.63899803,-25.180799479999997,-0.13120862845,0.4228878021499999,0.0014414786999999,0.49080820639389733,
1970-01-01 00:00:04.400,0.6756732911000001,-10.14437151,0.3967598974499999,-0.5205182284000001,-0.4411844462,0.29198499025,-13.462699415,43.206298825000005,-23.918099405,0.21579392255,-0.0087585449199999,0.31485083695,0.7421847318537131,
1970-01-01 00:00:04.500,1.1054840685,-10.122836113,0.9521938561,-0.7703547478,-0.2489966154,0.4349996149999999,-13.627399925,43.99319839499999,-21.990499495,0.9262958766,-0.0511164665,0.95787054305,0.9190595285338188,
1970-01-01 00:00:04.600,1.840529263,-9.232257366,1.0588240177,-0.65185037255,0.19913620175,0.42255358395,-13.35289955,45.14609909,-19.24549961,1.8915094884,0.6845049858000001,1.687095046,0.8019449272549707,
1970-01-01 00:00:04.700,-1.12941224875,-10.7705431,-0.5356931685999999,0.2522799223500001,-0.0558925122,0.07185090335,-12.395199775,46.384399415,-16.17110014,-0.3661057650999999,-1.1165628434,0.2973932623999999,0.26820082858403005,
1970-01-01 00:00:04.800,1.3184452951,-10.561021805,2.8458138705,1.973036587,-1.0931875406,-0.9052756429,-11.632699965,47.17740059,-14.39599991,1.306454718,-0.7019987107,2.5775790215,2.4305259435339694,
1970-01-01 00:00:04.900,2.9093732240000003,-11.543724061,4.93355155,2.6513824465,-0.459662576204,-1.8493400815,-12.370800015,46.591798780000005,-15.48180008,1.82545340047,-1.5959863663500002,2.1441255805,3.2651458311403565,
1970-01-01 00:00:05.000,1.02397853145,-9.1138126865,4.3852961065,2.868157029,-0.5609868616,-0.9110023081,-15.13409948,43.32829857,-20.075099945,-1.910719991,-1.6929306984000003,-0.147770404805,3.061201758664961,
1970-01-01 00:00:05.100,3.604936719,-3.895664691999999,5.005336285,1.26453018165,-0.0070247427,-0.42682951685,-19.611499785,37.26490020999999,-26.992499350000003,0.22556900975,2.538320303,-1.5332722665,1.3346420358164162,
1970-01-01 00:00:05.200,3.3306594490000005,-3.2504999640000003,5.808576822,0.168517481545,0.0642916709399999,-0.3439070061,-24.18039894,29.98149967,-33.75740051,-0.2737722395,3.055754781,-1.277960777,0.38833437831743933,
1970-01-01 00:00:05.300,4.445266485,-5.945117235,8.220691681,-0.09735377878,0.17882554232,0.00198525359175,-27.36460018,23.51550007,-38.484897615,0.6884748937699999,-0.1763288974899999,1.4731326105,0.2036179610461976,
1970-01-01 00:00:05.400,3.6324543955,-3.9976589675,7.237989187,-0.1235438548,0.4158342778999999,0.39972316475,-28.62729931,19.53219986,-40.83339882,-0.0306500196,1.882205009,0.10907173157,0.5898812076793204,
1970-01-01 00:00:05.500,4.139882326,-5.726174116,7.923832178,0.2115822210649999,0.4098785072499999,0.4208737612,-28.11489868,18.39760017,-41.870399475,1.3577166795,0.5244696139,1.11735391595,0.6244214521001992,
1970-01-01 00:00:05.600,2.977568626,-5.704489231,8.5066342355,0.8375479579,0.35887275635,0.12896512445,-26.76069927,18.562298775,-42.66950035,0.2291311026,-0.118684530265,0.951328993,0.9202761761325297,
1970-01-01 00:00:05.700,2.8603203295,-5.103591680499999,8.786893368000001,1.066844761,0.3729222566,-0.056121589635,-24.77820015,18.07429981,-44.017599105,0.8249801397000001,0.41479849815,0.54145932195,1.131538062269203,
1970-01-01 00:00:05.800,2.025973022,-4.9802117345,8.2757265565,1.00904330605,0.0112243187599999,-0.3666610718,-22.594399455,16.042999265,-45.73169899,-0.022119104875,-1.1357305050000002,-0.40500140215,1.073654842297777,
1970-01-01 00:00:05.900,2.8519455195,-4.3663030865,8.7019484045,1.01851147395,0.3946073278999999,-0.67910945415,-20.953499795,12.096299645,-47.458000185,0.87279069445,-1.34045684345,0.3680224418499999,1.2861843633461303,
1970-01-01 00:00:06.000,0.6050850302,-1.3722837863,6.499355078000001,0.05993938815,0.0600157417449999,-0.51341712475,-19.519999505,6.752699614000001,-49.20869827,-1.3237914445,0.93228197105,-3.0756216050000003,0.5203765593256061,
1970-01-01 00:00:06.100,1.13659071935,-1.34730869515,8.579764843,-0.6754443645,0.08506047726,-0.3457395434,-18.434199335,1.897099912,-50.36769867,-0.6901417970999999,0.8312644959199998,-0.892162323105,0.7635418824117957,
1970-01-01 00:00:06.200,2.40897417065,-3.1224838495,11.25882864,-1.5780475740000002,-0.4666109681,0.3547495529,-17.933999065000002,-0.329400003,-50.86179924,-0.3868561984999999,0.76072519995,1.7726488109999998,1.6833915725823434,
1970-01-01 00:00:06.300,2.1252751350000003,-3.686292887000001,7.11460948,-1.23803469525,0.1203369088499999,0.6084038615,-17.76929951,1.1101999579,-50.71539879,0.8540017605440001,0.940250635,-0.7113757131,1.384689906427589,
1970-01-01 00:00:06.400,2.0080268385,-7.671239614500001,9.445218562,-1.3472236097,-0.0972010716649999,0.61504682895,-17.84249973,5.929199934,-49.666198730000005,-0.1601831913,-2.001061201,1.8229582311,1.484163772859105,
1970-01-01 00:00:06.500,1.9852949975,-4.1793637275,5.2676496505,-1.3153831955,0.2556395829,0.47974416615,-17.744899750000002,12.694099425,-47.970399855,0.70396864415,2.954086542,-1.5025079251000002,1.423284585845022,
1970-01-01 00:00:06.600,1.4490036365,-8.195567131,6.224030733,-1.2203964595,0.3019112572,0.23120569065,-13.169899461,19.580999375,-45.823198315,0.69365128875,-0.2919275760499999,0.6522159574499999,1.2782699233624968,
1970-01-01 00:00:06.700,0.91271226462,-10.910523415,5.8947186469999995,-0.92917504905,0.00526855885,-0.1200314909399999,-8.094699621,25.443099975000003,-43.31609917,0.05322939155,-2.4430003165,0.84221315365,0.9369106618598729,
1970-01-01 00:00:06.800,2.3503500820000003,-9.0370926855,6.154489279,-0.37910706924,0.50608695295,-0.4717268049499999,-7.1247997285,30.219399455,-40.479599,1.03756213175,-0.392519474,2.438906193,0.7889057943774357,
1970-01-01 00:00:06.900,-0.1479063629999999,-8.169246197,2.54192543,0.88175800425,-0.3422271758499999,-0.66574713585,-6.807599783000001,33.17789841,-38.283599855,-1.38669610045,-0.0169110297999999,-2.3246985675,1.156648549405431,
1970-01-01 00:00:07.000,2.349153638,-8.253144264,5.406433344,0.8061656654,-0.1193442791499999,-0.1603474058,-7.5273997785,33.81229973,-37.795598985,0.36753964435,-0.17224478725,-0.5614204405500001,0.830576563347683,
1970-01-01 00:00:07.100,3.1775189040000003,-8.530711651,7.405487061,0.88320878145,-0.4432460517,0.052227439385,-8.851099491,32.40320015,-38.393400195,0.8966068030999998,-1.314334154,1.4773402215,0.989571886930276,
1970-01-01 00:00:07.200,2.965754092,-6.465855360000001,6.2024953365,1.05981999625,0.0700183659499999,0.04306472835,-10.400499825,29.35929966,-40.052598955,0.5511400697000001,0.14085030555,-0.3333888054,1.0630030888240718,
1970-01-01 00:00:07.300,3.723381519,-5.110769987,7.6341512205,1.2794195414999998,0.2566322087999999,-0.31206659225,-11.56559992,25.064899445,-41.9314003,1.73238945,0.81063866605,0.02889990805,1.3417004180383056,
1970-01-01 00:00:07.400,2.374278188,-4.755286455,8.1679003235,0.9820896683,0.43393062055,-0.6510104537000001,-11.84009981,20.361800195,-43.86510086,0.220613122,0.1894938945499999,-0.30817651725,1.2556315187423388,
1970-01-01 00:00:07.500,2.222334027,-6.021687746,9.284899712,1.0815814735,0.3906368315,-0.5593070388,-11.425299645,15.274400235,-46.0732975,0.18580412867,-2.1447110175,0.13503313066,1.2787650220404119,
1970-01-01 00:00:07.600,0.2029412688,-2.9502007365000003,6.535097837,1.1033428609,-0.0025197453999999,-0.48402009905,-10.30899954,9.4122996335,-48.006998065,-1.52818906315,-0.4688933490999999,-2.1961803435,1.2048432570671794,
1970-01-01 00:00:07.700,2.580061078,-1.611865222,9.495617391,0.190660701115,-0.24456796795,-0.1628671511999999,-9.31469965,3.5501998665,-49.20870018,-0.24449288845,0.6284352541,-0.7986297606949999,0.3502723266786276,
1970-01-01 00:00:07.800,1.62726894045,-2.1852452755,7.883153914999999,-0.8617527781000001,0.2309766263,0.031611344775,-8.893799781999999,-0.866199972265,-49.916299820000006,-0.4013055563,-0.0712061524499999,-1.4253492356500002,0.8927302669779275,
1970-01-01 00:00:07.900,1.121037424,-2.6842983365000004,8.3799643515,-1.905996144,-0.0105371158549999,0.58061031995,-8.6924996375,-2.3485000135,-50.23349762,-1.1243957879500002,1.132847309,-0.644862175,1.9924960916864685,
1970-01-01 00:00:08.000,0.9701400103,-5.4064331055,6.65488863,-1.69807905,-0.155918761155,0.9046647847,-8.7046995165,0.3111000062999999,-49.98339844,-0.9486235977999998,-0.2841279506499999,-1.0498008726,1.9303371448545743,
1970-01-01 00:00:08.100,2.8063322305,-6.7914289235,7.1744301319999995,-1.7564913035,-0.18508671225,0.58572617175,-8.381399631499999,6.3439998625000005,-48.96469879,1.34979474525,0.8809580805000001,0.5879197119999999,1.8608046481550808,
1970-01-01 00:00:08.200,0.4362414476999999,-10.27253723,6.914659261500001,-1.2696460485,-0.21036053218,0.2200577258999999,-7.7774999145,14.42039919,-46.939498905,-0.5739231108,-2.7103734015,1.2862248425,1.3056331968432011,
1970-01-01 00:00:08.300,1.8128622775,-9.377023222,6.048008680500001,-0.2350234836500001,-0.1395785957499999,0.024815669284,-7.393199682500001,22.423599245,-43.956600185,0.36808723213,-1.09637784935,1.0249259471499998,0.27447047145464776,
1970-01-01 00:00:08.400,1.4430215952499998,-7.890482187,5.613562107,0.7251520455,-0.14637426753,-0.22288288925,-7.1247999669999995,27.925800324999997,-41.254299165,0.12895715235,0.40450906755,0.6536509993,0.7726239043727587,
1970-01-01 00:00:08.500,2.8842486139999997,-8.474629879,6.0659549235000005,0.90794810655,0.0810136199,-0.2169271335,-7.234600067500001,30.35969925,-39.9000988,1.00209426865,-0.80221009255,0.21681427955,0.9370113937650698,
1970-01-01 00:00:08.600,4.665555596,-7.1744298935,6.5890858175,0.6854469776000001,0.0945286117549999,-0.7343147695000001,-7.643299818,29.963199615,-40.13190079,2.6438746450000004,-0.0833208560999999,0.304749012,1.0089555977579692,
1970-01-01 00:00:08.700,2.8471598625,-6.906434059,7.346862793,0.9268843831,0.1879118829999999,-0.8115105629,-8.314300060499999,27.2852993,-41.736198425,0.48907387255,-0.3039855957,0.61523151415,1.2461841473496396,
1970-01-01 00:00:08.800,2.662763,-5.904439449,6.927969217499999,1.710983217,0.6677324175999999,-0.1595074907,-9.034100056,23.13119888,-43.779699325,0.16782486435,-0.33895015705,-0.8105795383500001,1.8435760873799107,
1970-01-01 00:00:08.900,2.831606388,-6.7794647215,9.393773079,2.075429916,0.5143333971499999,-0.2647259346999999,-8.704699993,17.378899575000002,-45.798799515,0.73953986165,-2.5484186415,0.0823636054999999,2.1545366091469447,
1970-01-01 00:00:09.000,0.7057331352000001,-1.8142082395,6.358028889,0.823422134,-0.36719556155,-0.22265382115,-7.8445997235,10.2418999675,-47.76299858,-1.22442579285,-0.0287052393,-3.3632667065,0.9286718016909041,
1970-01-01 00:00:09.100,1.5195919275,-1.9733308555,7.0271220205,-0.28404398075,-0.09353598765,-0.07360709087,-7.088199854,3.220799923,-49.263599395,-0.8762468097,-0.4073590038,-2.2878510955,0.30797397262157034,
1970-01-01 00:00:09.200,1.49087804535,-1.20957184533045,6.8008506295,-1.369825006,-0.04321744293,0.2959555089,-6.472099781,-2.2264999750000003,-50.148097995,-0.7060196398,1.3691802026,-1.9016656875,1.402097699051163,
1970-01-01 00:00:09.300,1.4729319212999998,-4.0585262775,7.2390363215,-2.0522940755000003,-0.3598653972,0.4785988182,-6.813699960499999,-3.3671998975,-50.288398740000005,-1.2315696479,-0.0488555431,-1.3301799295,2.137865969890711,
1970-01-01 00:00:09.400,2.018794477,-6.784250259,7.6891860965,-2.0584788325,0.27992075685,0.69170817735,-7.7165000435,0.8113000392,-49.409999845,0.1482145786,-0.55010890945,0.43857908245,2.189554963132668,
1970-01-01 00:00:09.500,1.478913963,-8.285447358999999,7.314559937,-1.7682501075,0.48111855985,0.52319066225,-7.765300035499999,8.661999938500001,-47.40309906,0.2876065969,-1.082965374,0.9475815296,1.9057575869904053,
1970-01-01 00:00:09.600,1.6537395119999998,-10.3215899475,6.662066698,-1.3761624695,-0.0860531088149999,-0.04482091777,-6.929599762,17.69609928,-45.091197965,-0.0503573417499999,-1.9734025005,1.5716552735000002,1.379578629388992,
1970-01-01 00:00:09.700,1.37826585745,-8.922237157,6.058776378499999,0.28198237438,0.009544488975,-0.3878879994,-6.020699978,25.406499865,-42.370599745,-0.089589834205,-0.7732448579500001,1.1895954608,0.47964805515013903,
1970-01-01 00:00:09.800,0.765404135,-8.560771942,4.6223351955,0.6675033271,-0.40293013305,-0.151337413125,-5.5144000055,29.74969959,-40.57109833,-0.96235281245,-0.4816539287499999,-0.6064813137,0.7942395082219389,
1970-01-01 00:00:09.900,2.3611177210000003,-6.5998535154999995,6.3137614724999995,1.22154179215,-0.5404471124335,-0.0625354871149999,-6.1243999005,30.829399109999997,-39.87569809,0.522539794445,1.0089292526,-0.0555486678999999,1.3372202954096428,
1970-01-01 00:00:10.000,4.2417267565,-9.0813603405,8.723483561,1.475501597,-0.1808871403499999,-0.0135149955999999,-7.7591996195,28.56019974,-40.784597395,2.46616935755,-2.3094213005,2.5681660172850003,1.4866094898794435,
1970-01-01 00:00:10.100,1.7662022115,-6.540182352,6.628567457,1.6962465045,0.3878879993999999,-0.2867927849,-9.47329998,23.52769947,-42.64509964,-0.5014466046,-1.3563010695000002,-1.4213051795,1.7635076993247578,
1970-01-01 00:00:10.200,1.4956637025,-2.5550858975,7.974081516,2.173394561,0.525175944,-0.37192963065,-9.973499775,16.689599514999998,-45.213199615,-0.68788176775,0.9155125617,-1.7624363898,2.2666683348245105,
1970-01-01 00:00:10.300,1.550848186,-2.8483563065,7.874629736,1.0176715255,0.03825430575,-0.36551573875,-9.619699955,8.14349985,-47.945999145,-0.1925973296,-0.7286387679999999,-0.92098736775,1.0819983738416012,
1970-01-01 00:00:10.400,0.8469096421,-1.286291778,7.143323183500001,-0.53823278845,-0.0490968469499999,-0.16149274635,-8.6437001225,0.2073999644999999,-49.51369858,-1.0419774056,0.5360817909,-1.830575943,0.5640788438390147,
1970-01-01 00:00:10.500,0.44102713465,-1.62024006265,5.7056856155,-1.6771575215,-0.2743467837499999,0.2966426908999999,-7.881199598,-4.74579978,-50.434799195,-1.553806722,1.630571425,-3.2387280465,1.7251435869928002,
1970-01-01 00:00:10.600,2.1768704650000004,-5.18734026,8.898159980500001,-2.2014172075,-0.176611214855,0.7127060294,-7.97879982,-4.648199797,-50.37989998,-0.01726269725,0.03319716455,0.6771082879,2.320641964421218,
1970-01-01 00:00:10.700,1.4513964655,-8.202745438000001,7.571787834,-1.90591979,0.39483639595,0.8623636067,-8.417999744500001,0.9332999588,-49.586898805,-0.2381306291,-1.9111623765,0.5191011428050001,2.1288722403284472,
1970-01-01 00:00:10.800,0.91510513037,-8.0412299645,6.675227403999999,-1.78947705,0.085136836375,0.1665322296099999,-8.247200012,9.723400115,-47.982599255,0.0063915254999999,0.2475883959999999,0.4530439375499999,1.799224659925359,
1970-01-01 00:00:10.900,1.9348962305,-10.74287653,7.635347605,-0.0090099871,-0.06925480815,-0.2182251811,-7.7530999185,19.038099285,-45.048500065,0.94377195855,-2.3264255525000004,2.8646502495,0.22912799476616397,
1970-01-01 00:00:11.000,0.32497522235,-8.522486687,4.5779182910000005,0.735383749,-0.3135937154,-0.29198499025,-7.039399862,25.601698875,-42.937898635,-0.6754167973999999,-0.96316361405,-0.3490239385,0.8511084015347069,
1970-01-01 00:00:11.100,1.4980564715,-6.947111845,5.3980584144999995,1.11006221195,-0.48585262895,0.0249683815045,-6.886899948,28.529699325,-41.742298125000005,-0.48274940235,1.0065462587999998,-1.25254106535,1.2119877522202556,
1970-01-01 00:00:11.200,5.2232328655,-6.863213301,9.46675396,1.626762629,-0.1092653125499999,-0.54434126615,-7.856799841,27.67569923,-41.955799105,2.954573274,-0.5074646469999999,2.5600898265,1.7188958588790146,
1970-01-01 00:00:11.300,3.5760734085,-7.155287504,8.1979599,1.4952777030000002,0.77684500815,-0.39582903685,-9.1072998045,23.14340019,-43.56009865,1.4452421665,-1.32695055025,0.5284910201,1.730902713092255,
1970-01-01 00:00:11.400,0.4794618487,-4.812713981,6.610621214,1.816583395,0.43652671946,-0.6082511544,-9.0645999905,16.659099580000003,-46.00009918,-1.00921541441,-1.02020001425,-1.875740528,1.964815582852795,
1970-01-01 00:00:11.500,1.4143077135,-3.1906794309999995,8.41809988,1.0178242328,-0.2556395828899999,-0.52746662495,-8.192300080999999,8.747400047,-48.25709915,-0.2831491829499999,-0.5890882016300001,-0.8280925748999999,1.1745376986930756,
1970-01-01 00:00:11.600,0.19815562852,-1.4621642230999998,6.6765732765,-0.4085804484850001,-0.08009735023525,0.1301868259999999,-6.868599892,0.99429994825,-49.751600265,-1.84425443425,0.2963904737999999,-1.86591005335,0.43623637865596027,
1970-01-01 00:00:11.700,1.06704935435,-1.7458631694499998,7.495217562,-1.799937785,-0.40621343255,0.8141067028500001,-5.6668999195,-3.836899877000001,-50.318899155,-1.3332170846,1.3308538196,-1.86896562575,2.016818064744576,
1970-01-01 00:00:11.800,2.1515961885,-4.596014023,8.3189468385,-2.238067985,0.06772769055,0.8729007244,-5.740099906999999,-4.0381997825,-50.05049896,0.3772415518999999,0.1927902697999999,0.34644412995,2.4032251289064117,
1970-01-01 00:00:11.900,1.1460124703,-7.565955639,6.505337,-2.012741685,0.4309527426999999,0.81387761235,-5.8437998295,0.9759999514000002,-49.056198120000005,-0.34877884395,-0.91216492655,-0.7113811969499999,2.2134240725314767,
1970-01-01 00:00:12.000,1.5327524839,-9.8367445485,7.573134184,-1.2923237085,-0.03840701654,0.15309358762,-4.983700037,9.595299958,-47.40309906,0.7381390333,-1.4025626180500002,1.94332742705,1.301926769461731,
1970-01-01 00:00:12.100,0.16091731938,-9.4286184335,6.450152397,0.0523801446,-0.0217614322999999,-0.14950487019,-3.69659996,18.800200465,-44.926498415,-0.4318729639149999,-1.366229534,1.76392340655,0.15990292584750643,
1970-01-01 00:00:12.200,1.4980564863,-7.544420004,5.165804863,0.87290072435,-0.26617670055,-0.01359135099,-2.3607000115,25.656599995,-42.49869919,0.52469405545,0.9905474184,-0.3806226253599999,0.9126830968677859,
1970-01-01 00:00:12.300,3.117698431,-8.813214302,7.698757410500001,1.385096133,-0.017485503085,-0.33619505915,-1.7445999385,28.700499535,-41.235998155,2.1515631675,-1.2569003107,1.63571643825,1.425420695186709,
1970-01-01 00:00:12.400,2.7393332719999997,-7.874779224500001,7.1229844095,1.3768497709999998,0.1754658818,-0.5841227174,-2.3485000135,27.834299085,-41.498298645,1.33715587865,-1.407663107,0.3068618773,1.5058894104685654,
1970-01-01 00:00:12.500,2.8818557265,-6.537640095,8.069794178,1.973876536,0.3254288733,-0.86404344435,-3.4708999395,23.692399025,-43.4076004,1.3365422485000005,-0.93221664455,-0.1414530275,2.179142860088085,
1970-01-01 00:00:12.600,1.141376406,-4.555336118,9.0622177125,2.2281417845,0.50379626455,-0.76936212185,-4.0381999015,16.46999931,-45.737798690000005,-0.4019700289,-1.3775260448,-0.29586148265,2.4104656318949895,
1970-01-01 00:00:12.700,0.71769723295,-1.441825211,6.3580288885,0.7214105875500001,-0.2395284846349999,-0.4249969721,-4.196799755,7.606699705,-47.714199065,-0.9518215955,-0.0418778658,-3.318978071,0.8708786121354364,
1970-01-01 00:00:12.800,1.350897968,-0.23165515065,5.496313572,-0.7718055248,-0.2567085624,0.1155264852549999,-4.507899761,0.207399964,-49.10499954,-1.0050224065,2.0622313025,-4.000231981,0.8215408832898408,
1970-01-01 00:00:12.900,2.01625216,-4.1123648885,8.807232379999999,-2.132009566,-0.203030359,0.34253260495,-4.910499810999999,-3.6294999125,-49.5442009,0.1315783858,-0.0047876835,0.5407657623500001,2.1688740631131647,
1970-01-01 00:00:13.000,0.7438687084500001,-7.2128646375,6.239583969,-2.331833005,0.2040229887,0.8782456517,-5.5265998839999995,-1.7140999735,-49.123298645000006,-1.1646461486,-1.49672007585,-1.182830334,2.5000771923793406,
1970-01-01 00:00:13.100,0.9330512879,-7.606633663,6.8979096415,-2.0687869195,0.175694938775,0.57977040115,-5.740099906999999,5.3618999715,-47.5311985,-0.2056400776,-0.06934547425,0.4747879507500001,2.1556627166268574,
1970-01-01 00:00:13.200,1.9625631869,-11.0961165405,8.13335371,-1.0882244112,-0.2347944229999999,-0.0016034767499999,-5.1910998825,14.67050028,-44.85329819,1.216790616405,-2.15426492685,3.4770140645,1.1132669766687493,
1970-01-01 00:00:13.300,0.58474603295,-10.441230774,5.9953668115,0.4999021292,-0.218148829395,-0.2629697472,-4.3919997214999995,22.850599285,-42.193698885,-0.6164799630500001,-2.4493021965,1.2922706602999998,0.6055114685020708,
1970-01-01 00:00:13.400,1.0444670842,-6.814310074,4.651049136999999,1.2131426334,-0.39995224775,-0.0038941521199999,-4.111399889,27.486599920000003,-40.22339821,-0.95052146915,0.79872274418,-0.8331122399,1.2773770053800475,
1970-01-01 00:00:13.500,3.741327882,-5.7991552355,8.468498468,1.7239636775,-0.5064687282,-0.17187714575,-4.9531998635,27.90139961,-39.72319984,1.8985551595,1.73565697655,0.8426115515000001,1.8050216306778755,
1970-01-01 00:00:13.600,3.00762856,-10.3419289565,10.57044363,1.807802439,0.2786990552999999,-0.4297310411999999,-6.6672997474999995,24.302399635,-41.126197815,1.3884361981,-4.883820534,3.1584136485,1.8789602416363944,
1970-01-01 00:00:13.700,0.90433740615,-4.4644088745,4.269094825,2.0011356475,0.7953231334499999,-0.4644729793,-7.698199749,18.025500295,-43.883399965,-0.5110677480999999,-1.1484129429499998,-3.649787426,2.2029112362498378,
1970-01-01 00:00:13.800,0.18005991,-1.17487591495,5.965456247500001,1.3398934601,-0.03077142685,-0.17080816255,-7.545699835000001,9.7538998125,-46.634498595,-1.66423785701,1.2206463810000003,-4.3568887709999995,1.3510872634744369,
1970-01-01 00:00:13.900,1.972134471,-0.93783693,7.854440451,-0.94841671,-0.2891598194749999,0.04382828625,-7.2040998935000005,1.8848999441,-48.488899235,0.395094215865,1.275087476,-1.13849449155,0.9924860581799881,
1970-01-01 00:00:14.000,0.40872400995,-3.2338997124999995,6.638138771,-2.190574646,-0.1028514057149999,0.4378247857,-6.636799812,-2.317999959,-49.53809738,-1.3874744175,0.39589583875,-1.29835248015,2.2362661367397276,
1970-01-01 00:00:14.100,0.9988538921,-4.9827541115,7.0295147895,-2.2039369344999997,0.208909767665,0.83319565655,-6.4232997895,-1.305399984,-49.165998455,-0.5916180611,1.0303909778,-1.0387713909,2.3654167295368667,
1970-01-01 00:00:14.200,2.13619244115,-9.860672472,8.0733833315,-2.1741580965,0.4124746025,0.4728721455,-6.2097997665,5.1666998865,-47.63489914,1.109095663,-2.5645689965,1.7965767381499995,2.2628978749103568,
1970-01-01 00:00:14.300,0.64695942395,-10.475927354,6.850053072,-0.98140248675,0.0103080477599999,-0.3352787941999999,-5.3557999135,14.780299665,-45.37789917,0.04147771,-2.1436681749499997,2.0290608405,1.037144621876772,
1970-01-01 00:00:14.400,0.7942675801,-8.1572818755,5.6840007305,0.6785749495,-0.334057107669,-0.1588202863999999,-4.4590997695,23.430099485,-42.608499525,0.20085823535,0.7340750693,1.0206077099,0.7728402141744976,
1970-01-01 00:00:14.500,1.6597215534999998,-8.774929523499999,6.469444751999999,1.164274871,-0.360399887,-0.0317640565349999,-3.9162000415,28.407699585,-40.638198855,0.20217216015,-1.13561010365,0.64005112645,1.2191935896645938,
1970-01-01 00:00:14.600,3.1320552824999996,-7.679614544,6.9122662545,1.5731607675,-0.3939964770999999,-0.4854708611999999,-4.593299865500001,29.31659985,-40.131898879999994,1.5392395855,-0.5856008530000001,0.51779603935,1.6928526165743636,
1970-01-01 00:00:14.700,2.990729213,-7.879565239,8.850303173,2.275100708,0.27877541261,-0.5609868616,-6.447699785,26.1201992,-41.27260017,0.757360816,-1.85663914695,0.8477866651999999,2.3597680439199515,
1970-01-01 00:00:14.800,1.8847964405,-4.025026679,7.085746049999999,2.256851554,0.9718579946,-0.2758738994499999,-7.8384997845,19.318699835,-43.730899815,0.2451845407499999,-0.80217874065,-1.8132674695,2.472649046439445,
1970-01-01 00:00:14.900,-0.4196412563,-1.9254745245,6.8225355145,0.7398887126,-0.1057529375,-0.23258010295,-7.7835998535,10.4858999245,-46.305099485,-1.6047680375,-0.0063371657999999,-3.5520448685000003,0.782759538498891,
1970-01-01 00:00:15.000,1.6057335140000002,-0.1407278776,6.617799759,-1.35264492035,-0.24693500995,0.01687465515,-7.210199832999999,2.0434999614,-48.09849739,0.0502474307999999,1.7317917345,-3.1421811579999996,1.3751036083416026,
1970-01-01 00:00:15.100,0.9210872056,-2.886641502,6.1606209275,-2.3337420225,-0.026342786845,0.1892862878549999,-6.2768998145,-2.8486999275,-49.31239891,-0.67849767215,0.3679904938500001,-2.425703764,2.3415539858758496,
1970-01-01 00:00:15.200,1.15453693245,-6.225227237,8.111818313499999,-2.5299003124999997,0.339631071335,0.7297334074999999,-5.6302998065,-1.8848999739,-49.53809929,-0.45524168015,0.090571165,-0.34591722495,2.6548551188012723,
1970-01-01 00:00:15.300,1.0120144187000002,-10.7237339015,7.8831541535,-2.00724411,0.14813046346,0.2876327000499999,-5.2642998695,5.1117999555,-48.208299635,0.0709301233,-3.8554282185,1.650627613,2.033151278550767,
1970-01-01 00:00:15.400,1.1916256545,-8.646913526499999,6.983004093,-0.202495873,-0.218377903115,-0.24838576465,-4.550600052,15.103600025,-45.859800335,0.5272172689,-0.5409517289500001,1.906163931,0.3878001743574926,
1970-01-01 00:00:15.500,0.7366902454,-9.4058866505,5.763113498500001,0.6526902914,-0.6642963886,-0.1743968873999999,-3.92840004,23.808299065,-43.181900025,-0.45403876885,-0.92030096035,0.6605224607199999,0.9474748454337072,
1970-01-01 00:00:15.600,2.6807091235,-9.2478108405,7.6090266705,1.0165261926,-0.4061370789999999,0.114686569215,-3.7209998365,28.816399575,-41.260398865,1.1099017859,-0.97125792515,1.6463730334999995,1.1006479166103988,
1970-01-01 00:00:15.700,2.0128125545,-6.0972111225,6.9828546045,1.5618600845,-0.1507265642349999,-0.3791834413999999,-4.788499831999999,29.286099435,-41.0651989,0.4053401946999999,0.68656659145,-0.34227085113,1.61428172973381,
1970-01-01 00:00:15.800,2.790928543,-6.9602725505,7.768148899,2.1240686175,0.1561478339,-0.52288524805,-6.569700002499999,25.27839947,-42.90130043,0.928376436,-1.501736641,-0.3480467794999999,2.1930477925727776,
1970-01-01 00:00:15.900,1.61410847305,-5.315505981499999,8.8179998395,2.1075757745,0.7553890049499999,-0.3246653079999999,-7.4785997865,17.86689949,-45.579198835,0.1842073202,-1.862030625135,0.0540943145549999,2.2622766754482884,
1970-01-01 00:00:16.000,0.1849950849999999,-0.9139086902,5.811119317999999,1.2500225602,0.1513374000499999,-0.3893387765,-7.1491999625,8.619299889499999,-47.89719963,-1.16490215045,0.948127508,-3.347630501,1.3179696857475034,
1970-01-01 00:00:16.100,0.8756235540500001,-0.75583286605,6.020491362,-0.74630261205,-0.37345673145,0.0092390700999999,-6.2402999405,-0.018299997,-49.269699095,-0.6294506192,1.3484675883,-3.7489943505,0.8345794626243105,
1970-01-01 00:00:16.200,1.5483058095,-2.2570300100000003,7.8495049475,-2.3423701525,-0.2570139765499999,0.3017585500999999,-5.4777998925,-4.4651999475,-49.751598355,-0.2163644432999999,1.2173662185,-0.92830753325,2.375670923765194,
1970-01-01 00:00:16.300,1.0431211295,-8.870791914,7.789684533999999,-2.683146596,0.29832253605,0.6319978534999999,-5.3679997925,-2.5314999819999997,-49.007400515,-0.40434128045,-2.44849729555,-0.35531949995,2.7726689809586533,
1970-01-01 00:00:16.400,1.4177474375,-9.611669541,7.762167215,-2.24012959,0.2268533930499999,0.3243598937999999,-5.361899853000001,5.08739984,-47.122499465,0.8697182835,-1.833185196,1.8185772895,2.2748301876486985,
1970-01-01 00:00:16.500,0.98330053685,-8.366803646,6.712316036500001,-0.61955181894,-0.3132882863499999,-0.06452073905,-5.0934998985,15.50009966,-44.737398145,-0.2936067282999999,-0.278940201,1.381410122,0.6972495482132206,
1970-01-01 00:00:16.600,1.2430713772,-9.308977604,6.19157815,0.8431219457,-0.36009445785,-0.032451262725,-4.605499983,24.16819954,-42.187599185,0.1062843799999999,-1.4647326469,1.3381321428,0.917374361069507,
1970-01-01 00:00:16.700,2.4855445625000003,-7.670043468499999,7.1421267985,1.2394090895,-0.0935359876599999,0.094834034315,-4.3980998995,28.505299565,-40.58329773,1.22709375605,0.2049379349,0.7894687653000001,1.2465461749117879,
1970-01-01 00:00:16.800,2.327618182,-8.449356078,8.6359961045,1.803679228,-0.2786990553,-0.41949935255,-5.0020000934999995,28.18200016,-40.60159874,0.8151722551000001,-1.2109916212649998,1.0881693364999998,1.8726749925530746,
1970-01-01 00:00:16.900,2.3838495610000003,-6.197859287,7.506135225,2.1921781305000003,0.378038086,-0.6103891432499999,-6.1487998965,23.38739967,-42.474300385,0.59068655965,-1.380221605,-0.63723230365,2.3067580403038566,
1970-01-01 00:00:17.000,0.1694417483999999,-2.9105697275,6.37238574,2.167133391,0.5382327884,-0.5509842187,-6.5269999505000005,15.37809992,-45.115598680000005,-0.9664124251,-0.6218781473500001,-2.176088333,2.2999446250187083,
1970-01-01 00:00:17.100,0.261565419865,-0.93903332935,6.827321291,-0.0004581213,-0.39834876355,-0.217996113,-6.319599867,6.154899597,-47.47629929,-1.29319936035,0.554619372,-2.757805824,0.4540971840697188,
1970-01-01 00:00:17.200,1.18923285605,-1.3867902755,5.8959150314999995,-1.7580947880000002,-0.40804597735,0.2762556746499999,-6.4477000234999995,-1.01259998965,-49.031799315,-0.67833733555,1.215073824,-3.195079088,1.8258466531997173,
1970-01-01 00:00:17.300,1.11864459495,-4.816303491499999,7.346862793000001,-2.4449924230000004,-0.03451287,0.52929913995,-6.5330998895,-3.2146998645,-49.53199768,-0.5424581766,0.2058544155,-1.17768383045,2.5018666363886903,
1970-01-01 00:00:17.400,0.774975434,-8.1032938955,6.215655804,-2.1760669945,-0.02389939875,0.93528351185,-6.972299814,0.92720001925,-48.70240021,-1.04430598034,-1.414130688,-0.75122332555,2.368669245241164,
1970-01-01 00:00:17.500,2.5489542485000003,-10.731061461,7.855636835,-1.749848306,-0.027335416545,0.06223006545,-7.387099743,9.955199956,-47.244499205,1.502091527,-2.9211790565,2.200996399,1.7511678674686415,
1970-01-01 00:00:17.600,1.0851450565,-8.684002161,7.181757927,0.1376696974,0.0929251387899999,-0.26388601215,-7.3565998075,19.92259979,-45.036300655,-0.2074643373499999,-0.39321231845,2.3258316515,0.3118073995430164,
1970-01-01 00:00:17.700,1.829612017,-9.10648489,6.328118563,1.244754016,-0.067193200831,-0.3636068328999999,-6.984499931,26.894899365,-42.468198779999994,0.152915775765,-0.61811947825,1.0190913679500002,1.2985135407525066,
1970-01-01 00:00:17.800,2.4460629225,-8.4182491305,8.1810605525,1.6495166425,0.4394282400499999,-1.4021998642,-6.935699701000001,29.19459915,-41.42509842,1.22323006395,-1.6149044035,2.073105812,2.2091099545292923,
1970-01-01 00:00:17.900,2.1133109925,-5.254488945,6.3867428305,1.7651194929999998,0.5726693273,-1.5733134745,-7.5822997095,26.675299645000003,-42.541399005,-0.98760020715,-0.1633784770999999,-1.29860806445,2.432881475132332,
1970-01-01 00:00:18.000,2.7969105245000003,-5.231757164,8.8683991435,1.5785820485,0.3106158329149999,-0.075515992925,-8.234999657,20.221500395,-45.12170029,-0.29028701785,-0.98284173025,0.1802549361999999,1.6106229058011636,
1970-01-01 00:00:18.100,2.5621149542,-3.791726589,7.173233747499999,1.2215417624999998,0.7699729799999999,0.1939439997249999,-8.320399761000001,11.8705997465,-47.76910019,0.6917501687950001,-2.14269948,-1.52051615695,1.4569272262165387,
1970-01-01 00:00:18.200,0.7727321683499999,-1.0538888274499998,6.256334065999999,0.1862320602,-0.1892862916,0.2218139096999999,-7.4724998475,3.391599834,-49.708898545,-1.5818812845,1.146974504,-3.4212427140000004,0.34599579617448584,
1970-01-01 00:00:18.300,1.55668071665,-1.4968601465,8.248209238,-1.402887106,-0.96880376345,0.4636330604499999,-6.6733999255,-2.8730999235,-50.526298525,-0.59325379135,0.93194559195,-0.89792346935,1.7668131137724137,
1970-01-01 00:00:18.400,3.786940932,-3.895814419,6.774679184,-2.3413774965,-0.1431673243499999,0.0922379326099999,-6.8807997704999995,-4.703099966,-50.50799942,0.8115458486000001,-0.3857280016,-1.540548801,2.3475632686022143,
1970-01-01 00:00:18.500,2.8266713615,-4.5170508625000005,6.478866577,-2.5960245134999997,-0.416216064255,0.1490467265,-7.7713997365,-1.3419999405,-49.696699145,-0.3425352573399999,1.21450567255,-0.98425054543,2.633399706371442,
1970-01-01 00:00:18.600,5.238785982,-11.603544715,7.910671710999999,-1.50558578975,-0.2099787592999999,-0.6668924987,-9.6440997115,6.624599934,-47.54339981,2.328702688,-3.800969839,2.9381563665,1.6600076067526404,
1970-01-01 00:00:18.700,3.2050364615,-8.602496386,6.350850582,-0.2417428046,0.1070509851,-0.611916244,-11.632699965,16.2748003,-44.74959946,0.18855047228,-1.23464417465,1.944304943,0.6665890688106292,
1970-01-01 00:00:18.800,4.4104207755,-6.1701922415,4.9503014085,0.74821156265,0.493259158,-0.71728739145,-13.07839966,23.826600075,-42.26689911,0.05619001385,1.01207590095,-0.8011817931655001,1.1478790621695167,
1970-01-01 00:00:18.900,5.1969115734999995,-7.0631637575,8.6156573295,1.19382461895,-0.01290414855,0.50471253695,-14.20079994,27.175499915,-40.99809837,1.05268847935,-0.23330569265,2.143330097,1.2961938446140755,
1970-01-01 00:00:19.000,5.8876895905,-7.405486822,8.7940716745,1.651272893,0.0841442127705,-0.209062475695,-14.865699765,25.741999625,-41.717899325000005,1.9587267639,-0.7166543007,-1.4590650798000002,1.6665801914228666,
1970-01-01 00:00:19.100,2.7118158340000003,-4.1255253555,6.71964407,1.669445574,1.5934714075,-0.8689302504,-14.133699415,20.227600095,-44.09689903,0.2090706824999999,-0.141322732,-1.0525169374,2.4660169162291705,
1970-01-01 00:00:19.200,3.8946180345,-2.828017235,7.794619559999999,1.5537663695,0.5122717767999999,-0.4953207523,-11.748600005,12.49279976,-47.079799655,0.1953516006239999,-0.7477384806,0.658351183,1.7093726779008949,
1970-01-01 00:00:19.300,2.1492033601,-2.5552354452499997,5.9056358335,0.3823140282149999,0.3003077804999999,-0.6727719008499999,-9.1133995055,4.2211998705000005,-49.367300035,-0.3824942109999999,-1.6326144931750002,-2.855202675,0.8300426553931659,
1970-01-01 00:00:19.400,0.023180485,-0.51535418441,4.3721356395,-0.568317011,-0.5728983581,0.05841227625,-6.6123998165,-2.4887999295,-50.93499756,-2.717163384,1.4737935065,-4.88525486,0.8090789502405537,
1970-01-01 00:00:19.500,3.393022537,-3.0650561897,9.600901606,-1.5851486325,-0.4611133374499999,0.61199259755,-5.8010997775,-5.337499857,-51.599899295,-0.438680887225,0.4773899319,1.12817049025,1.7606409732102948,
1970-01-01 00:00:19.600,2.0834007860000003,-4.8714876175,6.417849540500001,-2.0543556215,-0.5937435329,-0.02412846685,-6.691699981499999,-3.080499947,-51.343698505,-0.7975189683499999,-1.5138566495,-1.1035232544000002,2.1385720902886947,
1970-01-01 00:00:19.700,5.538038492,-7.186543703,8.082955122000001,-1.756262243,-1.355241001,0.2888543978399999,-8.802299976499999,3.5074999335,-50.19689941,1.9366179705,-1.20101618785,0.7633547785,2.237090096560794,
1970-01-01 00:00:19.800,4.932355404000001,-7.705935954999999,7.553991556000001,-0.407282415765,-1.11624699855,0.54296685755,-11.85839987,12.07799959,-47.89719963,0.1888689994735,-0.8936545846500001,2.581084013,1.3064070331871995,
1970-01-01 00:00:19.900,7.989634991,-8.8144111635,7.927421331500001,1.00705805395,0.11399936675,0.08834378045,-14.8901,19.410199165,-45.042398455,3.4314126970000003,-1.870454311,3.0968434814999997,1.0173329854030881,
1970-01-01 00:00:20.000,2.696411967,-4.350600183,4.0202410225000005,0.9750649333,0.01885990797,0.155842402955,-17.445999145000002,23.01529884,-42.950098035,-1.8058627845,1.24914026255,-1.90699338905,0.9876204609255312,
1970-01-01 00:00:20.100,7.1971617945,-5.9810097214999995,10.6183001995,1.4145695565,0.3891097009499999,0.0374144018,-18.781899455,22.813999175,-42.230298995,1.9038341045,0.5203728675500001,2.3767061235,1.4675875534400178,
1970-01-01 00:00:20.200,5.337041378,-6.880112886500001,8.8371424675,1.532310367,1.2794959545,-0.5316661596000001,-18.458599095,18.85509968,-43.285598754999995,1.948305726,-2.8528838160000003,0.85722947125,2.06585426970572,
1970-01-01 00:00:20.300,1.707428552,-2.7526432875,5.095067262500001,1.7613016965,1.706707239,-0.6302416623,-16.65909958,12.297599795,-45.658498765,-0.4995365143499999,-0.588124155985,-3.887104273,2.5322396842809822,
1970-01-01 00:00:20.400,1.32577329885,-0.97986087225,7.6927754875,0.84663428355,-0.1021641939999999,-0.2474694996999999,-13.29799986,4.4041999579999995,-47.86059761,-1.0534098148,0.0508857965655,-1.86976337435,0.8879573671633452,
1970-01-01 00:00:20.500,0.8744271397,-0.6361917107999999,6.404838562,-0.9768975077,-0.67895674705,0.25418882072,-9.723399639,-2.9036000369999995,-49.708898545,-1.1390601995,0.5634062588,-2.9058630464999995,1.216520843016762,
1970-01-01 00:00:20.600,2.075025946,-1.5233307445,6.228816509,-1.9992266895,-1.23337698,0.84984123705,-7.97879982,-6.569699764,-50.86789894,-1.1469037531,1.7128263712,-2.2576663495,2.49807050721026,
1970-01-01 00:00:20.700,4.3039400575,-6.875327110000001,7.9716887475,-2.217528224,-0.4813476354,0.92718979715,-8.881599903000001,-4.7518999575,-50.36159897,0.5373004674999999,-1.82490325,0.90477442735,2.4512869865196985,
1970-01-01 00:00:20.800,3.4755749700000003,-6.9459156989999995,5.364558697,-1.972120404,-0.59229277075,0.59908844535,-11.63269949,2.5437000540500003,-48.58039856,0.0578966140999999,-0.60203671475,-0.6323981285,2.144522459548446,
1970-01-01 00:00:20.900,5.922385693,-9.611669542,9.021539211,-0.3203130215499999,-0.4417189285,-0.0507766902499999,-14.524099825,12.694099905,-45.95129967,2.25667846225,-1.4422826765,3.5477275844999996,0.5479911640185663,
1970-01-01 00:00:21.000,4.6797628405,-8.909076690500001,7.3503024575,0.92802971605,-0.0148130506499999,-0.3918585180999999,-16.677399635,21.23409939,-43.19409752,1.3524382112,-1.588551283,2.7142295837,1.0074778799303392,
1970-01-01 00:00:21.100,4.1113179925,-6.6658055780000005,5.417051315,0.8964947164,0.1108687734399999,0.19745637105,-17.952299115,25.55289936,-41.22379875,-0.314300537,-0.08766651155,-0.29522919655,0.9246532755176081,
1970-01-01 00:00:21.200,6.0731334685,-6.425177573999999,7.831708669499999,1.410217285,0.35070269369,-0.3849101364499999,-18.977099415,25.57730007,-40.65040016,1.97296679,-0.101260185255,0.88228654865,1.5032834008982308,
1970-01-01 00:00:21.300,4.527668952999999,-5.428118229,7.0522465705,2.112996936,1.1253333685,-0.6377245188,-19.312600135,21.362199785,-42.138799665,0.7838654518,-0.8876779081749998,-0.6524856088500001,2.4774631790772665,
1970-01-01 00:00:21.400,3.697060585,-4.0334016085,8.0255270005,1.8217756155,1.2662100195,-0.62382775545,-17.909599305,14.0055995,-44.62150002,0.8512457607,-0.8026854989799999,-0.74311161045,2.3046290970961856,
1970-01-01 00:00:21.500,0.35727830235,-1.2480065674,6.6058356765,0.28343312445,-0.1935622245,-0.206466365615,-14.993799685,5.3313997985,-46.82969856,-1.7995818855,-0.7239300015,-3.2241945265,0.40053592962322926,
1970-01-01 00:00:21.600,1.796112478,-0.1682453378999999,6.231209278,-1.305304229,-0.9842276273,0.32710870355,-12.035299775,-2.53149992205,-48.34249878,-0.9487368466,1.39588788165,-3.7150564195,1.6671902280555853,
1970-01-01 00:00:21.700,2.7586253880000005,-2.8124638795,7.915457248499999,-1.9392110110000005,-0.7756233217499999,0.98575478785,-10.28459978,-6.746599912500001,-48.739000325,-0.82456088075,0.27434492085,-0.74686217315,2.309511503369348,
1970-01-01 00:00:21.800,3.46959281,-6.881309270999999,7.468896627,-2.204395056,0.2192941605999999,1.191763043,-10.571299555,-5.1545000075,-47.921600345,-0.0207797288499999,-1.40024137506,0.1899087429,2.5155012706121065,
1970-01-01 00:00:21.900,4.20344162,-7.556384325,6.41186738,-2.4006297585,-0.15836215391,0.6799493581,-12.31589985,2.3179999442,-46.042798995,1.3614573481,-0.3682801723,0.1919014453999999,2.500086586254041,
1970-01-01 00:00:22.000,3.9759738445,-9.986445428,7.9070823195,-1.102044821,-0.09246700446,-0.1067455522499999,-14.133699895,12.53549957,-43.309999465,1.4824681279999998,-2.2747809885,2.9005632405000004,1.1110569505348882,
1970-01-01 00:00:22.100,3.185893774,-7.301548480500001,5.5069317815,0.61252708735,-0.03871244191,-0.3893387615499999,-14.92059946,21.136499405,-40.90049934,-0.2490621804999999,0.3357849123499999,0.6405792234850001,0.7268237455816902,
1970-01-01 00:00:22.200,4.837838768999999,-7.771888018,6.5579791069999995,1.0656230153,0.1127013219349999,-0.1869956106,-15.26829958,25.992099765,-39.357198715,1.22700214385,-0.36573696145,0.6114284991000001,1.0877597883203016,
1970-01-01 00:00:22.300,4.6835017205,-6.498158693500001,7.24980402,1.492605269,-0.1498866453699999,-0.52815383675,-16.2809,26.205599785,-39.052200315,0.6095803975999999,-0.3378612995,0.51799845695,1.590371959882524,
1970-01-01 00:00:22.400,5.051996469500001,-6.490980148,8.354839086,1.832770824,0.44660571215,-0.80807456375,-17.500900270000002,22.039299965,-40.564998625,1.4451339243,-1.6203751564000002,0.92126870165,2.052191525177512,
1970-01-01 00:00:22.500,2.419741869,-3.570240855,6.5579791069999995,1.8497982025,1.185654521,-0.5344149917500001,-17.50699997,15.10359907,-42.937898635,-0.67646527295,-0.97694349295,-1.807575464,2.2612229913361315,
1970-01-01 00:00:22.600,0.104685962,-0.2149053815,5.843272924500001,0.6471163332000001,-0.03802524505,0.0293970108,-16.329699515,7.069900036,-45.072898865,-3.0176565645,1.32132881875,-3.5031068325,0.6488987996593162,
1970-01-01 00:00:22.700,2.8064819575,-2.249851465,7.339684248,-1.285146296,-0.6658998728000001,0.6100073456499999,-15.091399665,0.4635999798499999,-46.768699645,-0.4019364118799999,0.42755484585,-1.4465751647,1.5707108595997337,
1970-01-01 00:00:22.800,1.5195919275,-2.155185461,6.574728966,-2.0488580465,-0.4920374751,1.0069053471,-14.37769985,-1.7140999435,-47.360399245,-2.233520508,1.8973965645,-2.2542300225000003,2.335332642179514,
1970-01-01 00:00:22.900,4.975426197000001,-9.885797503,6.9064338205,-2.3864275215,0.1318666488,0.98018080015,-15.16459942,1.98249998705,-46.158699035,1.9629023075,-3.3395426274999997,0.1504495143499999,2.5832498000427813,
1970-01-01 00:00:23.000,3.9556348325,-8.906684398500001,6.620342016,-1.828494966,-0.3759001344499999,0.2213557791149999,-16.53100014,10.5041997445,-43.59059906,1.2974479197000002,-1.09122705435,1.3039121626,1.8798119939809081,
1970-01-01 00:00:23.100,3.5905798675,-9.135198592999998,7.447361469,0.22349374745,-0.0942995454849999,-0.33237726985,-17.519199375,20.04459953,-40.546699525,0.5773819682999999,-1.1359376907,2.6748890879999996,0.4114808731166756,
1970-01-01 00:00:23.200,3.6251262425,-7.628168821499999,5.8600225445,1.202223778,-0.1526354532784999,-0.086205821475,-18.123099325,26.650898935,-38.05179977,0.07972240445,-0.178324461,0.7222251892,1.2149366393529772,
1970-01-01 00:00:23.300,5.141876935999999,-6.875177622000001,7.19596529,1.446028173,-0.10735640301,-0.18730104526,-18.80630016,28.895699505,-36.996498105,1.466637373,0.0880331993,0.5587644575000001,1.4620549086585126,
1970-01-01 00:00:23.400,5.3189456465,-7.706085205000001,7.266553879,1.837046802,0.798301026,-0.7615738213000001,-20.020199775,26.431300165,-37.813898085000005,1.94018709665,-2.342008829,0.5657114980000001,2.1428999431006024,
1970-01-01 00:00:23.500,2.8734809165,-3.6169009205,6.9314088824999995,2.182786226,1.253840387,-0.73607093095,-21.703799245,19.788399695,-40.17459869,-0.1367164850199999,0.121811509146,-1.9645547865,2.6226840907507776,
1970-01-01 00:00:23.600,1.65358999375,-1.88823619495,7.745417118000001,1.1647330226,0.42255360075,-0.43515232205,-21.593999865,10.5529994955,-43.041599275,-0.92126333715,-0.0981464088999999,-1.8536133768,1.313206801241613,
1970-01-01 00:00:23.700,0.40633118155,-1.2216854991,6.2119171615,-0.92474639395,-0.4678326398,0.28999973835,-19.251600265,1.6042999921500003,-45.871997835,-1.8053765295,0.27495250104,-2.537023306,1.0761612891332013,
1970-01-01 00:00:23.800,1.21316108095,-1.1150553824499998,5.3753266335,-2.0467965005,-1.00766888245,0.7085828185,-17.39109993,-3.8856998685,-47.848398204999995,-1.8678336145,1.7054879665,-3.852720499,2.3889039540740193,
1970-01-01 00:00:23.900,4.8641598225,-7.8376905935,8.364261150499999,-2.4363642935000005,-0.410413015635,1.168932557,-17.122699734999998,-3.495299816,-47.848400115,1.6369013784500002,-1.8033396007,0.386326313035,2.733260532195738,
1970-01-01 00:00:24.000,4.095764637,-8.9916296005,7.4976108075,-2.0999401210000004,0.12423106285,0.54197422415,-18.068199155,3.3732998967,-46.262399675,1.2992691992999998,-2.2847633363999997,1.12192821485,2.1723070520544123,
1970-01-01 00:00:24.100,3.3786656854999997,-7.630711316999999,7.381558895,-0.2453315407,-0.1919587515349999,-0.1563768983,-19.23939991,13.560299874999998,-43.816297535,0.127276659,0.438570261,2.586370945,0.34855338396727714,
1970-01-01 00:00:24.200,3.6777684685,-9.588937757,6.464509487,0.990641564,-0.0816244669249999,-0.2980170995,-20.06899929,22.277199745,-41.278697965,1.005389571,-1.3750050067,1.1341743471,1.0377126064183422,
1970-01-01 00:00:24.300,4.753940344,-7.1985077854999995,6.4263739585,1.2840009335,0.0431410856349999,-0.2577775381499999,-20.123899459999997,26.803399085,-39.796398159999995,1.3425866367,-0.2173607348999999,0.3121628762,1.3103315647855363,
1970-01-01 00:00:24.400,5.2172505855,-6.602396011,7.533652544,1.8601062895,0.3839938566149999,-0.8351045549,-20.52039909,26.358099935,-39.99769974,1.599285841,-0.48504948615,0.69612383841,2.0748123548336235,
1970-01-01 00:00:24.500,4.1542392965,-5.694917917,7.544420242499999,2.024882257,1.149538159,-0.7093463838,-20.941299435,21.05109978,-41.937498095,1.2453758719,-1.5838419199999998,-0.88098168385,2.4340826662052093,
1970-01-01 00:00:24.600,2.2211375235,-3.126222849,6.9650580885,1.3509650828000002,0.7141568063999999,-0.5888567567,-19.73960018,12.93809986,-44.621500015,-0.1273481846,-1.20985472185,-1.4975130559,1.637644307834733,
1970-01-01 00:00:24.700,0.57517474875,-0.262761835015,4.9239804744999995,-0.5261685404235,-0.425989598,-0.0146603360749999,-17.677799225,3.9710997935,-47.03099823,-1.76506900775,1.4094374775,-4.636992693,0.6771524171037345,
1970-01-01 00:00:24.800,1.3544871359,-1.3054343465000002,6.2072811130000005,-2.1027653815,-1.0513444839,0.5553365201,-15.634299275,-2.83039999,-48.769500735,-1.3865056039,1.0988194349,-3.251960039,2.415646109018988,
1970-01-01 00:00:24.900,2.274826527,-6.0097236635,6.8081786635,-2.5098950865000003,-0.32260371,1.11113119105,-15.15849972,-4.0259997845,-49.172100065,-1.293394923,-0.87990653515,-0.8625919818,2.763740042526938,
1970-01-01 00:00:25.000,4.701298237,-9.277720928,7.9800634385,-2.5275332930000003,0.06551336497,1.00026238,-15.85999966,0.9760000109999998,-47.75079918,2.0355722905,-2.3678781984999997,1.4633727075,2.7190515583667003,
1970-01-01 00:00:25.100,3.0206394195,-7.992177248,7.085895538499999,-1.545672655,-0.3373403922,0.1854684948699999,-17.256899835,10.6566996585,-45.194900515,0.58996438975,-0.2154083255,1.7732791899999998,1.5928907869699485,
1970-01-01 00:00:25.200,3.9243786335,-10.8649101245,7.1337521075,0.2664057687,-0.1311794561299999,-0.24044475706,-18.54399967,20.563099865,-41.949699405,0.7211149933000001,-2.3286728859999997,2.573915243,0.38209130388539714,
1970-01-01 00:00:25.300,3.0315567255,-6.592675208999999,5.6516976355,1.1211337744,-0.2194468676999999,-0.16355435924,-19.129599575,26.717999455,-39.51579857,-0.4475785492499999,0.8086619374499999,0.43113207816,1.1540571460158022,
1970-01-01 00:00:25.400,5.5477592945000005,-6.828517675499999,7.357630491,1.6272971035,-0.32413081825,-0.3025221042,-20.03240013,28.029499055,-38.60079956,1.50850617885,-0.08589482305,0.67413949955,1.6866168130101453,
1970-01-01 00:00:25.500,4.629513741,-7.9190468785,8.2601730825,2.0538212060000003,0.7285117211000001,-0.74790611865,-21.386599545000003,24.43659973,-39.631698605,1.49075007419,-2.8337233069999996,1.1083431243500002,2.3039692785081765,
1970-01-01 00:00:25.600,2.279761851,-3.3511481285,6.360571146,2.2266910075,1.3808965685,-0.5506024361,-22.4296999,16.29920006,-42.16319847,-0.539890885314,-0.4391010999649999,-2.227261782,2.6773477955648,
1970-01-01 00:00:25.700,0.5703890772999999,-0.61465629195,4.676173568,0.84923042355,0.1630198583,-0.34680852295,-20.54479885,6.770999908,-44.78619957,-1.1871420145,0.8313364980500001,-4.2288069725,0.9316887560091219,
1970-01-01 00:00:25.800,2.075025916,-0.9856933653,7.7466135025,-1.6117205019999998,-0.7720345854499999,0.1684411279599999,-18.519599915,-1.3236999365,-46.78089905,-0.931532681,1.1764064431,-1.7422165870500002,1.7950077412887449,
1970-01-01 00:00:25.900,1.782952011,-4.7385364775,6.2407803535,-2.41361022,-0.5736619383,0.7485933303500001,-17.006799700000002,-4.489599943,-47.93989754,-1.3643877508,-0.3179558515499999,-2.016637564,2.591330601792652,
1970-01-01 00:00:26.000,4.204488516,-9.2621674515,7.417450905000001,-2.5129493475,-0.21272755415,1.131823659,-16.787199975,-1.03089994195,-47.366498945,0.8941816091999999,-2.4611747265000004,0.5528669358999998,2.76427065072642,
1970-01-01 00:00:26.100,3.462414384,-9.1820080285,7.7167034145,-1.5197116135,-0.2518981397,0.2872509211499999,-17.83030033,8.039799929499999,-45.207098005,0.6241965294,-1.5361375807200002,2.5652477745,1.5670000487213194,
1970-01-01 00:00:26.200,2.9476584195,-9.700203894,6.378367901000001,0.2021140903,-0.1065164921,-0.21540001035,-18.781900405,18.40369892,-42.29739952,1.0138021708,-1.3581180574849998,1.896841049,0.31399527551519946,
1970-01-01 00:00:26.300,3.5497523545,-7.667800188,5.9007008075,1.106473446,-0.1576749533499999,-0.129881400605,-18.848999975,25.638299945,-39.87569809,0.55098164079,0.057569980642,0.7792429924,1.125172900420267,
1970-01-01 00:00:26.400,4.5888357165,-6.832106828500001,6.832106828500001,1.658373952,-0.1701973155,-0.4304946213999999,-19.16619873,28.224699020000003,-38.60079956,1.0940002201,0.0116398334499999,0.49965834616,1.7217714453230528,
1970-01-01 00:00:26.500,5.515306711500001,-6.5998532775,8.044819355,2.163468361,0.74676077045,-0.9806388916,-20.22149944,25.748099325,-39.07049751,1.91151058685,-1.6310117245,0.6627440453,2.4899597653475407,
1970-01-01 00:00:26.600,2.6569304465,-4.597360015,7.401897669,2.033663213,1.4392325279999998,-0.70468866825,-20.76439953,19.013700485,-40.95540047,0.2936210632,-1.4348385334999998,-1.7576899524999998,2.5891625002542256,
1970-01-01 00:00:26.700,1.1533405185,-1.1868400277000002,6.182006836,0.5671716555599999,-0.0044286399999999,-0.3134409934,-20.16660023,10.3882994655,-43.285598755,-0.9735479353,0.75948935745,-2.803703785,0.6480343787689814,
1970-01-01 00:00:26.800,1.0012467203000002,-1.0277173219,4.4261238575,-1.28888773895,-0.81509929895,0.3642176613,-18.556199075,2.18989995105,-45.182699205,-1.6447744965,1.194573164,-4.7540071015,1.5678880621929827,
1970-01-01 00:00:26.900,3.350998521,-3.0038897395,7.86984396,-2.306559205,-0.6178719771999999,0.8943567276000001,-18.55620003,-1.7263000009999998,-46.170898435,-0.0644950866999999,0.92469930665,-0.7190628052000001,2.549873546390615,
1970-01-01 00:00:27.000,3.0794130565,-8.8491067885,7.6724362375,-2.3778756855000003,0.11323581172,1.199780345,-19.330899235,0.1342000365000001,-45.768299105,-0.21384751795,-2.9920840265,0.32886433601,2.6658184486187917,
1970-01-01 00:00:27.100,4.252494335000001,-8.911320209500001,7.3516483305,-1.5362808705000002,0.0005344916099999,0.12537639586,-20.361800195,7.338299989499999,-43.858999255,1.988200903,-1.2901186944999998,1.726651192,1.5413884777642406,
1970-01-01 00:00:27.200,3.674328804,-8.710323334000002,7.163662433499999,0.07941015065,0.0098499134199999,-0.47233766315,-20.794898985,16.305300235,-41.071300505,1.8200786115,-0.40774250031,2.0021262170000003,0.47906769965281526,
1970-01-01 00:00:27.300,2.2664517165,-8.412267208,5.778666735,1.05012279765,-0.080097345185,-0.22395187245,-20.495999335,23.25929928,-39.235198975,-0.5366220473500001,-0.6558244230000001,0.5210990905,1.076720909067809,
1970-01-01 00:00:27.400,5.569294572,-8.159674882500001,7.3648090365,1.487642169,-0.0419193897199999,-0.5244887172999999,-20.16049957,26.053099635,-38.60079956,2.7227234840000003,-0.95608282093,1.427301884,1.5779495786610296,
1970-01-01 00:00:27.500,3.8167016505,-6.847809553,6.881159781999999,2.267006874,0.5674770921500001,-0.85480439665,-20.64239979,23.948599815,-39.58899879,0.115908503525,-1.5469276905,-0.7576298714,2.488381195357826,
1970-01-01 00:00:27.600,3.49232471,-4.579264164,7.567152023499999,2.232723117,1.2954543235,-0.8283852338500001,-20.508199695,17.305699345,-42.102199555,0.8785985707999999,-1.4400527475155,-0.40319108975,2.7109917958418386,
1970-01-01 00:00:27.700,0.8074280919500001,-0.6541379092499999,7.417451142999999,0.3323009014,-0.2235700897849999,-0.2440334837699999,-19.00150013,7.789699793,-44.81060028,-1.818958342,0.57646790145,-2.6363072395,0.4689987370117837,
1970-01-01 00:00:27.800,0.9174979032,-0.6756732973649999,3.923182368,-1.7445034385,-0.95086008315,0.53365142645,-17.20810032,-0.93329995865,-46.9151001,-2.01585912705,1.44920873625,-4.9824416634999995,2.0572338198703783,
1970-01-01 00:00:27.900,3.3641591075,-3.846761465,7.508527755999999,-2.3962774280000003,-0.453783156365,1.045006931,-16.421199795,-5.1545000075,-47.88500023,-0.10456645485,0.35508584975,-0.534131765585,2.6533194588629763,
1970-01-01 00:00:28.000,2.5921746495000004,-9.4896357065,6.43699193,-2.3427519795,0.036803551,1.1614497006,-16.561500549999998,-2.6596000195,-47.262800215,-0.49919879435,-3.1107094285,-0.2530987260499999,2.615111230108809,
1970-01-01 00:00:28.100,5.0449674125,-7.913064479999999,7.9800636765,-1.804442763,-0.1890572309,0.5891621709,-17.665599825,5.965799927500001,-45.04239845,2.6240266563000003,-0.33886599545,2.4849915505,1.9075818161007538,
1970-01-01 00:00:28.200,2.77776792625,-8.5271224975,7.923832178,-0.33466793595,-0.0647498146,-0.3523061573499999,-18.757499695,16.500500205,-42.16930008,0.1915988925,-0.43372917175,2.917422533,0.49021912891123554,
1970-01-01 00:00:28.300,3.042324424,-10.077372551,6.27667284,0.93849048005,-0.169051975,-0.3940728455999999,-18.9222002,24.168199540000003,-39.881799695,0.10037362575,-2.508019924,1.021751404,1.031812172362374,
1970-01-01 00:00:28.400,3.73773849,-6.3689460755,6.0420267585,1.2721657755,-0.1930277310549999,-0.3195494786,-19.14789963,27.05349922,-38.759399415,0.2982455491999999,0.5623767376,-0.3876359463,1.32581195294932,
1970-01-01 00:00:28.500,5.1837511065,-6.6514487265,8.1321573255,2.1845425365,0.17401511225,-0.8786274195,-20.34959984,24.82089996,-39.363298415,1.394466757855,-0.99471712115,0.7784645556700001,2.3610365298670124,
1970-01-01 00:00:28.600,3.5042887925,-5.028217554499999,7.4630644325,2.465837717,1.480617404,-0.6152758896,-20.154398915,17.970599175,-41.97410011,0.74805390845,-1.8050305845,-1.03965616217,2.941283387219012,
1970-01-01 00:00:28.700,0.23763719205,-0.4938187897499999,5.3502019645,0.8872556538999999,0.46607647101,-0.3878879993999999,-18.92829895,8.497299673,-44.77399826,-1.930648744,0.8847777247499999,-3.4811270234999996,1.0746659817288282,
1970-01-01 00:00:28.800,1.1748759451000002,-1.0313065944,4.988586426,-1.06989896285,-0.690639168,0.21715620347,-17.470398905,0.0426999925,-47.140800475,-1.5808467265,1.125599027,-4.749475479,1.2918293493293693,
1970-01-01 00:00:28.900,3.1799116135,-2.8782665730000003,7.875826120499999,-2.1303297875,-0.7920398414,0.8149466215000001,-16.293100355,-4.1907000545,-48.38519859,-0.41612231745,0.98513734345,-0.423367261887,2.41449168765788,
1970-01-01 00:00:29.000,2.970539808,-10.0881404865,6.964908599499999,-2.7417879105000003,-0.0732253123279,1.2094012495,-16.097899435000002,-1.6042999105600002,-47.811798095,0.17121326925,-3.5779316424999994,0.1386513709999999,2.997568060081645,
1970-01-01 00:00:29.100,3.5760735275,-7.372137069500001,6.182006836,-1.8412463665,-0.095979377615,0.3585673532999999,-17.04339981,6.874699830999999,-45.26809883,1.6716171505,0.6129789354999999,1.320425749,1.8782893200807436,
1970-01-01 00:00:29.200,3.7700417045,-9.963563921,8.2770724295,0.0242811888499999,-0.19386764245,-0.14377817135,-17.964499475,17.208099365,-41.900899890000005,1.0102959875000002,-2.145803928,3.874330282,0.242582772425909,
1970-01-01 00:00:29.300,2.4498016834999996,-8.305786371,5.210072279,1.0572239159,-0.0926197170949998,-0.23815408345,-18.31220055,24.985599515,-39.19859886,0.06504833695,-0.2994585039499999,0.25361418725,1.0876663954584596,
1970-01-01 00:00:29.400,5.6313582655,-7.1410799025,8.2817089565,1.6005725265,-0.36055259405,-0.2075353516199999,-18.678199765,27.98680019,-38.009098050000006,1.7193330525,0.1853992939,1.5969374178000002,1.6537537627575678,
1970-01-01 00:00:29.500,3.306880951,-7.9310107235,7.5287175175,2.2636471985,0.61168718335,-0.9478822349,-19.727399825,25.754199985,-38.594697955,0.224592328095,-2.5443041325,0.0081980228499999,2.52917784680923,
1970-01-01 00:00:29.600,2.8196424245,-3.7461134195,7.012914419,2.2911354305,1.408842802,-0.7024743556999999,-20.04459953,18.720899585,-40.772399905,0.2051551341999999,-0.4593858719,-1.567785978,2.7798578780318537,
1970-01-01 00:00:29.700,0.74865438055,-0.4627120793,6.1247286795,0.643756659645,-0.0284043997499999,-0.27549211309,-18.781899449999997,9.131699802,-43.74309921,-1.805494428,0.7621833684499999,-3.704485178000001,0.7008033612485313,
1970-01-01 00:00:29.800,1.3257732990000002,-1.43943241965,4.873731136,-1.5988163355,-0.7799755931000001,0.3465794548499999,-17.354499814999997,0.6527000068,-46.219697955,-1.26717793965,1.01014101495,-4.1029977795,1.8123721800495254,
1970-01-01 00:00:29.900,2.656780839,-3.4827532765000004,6.9014987945,-2.4368988275,-0.7013289928,0.9314657153,-16.59200001,-3.12319994,-47.354299545,-0.7835924627499999,0.50964570045,-1.6889955995,2.701474899086067,
1970-01-01 00:00:30.000,2.7548866275,-9.4465646755,6.206084728,-2.4124649765,0.1830251105049999,0.97682112435,-16.866498945,-0.34769994,-46.70159912,-0.14807033538,-3.118162632,-0.60949087165,2.609150237700181,
1970-01-01 00:00:30.100,5.625376462999999,-10.672288416,10.4328560845,-1.463284612,-0.31435728075,0.1372879296499999,-17.946199415000002,8.326499701,-44.615400315,3.13691234575,-2.76072192195,4.6317787175,1.502953868654693,
1970-01-01 00:00:30.200,2.07622236,-8.5835032465,7.4306116105,0.56182676555,-0.0685676037999999,-0.3505499661,-18.95269966,18.257299425,-41.846000669999995,-0.3059545755,-0.50035429015,2.9588840005000003,0.665759798660117,
1970-01-01 00:00:30.300,2.9992536305,-7.871190070999999,5.7882380485,1.1777898665,-0.153169948615,-0.037108970795,-19.41629982,24.76599884,-39.62559891,-0.1640572548,-0.4017448425,0.14572882655,1.1882874561747563,
1970-01-01 00:00:30.400,4.500301361,-7.340880871,6.6167526245,1.6158437129999998,-0.1841704426549999,-0.45920443535,-19.855499270000003,26.376399995,-38.741100315,1.3628919125,-0.60215759275,0.191870689375,1.6898930055581853,
1970-01-01 00:00:30.500,4.1913279295,-6.870392084,8.006384611,2.3541290759999995,0.70117628575,-0.7718818784000001,-21.00839901,22.58829975,-39.51579857,0.68952214717,-1.5256066324000002,0.1697173116999999,2.574756983555747,
1970-01-01 00:00:30.600,2.9141589405,-3.624079465999999,7.198507786,2.1947742105,1.3013337255,-0.615046829,-20.800999645,14.48749924,-42.333999635,0.1478677988,-0.8312402966,-1.64483356475,2.624649672253911,
1970-01-01 00:00:30.700,1.2059825959,-0.4064807295999999,5.994170189,-0.0858240425499999,-0.2165453489849999,-0.079104721545,-18.87339973,4.0931000115,-44.365299225,-1.0419055223,1.051962375885,-3.181568384,0.24599839718455807,
1970-01-01 00:00:30.800,1.63325095175,-0.78948193241,5.1107701065,-1.978305161,-0.9281824233,0.3930802047,-16.445600035,-4.611599922,-46.061100005,-0.7918444276850001,1.6569975617,-4.7114071845000005,2.220298621422193,
1970-01-01 00:00:30.900,3.160769224,-5.141876817,7.8566834925,-2.6361113785,-0.38491012155,0.7200362086500001,-14.65829992,-8.0946998595,-46.3355999,-0.0707880258499999,-0.0516444445,0.605618,2.7596541709598092,
1970-01-01 00:00:31.000,2.4388844965,-8.924480438,6.246762514,-2.335803509,0.31199024618,1.05546769505,-13.7798996,-4.6054998635,-45.414499285000005,-0.5999121665,-2.3505187034999997,-0.5019233224999999,2.582116961266923,
1970-01-01 00:00:31.100,5.6733824015000005,-9.831958293,9.2835536,-1.0009495617,-0.0988045409449999,0.0099262744499999,-14.322799685,4.73969996,-43.48690033,3.1332802775,-1.8363144395,3.18784427665,1.0058632577558597,
1970-01-01 00:00:31.200,1.94102782,-8.838488579,5.989384651,0.7282062768500001,0.032451272,-0.35604758565,-14.890099525,15.195099355,-41.07740021,0.19802892205,-0.806886196045,1.5285160541,0.8112381585855974,
1970-01-01 00:00:31.300,2.6986553669999997,-8.030462265499999,5.605186939499999,1.0434798,-0.1748550236,-0.3665083647,-14.64609957,22.490698815,-39.03999901,0.021836996079,-0.46708703065,0.0745904444499999,1.119711013467879,
1970-01-01 00:00:31.400,6.4263737205,-7.575527190999999,7.4832537175,1.501615226,-0.6435275972000001,-0.5767161697500001,-15.274399755,25.034399035,-37.832199095,2.76130771655,-0.70263957995,1.0201909543499998,1.732506160382741,
1970-01-01 00:00:31.500,3.614508152,-6.7196443079999995,8.260173321,2.0519886014999997,1.1630531847,-1.0316446425,-17.15929985,22.67369938,-38.35680008,0.0069774389999999,-1.50405645355,0.88713169119,2.574420439540847,
1970-01-01 00:00:31.600,2.592174649,-3.634847045,6.3665533065,2.1169674995000003,1.3553173545,-0.4355340897999999,-16.72009945,16.29920006,-40.61989975,0.2117272614999999,-0.5690471530000001,-2.5148708825,2.5511029906152505,
1970-01-01 00:00:31.700,-0.05443671345,0.04965108635,5.348855734,0.7940250711999999,-0.0606266111,-0.201732312325,-16.006400105,7.783599615,-43.340499875000006,-2.5087029935,1.01102721675,-4.3368303775,0.8214909162636108,
1970-01-01 00:00:31.800,2.3060828147,-2.0726330875,6.940980196,-1.6327947975,-0.97063627845,0.5157841593,-14.41429949,0.7563999592500001,-45.71339989,-0.9819254279,0.608805537405,-2.6901490686500003,1.9682954388940548,
1970-01-01 00:00:31.900,2.508425951,-4.7624647620000005,6.845267296,-2.388641834,-0.56167405845,0.8164737226000001,-14.060499665,-1.5005999805,-46.79919815,-0.64306390285,0.0527400970499999,-0.4705095291,2.586062044647591,
1970-01-01 00:00:32.000,2.9321050645,-8.777471542,6.486194372,-2.522341132,0.08758022449,1.0839484335,-14.4508996,2.20209994905,-45.49379921,-0.034884691,-1.749901533,-0.041455746,2.746783444028281,
1970-01-01 00:00:32.100,4.3374397755,-11.5820093155,8.829964161,-1.5385715367,-0.4222481698,0.1230093613,-15.860000135,11.1385993935,-42.88299942,2.0480949875,-3.7904789445,3.4470744135,1.600195985937436,
1970-01-01 00:00:32.200,3.1932219264999997,-6.834499836,6.5723359585,0.48913592845,-0.1127776728189999,-0.2048629001,-16.890899660000002,20.666799545,-39.747600559999995,0.45463943495,1.6691448685,2.382016182,0.5421637832099221,
1970-01-01 00:00:32.300,3.6432220935,-10.0773725525,6.7304120065,1.237958312,-0.2697654217499999,-0.093154204799,-17.15929985,26.742399215,-37.496698375,0.4648399355000001,-2.21159029,1.25626087205,1.270429797703745,
1970-01-01 00:00:32.400,3.448057413,-6.4431235795,5.2136614325,1.445111871,-0.01687465605,-0.5202127844,-17.909599305,28.249098775,-36.575597765,0.4900054929999999,0.0101914405999999,-0.76455950755,1.535986463083294,
1970-01-01 00:00:32.500,5.3358448745,-5.9931235315,8.5378904345,2.2742607594999997,0.60932013395,-0.8284616171999999,-19.22109985,24.91849899,-37.86269951,1.6414387228,-0.322741985,0.9135861398,2.4959730926057677,
1970-01-01 00:00:32.600,2.7177978155,-6.0001523495,8.627621174,2.031525254,1.1634349823,-0.7953231335,-19.47729969,17.69609928,-40.4917984,0.1293913725,-2.9598233699999996,-0.2243618965,2.472491598036164,
1970-01-01 00:00:32.700,-0.4351946264499999,1.05044910315,3.4911282065,0.37139512595,-0.04337015745,-0.195471130325,-18.373200415,8.6497998215,-43.322200775,-2.81224823,2.3387793305,-6.410053968,0.421929227391499,
1970-01-01 00:00:32.800,2.5634607075,-1.822433591,7.294070959,-1.4743561745,-0.7506549358500001,0.3665083497499999,-16.829898835,0.98820003885,-45.237600325,-0.47732138635,0.6181567907,-0.923042059,1.6945611031882888,
1970-01-01 00:00:32.900,2.33001101,-6.8561844825,7.000800609500001,-2.549294591,-0.50853034485,1.132968962,-16.22599983,-1.9214999675,-46.055000305,-1.13642811795,-1.49415385745,-0.0672991275000001,2.835687692992738,
1970-01-01 00:00:33.000,4.3579283955,-5.214858055,7.490432262500001,-2.385358572,-0.0191653315,1.1470948454999998,-16.47609997,1.756799938265,-45.24979973000001,0.9961320164,1.82423377038,0.547806025,2.646909407501143,
1970-01-01 00:00:33.100,2.7752256395,-12.3732857695,7.7633636005,-1.1503781078,-0.0262664295649999,0.12300936505,-17.238599774999997,10.583499909,-42.77319908,0.3443705439999999,-4.170845985550001,2.19040942215,1.1572342114358725,
1970-01-01 00:00:33.200,3.2816067935,-9.003593205000001,5.6554362775,0.27900448816,0.09872819483,-0.3312319368499999,-17.635099410000002,20.28859997,-39.668298725,2.4036289455000004,-2.2323918340000004,1.6538341043,0.44419067623850045,
1970-01-01 00:00:33.300,1.516002751745,-6.318696737,4.497908354,1.3018682,-0.24082653783,-0.0061848294,-17.45209885,26.986399650000003,-37.234399795,-1.34907734406,1.77185130145,-1.1242392062,1.3239699708109438,
1970-01-01 00:00:33.400,6.7256262305,-8.389535427,9.087342262500002,1.7015150785,-0.18012357505,-0.63650286195,-17.464300155,28.657798765,-36.435298919999994,3.2337948085,-1.25774884245,2.7367129325,1.825577705254475,
1970-01-01 00:00:33.500,4.1890846495,-7.126573324,7.915307759999999,2.0331286785,0.8196043373999999,-0.7026270628,-18.330499645,25.528499600000004,-37.72239876,1.2053421735154,-2.1068139076,0.5431408879999999,2.3019661775540934,
1970-01-01 00:00:33.600,1.7709878085,-4.193870305999999,4.3733320235,2.057486236,1.2013074755,-0.4592807739999999,-18.42199993,18.726999285,-40.79679871,-0.8625328540499999,-0.9434432984,-4.0708663465,2.4263816870780386,
1970-01-01 00:00:33.700,1.4669498803,-0.3548855111,6.9349982735,0.4597389402,-0.241208311877,-0.0709346365,-17.17149925,9.552600148,-43.993198395,-0.6302601099999998,1.695975423,-2.299584866,0.5239971999067918,
1970-01-01 00:00:33.800,0.86709910635,-2.249851465,7.078717232,-1.5649143455,-0.6245149672,0.39155310395,-15.988099575,1.53110002744,-46.256298065,-1.537828803,-0.17899167535,-1.8243982795,1.7298235997411384,
1970-01-01 00:00:33.900,1.8116657735,-1.3915759625,4.540979147,-2.28853929,-0.4713450073999999,0.6365028322,-15.02429962,-2.2143000365,-47.42749977,-0.8910716772250001,2.5306898355,-4.094418526,2.4217171703717244,
1970-01-01 00:00:34.000,3.4061830045,-8.242376565,6.7411797045,-2.5951082705,-0.0248156711499999,0.8238802253999999,-15.12799978,-0.1403000354999999,-47.012699125,0.9202220438,-1.36144757295,-0.01390242575,2.7228627176112425,
1970-01-01 00:00:34.100,5.151447892,-13.50209999,9.3339526665,-1.696933687,-0.0845259921749999,-0.1667613089499999,-16.03689909,7.783599856,-44.77399826,2.900218129,-5.9675865175,3.099514961,1.707201779401398,
1970-01-01 00:00:34.200,1.87402881695,-4.554289341,5.2340004444999995,0.20738264544,0.0224486366,0.03428380238,-17.031199455,17.994999404999998,-41.63249779,-1.2134287359,3.9707548615,0.9944813252,0.21139271988534164,
1970-01-01 00:00:34.300,3.519842088,-9.292078257,6.9877898695,1.2810230255,-0.182643335335,-0.2086043358,-17.18369961,25.77859974,-38.783798219999994,0.8289719219999999,-0.8308098314,1.8074302674,1.3106846869930333,
1970-01-01 00:00:34.400,3.639632702,-9.6405327335,6.571139574,1.473363638,-0.1788255423,-0.3495573401,-17.25689888,29.22509956,-37.392999645,0.8161814212499998,-3.0281748774999997,1.1681401728,1.5247850072640636,
1970-01-01 00:00:34.500,4.7096731665,-5.364558935,6.41186738,1.7855065465000002,0.0622300654649999,-0.60657133165,-18.06209946,27.767199515,-37.954198835,1.5755560399,0.94216275195,-0.77209472655,1.8867524980828274,
1970-01-01 00:00:34.600,3.658625722,-4.3890349865000005,8.020741463,2.213023305,1.0127847495,-0.80502033235,-18.58669949,21.47199917,-40.296598435,0.4728764297399999,-0.36047232175,-0.5219497680999999,2.5634474507564624,
1970-01-01 00:00:34.700,1.9769201875,-4.966004372,8.461170196000001,1.3399698140000005,0.74844059345,-0.50807219745,-17.83639908,12.87709999,-43.46859932,-0.3001182079,-2.397576094,0.1935672757999999,1.6167312028215004,
1970-01-01 00:00:34.800,-0.1610668898,0.54646089103,3.0349963310000003,-0.2872509211,-0.2680855840499999,-0.2161635672755,-16.884799955,4.495699882499999,-46.347799304999995,-2.7516536715,2.8709343675000003,-6.278077125499999,0.4484525168459841,
1970-01-01 00:00:34.900,2.92612299325,-3.2937203645,7.556234836,-1.7963491084999998,-0.8923715055,0.5289173871499999,-15.652599335,-1.06749995075,-48.00699806,-0.6872440575,1.0341898204000002,-1.209895134,2.0743554723977913,
1970-01-01 00:00:35.000,3.0290144084999997,-8.249405621,8.608478781999999,-2.6661192179999995,-0.1497339382999999,0.8519028424999999,-15.487899305,-0.5916999876499999,-48.135099409999995,0.2720376254999999,-2.24307537105,1.2925887108,2.8029181918007056,
1970-01-01 00:00:35.100,2.7106194495,-6.300601244,5.2842497825,-2.2209643125,-0.10888352245,0.7080482989,-15.9758997,6.045099735,-46.65889931,0.29793572425,1.027088165,-0.837414741555,2.333638895038155,
1970-01-01 00:00:35.200,4.99576520915,-11.555688382,8.140532017,-0.7981483042999999,-0.35261159015,0.0113770365499999,-16.86649895,15.939299585,-43.846797945000006,1.3885906337000002,-2.4438443184,4.245597124,0.872642587847818,
1970-01-01 00:00:35.300,2.2773689030499997,-9.7099246975,5.9642601015,0.89153155665,-0.2450261115999999,-0.1572168134049999,-17.470399855,24.613498685,-40.766298295,-0.5138328077000001,-1.948666572475,1.6148426535,0.9378610975436663,
1970-01-01 00:00:35.400,3.5688949825,-6.8705415725000005,6.0755262375,1.387615919,-0.2921377048,-0.0759741272799999,-17.77540016,28.8895998,-38.753299715,0.26569902895,0.8224430083000001,0.4502694606999999,1.4200684649846935,
1970-01-01 00:00:35.500,6.850053071,-7.094270468,10.255638125,2.165682554,-0.0663532763499999,-0.60848021505,-18.842900275,27.92579937,-38.478799820000006,3.52398109425,-0.632485628,3.562645912,2.2505181301401764,
1970-01-01 00:00:35.600,3.382105231,-7.226025343,7.459325552,2.117120266,1.192526579,-0.7505022287,-20.16660023,21.898999215,-40.24779892,0.6839654445500001,-3.070186615,0.2866206170000001,2.543142044324898,
1970-01-01 00:00:35.700,-0.0233300216399999,-0.7882854789,4.002295017,1.4050250649999998,0.75080761295,-0.46706907455,-19.574899675,13.267499445,-42.974498745,-2.5068132875,1.71414077305,-5.0476908685,1.6601087390116722,
1970-01-01 00:00:35.800,1.3724333645,-0.5464608520500001,6.8536422255,-0.38177954405,-0.30710346625,0.08628218249,-18.013299945,4.11139977,-45.65239905999999,-0.8619816302000001,1.0919030906,-3.1117546555,0.4975065569950093,
1970-01-01 00:00:35.900,2.353939295,-2.5227828025,7.284499883499999,-2.2944951060000003,-0.7186618149,0.7458445132,-16.567599295,-1.585999906,-47.07979965,-0.59993457795,0.9673964382,-1.5527851579999998,2.5174325479591024,
1970-01-01 00:00:36.000,1.4813067318000002,-7.290631533,6.212066650500001,-2.3939868215,0.176534859485,0.9334509671,-15.921000005,-1.02479995805,-46.98220062,-1.09461402905,-1.02060484865,-1.6718785765500002,2.575590838256144,
1970-01-01 00:00:36.100,3.6587752105,-10.520194055,8.736644268,-2.2321885825,-0.051005749045,0.6268056483000001,-15.73189974,5.2642998695,-45.15219879,1.24973446125,-3.3343729975,2.515827179,2.3190844691428953,
1970-01-01 00:00:36.200,2.960818827,-7.539634466000001,7.1361448765,-0.39651622625,-0.18462858721,-0.1401894464999999,-15.975900175,15.02429962,-41.967998505,1.1247225999,0.68296957,2.4420075415,0.4593102587627214,
1970-01-01 00:00:36.300,3.8216367958,-11.5329566,6.803243398999999,1.03584420665,-0.141258426,-0.3193967565999999,-16.02469969,23.47280025,-38.78989792,1.429701507,-3.556333065,2.3335645198,1.0931337756619566,
1970-01-01 00:00:36.400,3.375076413,-6.766453743,6.0420267585000005,1.3657017945,-0.2857238053999999,-0.1721825671705,-16.103999615,27.54149914,-36.874498365,0.5664471385500001,0.4753444194499999,-0.1523597240499999,1.4058543028743062,
1970-01-01 00:00:36.500,4.4008494615,-7.0117180349999995,8.2051384465,2.5785388945000003,0.1964637525499999,-0.8416711688,-17.24469948,27.004698755,-36.71589851,1.219049095942,-0.7135858536,0.5385143754999999,2.719535106025379,
1970-01-01 00:00:36.600,4.5349971055000005,-6.28041172,8.7029953005,2.4271252155000003,1.4003673195,-0.8457943797,-18.354899405,21.2645998,-38.78379822,1.527134061,-2.7866829634999997,-0.10503435135,2.9270007813411403,
1970-01-01 00:00:36.700,-0.38479579054,-1.0827522429,4.5504009725,0.97170525815,0.406213417645,-0.39941775795,-17.909600259999998,12.0840997685,-41.82159996,-1.9848676325,0.439195036875,-4.481594801,1.1263902497611535,
1970-01-01 00:00:36.800,1.0120144187,-0.7296613604,5.795416474,-1.0799779592499998,-0.7029324770000001,0.2034884989,-16.689599039999997,2.702300042,-44.475099565,-1.356768191,0.9786230325,-3.6995260715,1.3045589403594324,
1970-01-01 00:00:36.900,1.781755626,-1.9374385475,6.6514487265,-2.381311655,-0.6604786216999999,0.6848361343,-15.71969938,-3.5135998725000004,-46.390499115,-0.5652846099,1.2175913451,-1.8562383655,2.564347429426157,
1970-01-01 00:00:37.000,2.512015104,-6.3629641535,7.371838093,-2.509131432,0.088649207735,1.03217917675,-15.35979939,-3.23300004,-46.750398635,-0.2764845490000001,-0.37938404085,-0.8154096606,2.714588933521745,
1970-01-01 00:00:37.100,3.3079277275,-11.255239485,7.905885935000001,-2.149800539,0.030389647955,0.302751179785,-15.896599769999998,3.3976999520000004,-45.32299805,1.32336574805,-3.7706253525,1.6524982455,2.1712264195722955,
1970-01-01 00:00:37.200,2.70224452,-8.1849491595,7.313363314,-0.24082653225,0.0238993949949999,-0.28030253945,-16.585899355000002,13.474899295,-42.712200159999995,0.8610808255,0.083353043,2.450102091,0.37032163498613757,
1970-01-01 00:00:37.300,2.553739905,-10.089336396,6.2419769765,1.3043879865,-0.2648786455499999,-0.3131355792,-16.665199280000003,22.344299315,-40.04649925,0.39194083212,-1.896982193,1.54123592355,1.367348751107356,
1970-01-01 00:00:37.400,3.6466616395,-6.8561847205,5.9187963005,1.4622156025,-0.3362714052,-0.342456240185,-16.60419941,26.66309929,-38.47270012,0.8951807024,0.7094626426499999,-0.1491954327,1.5389701759914864,
1970-01-01 00:00:37.500,5.3238809105,-6.810571432,9.263214825,1.7348062395,0.405144438155,-0.8507575393,-17.598499295,26.14459991,-38.36899948,1.92207539075,-0.72129559505,1.52031731595,1.9742044207862197,
1970-01-01 00:00:37.600,2.312064946,-7.626972675,6.6801626679999995,2.309002638,1.225512266,-0.5975613594,-18.86119938,21.03889942,-40.15019989,-0.0609135627999999,-2.8471848965,-0.75469422315,2.6815020183948004,
1970-01-01 00:00:37.700,1.01680004605,-1.939831376,6.5448184015,2.079553127,0.9403229952,-0.31153210995,-18.781899455,12.66969967,-42.95009804,-1.1053357723,0.3644478321000001,-3.307217121,2.3034323951111038,
1970-01-01 00:00:37.800,1.20598261075,0.3489034771999999,5.9606707095,-0.0204633772499999,-0.34008921685,-0.01336228845,-17.35449982,3.98939991,-45.35349846,-1.3503267170000002,1.809947907955,-3.5794041155,0.3409662387667482,
1970-01-01 00:00:37.900,1.885843337,-2.1492034195,7.137341499500001,-2.019919157,-0.70545223355,0.60221904515,-15.98810005,-1.78729999045,-47.037099835,-0.8588489295,1.2394614814999998,-2.33585763,2.222701966746251,
1970-01-01 00:00:38.000,2.9596226215000003,-7.4235827925,7.696364641000001,-2.5886943340000004,-0.06421531735,0.90649735925,-15.530599595,-2.2386999725,-47.01269913,0.3192287683499999,-1.20282816865,0.3116667270699999,2.743574206066475,
1970-01-01 00:00:38.100,2.679512739,-9.3758268335,6.9195945265,-2.4193369149999997,0.1501920819,0.7091172933500001,-15.536699769999998,3.4891999365000004,-45.34129906,0.5386732819,-2.4551665785,0.42305207254,2.5255882691910023,
1970-01-01 00:00:38.200,2.996711254,-9.1556873325,7.001997232500001,-1.048213884,-0.1640124916999999,-0.18676654995,-15.8355999,13.291899685,-42.779298780000005,1.0772542952,-0.5768113135,2.7267861365,1.0772809235404819,
1970-01-01 00:00:38.300,2.8124639985,-9.4932246225,7.552645445,0.7870766818499999,-0.1177408098999999,-0.3640649616499999,-15.811200145,22.106399535,-40.223400115,0.65508925915,-1.03548955909,2.7210989000000003,0.8751547850118456,
1970-01-01 00:00:38.400,2.601745963,-7.798208713499999,5.3548378945,1.2701805235,-0.23204560575,-0.150192072635,-15.54279947,26.644800185,-38.7105999,-0.32189428805,-0.5430955886650001,-0.4648089409,1.29990822141758,
1970-01-01 00:00:38.500,4.5948176385,-6.689733982000001,7.705935955500001,1.7133501765,-0.12430742385,-0.6698703617,-16.31139946,26.467899325,-38.399497985,1.80197906505,0.02426338195,0.81449532515,1.843840411863482,
1970-01-01 00:00:38.600,3.964009881,-6.135496377999999,8.4756770135,2.3298478124999997,0.7831061780499999,-0.55907793345,-17.35449982,21.50249958,-39.881799695,0.7554804085,-1.6125907895,0.2048864363999999,2.520717011324721,
1970-01-01 00:00:38.700,1.6284653545,-3.918546080500001,6.9853971005,1.8759120105,0.92230299125,-0.3887279332,-17.09829998,13.2796998,-42.211997985,-0.74287939055,-1.4989567993314998,-1.695212841,2.1262168480323904,
1970-01-01 00:00:38.800,-0.1383350547199999,0.5811567902500001,4.1279182435,-7.635355000001898e-05,-0.1365243606,-0.0010689795,-15.994199275,4.1235999465,-44.072500225,-2.105066538,2.0512421725,-5.3991606235,0.13652856691650597,
1970-01-01 00:00:38.900,2.2293629050000003,-1.57716918015,7.35987401,-1.7987161875000002,-0.6966712772999999,0.4282039254999999,-14.80469942,-2.7571999430000007,-45.207099915,-0.3325787187499999,1.181607604,-2.3102602959,1.9758768670144804,
1970-01-01 00:00:39.000,2.118096769,-5.8398330210000005,7.382755040999999,-2.6019803285,-0.1379751265,0.9872818888,-14.12759972,-4.288299799,-45.201000215,-0.7469267843,-0.8451399805500001,-0.5147490500999999,2.786407058092222,
1970-01-01 00:00:39.100,2.90817678,-8.9629154205,6.860671282,-2.2564697265,0.20142687858,0.78684765105,-14.34109974,0.5062999724999999,-43.96269989,0.93785440905,-1.902815104,0.1356379984999999,2.398198832454968,
1970-01-01 00:00:39.200,2.9548368455,-9.717103243,7.947760582,-1.1011285482000002,-0.1719534993099999,-0.08406785131,-14.646100045,9.558699609,-42.071699145,1.1284714935,-1.28563928626,2.9511327745,1.1176401429842588,
1970-01-01 00:00:39.300,3.0780671835,-8.9904327395,7.56580615,0.5670189559500001,0.01450762246,-0.3778090328,-14.56679964,18.641599655,-40.16239929,1.1268582942,-0.7561569214,2.804452658,0.6815134868667981,
1970-01-01 00:00:39.400,1.57118713865,-7.832904816000001,4.7503511905,1.172368646,-0.2946574539,-0.16584502814,-14.24349976,24.448799135,-38.85090065,-0.8287556767500001,-0.4163846971,-1.03459644295,1.2201540192211233,
1970-01-01 00:00:39.500,5.265107154500001,-7.4068329335,8.017152071,1.759774566,-0.2063136622,-0.63978613915,-14.774199965,25.754199025,-38.637399675,2.2328811885,-0.270691395,1.4133303165000002,1.8837988624583377,
1970-01-01 00:00:39.600,3.688685656,-7.2510004045,8.448159218,2.3921542165,0.73133689165,-0.78188449145,-16.073500155,22.283299445,-40.095300675,0.69701576235,-2.143897295,0.6202819347499999,2.620801175705062,
1970-01-01 00:00:39.700,2.035544336,-2.7237799467999997,5.9857954975,1.9777706865,1.12159189595,-0.415834263,-16.512700085,14.79859972,-42.75489807,-0.33317106965,-0.405084014,-2.8625633715000003,2.311376949725888,
1970-01-01 00:00:39.800,0.01734796165,-0.839731177415,6.245416641,-0.19638741015,-0.3356605656599999,0.0792574351849999,-14.993799685,5.7095998525,-45.36569786,-1.8984934092,0.52165827155,-3.6548585895,0.3968850856818884,
1970-01-01 00:00:39.900,1.976920128,-1.69441755865,6.4861946105,-2.078866005,-0.6991146803,0.4304182529499999,-13.31019974,-1.4822999390000002,-47.348199845,-0.2519427537499999,1.09349799135,-2.570725441,2.235107396844313,
1970-01-01 00:00:40.000,1.54710936525,-3.715006709,6.4154565335,-2.427888751,-0.2871745783,0.89000445605,-12.71849966,-3.519699931,-48.06800079,-1.2047255039,1.0911759136,-1.9838421345,2.601772656755962,
1970-01-01 00:00:40.100,3.0447173115000004,-10.7189483645,8.122436285,-2.276475072,0.2774773686999999,0.83991497765,-12.73069954,1.0309000014999998,-47.348199845,0.8644000292,-3.593997002,1.6628916261500002,2.4422918771635143,
1970-01-01 00:00:40.200,2.9069805145,-10.3130655285,7.5095746515,-1.0290485916,-0.1927223131,0.08521319551,-13.18819952,10.424899577,-45.347398755,1.3184855579,-2.580759287,2.557997227,1.0504019147591002,
1970-01-01 00:00:40.300,2.0008484125,-6.9100232125,6.335297108000001,0.58786414565,0.061848286535,-0.2610608488499999,-13.40779972,20.2336998,-42.645099634999994,0.298707664,1.5451984405,1.642478466,0.6461905532351911,
1970-01-01 00:00:40.400,3.017050266,-8.7019484045,7.456932544500001,1.470309317,-0.32344362885,-0.22181390225,-13.01739979,26.504499435,-40.650398255,0.41140878225,-0.3770945073,1.3268468377899998,1.52171833002433,
1970-01-01 00:00:40.500,4.5649073125,-8.3440716265,7.465307473999999,1.6747140885,0.190355284155,-0.7698202431000001,-13.206500055,27.74889946,-40.058700565,2.308450699,-1.7361814975,1.0919506551000002,1.8529775009731393,
1970-01-01 00:00:40.600,3.0780671835,-5.5680981875,6.587889433,2.3903980254999997,0.50058934095,-0.7647807598,-14.10319996,24.241399765,-41.284799575,0.04862654205,-0.9799890515,-1.167706251,2.5591955804797952,
1970-01-01 00:00:40.700,2.2390838265,-5.538188219,8.575128555500001,2.2708246709999997,1.106091619,-0.6420004964,-14.34109974,16.46999979,-43.816299435000005,-0.288939833645,-2.0455009938499997,-0.2187991145,2.606194158811301,
1970-01-01 00:00:40.800,0.71156566212,0.0245264470499999,5.957081318,0.83434098235,0.1458397806,-0.4017847851,-13.57859945,6.661200046499999,-46.08549881,-1.5267022849999998,1.54013732055,-2.840350628,0.9374567349867792,
1970-01-01 00:00:40.900,1.0600204465,-1.09815603485,5.5966625215,-1.541091323,-0.6972821355000001,0.34596862645,-12.626999855,-1.06749996545,-47.561698915,-1.829720378,1.410131216,-3.986977577,1.7265164733650908,
1970-01-01 00:00:41.000,2.288136661,-4.5816572905,7.382755041,-2.2413512465,-0.55526015165,0.7615738213,-12.456199645,-3.8002998825,-47.8057003,-0.69917607325,0.12800478935,-1.0033361914,2.431453049410366,
1970-01-01 00:00:41.100,2.374278307,-10.953594209,7.210472107,-2.4944711925,0.2983988896,1.1425898074999998,-12.675799845,-0.103699982,-46.87849808,0.1026353836,-3.7061018945,0.37074112915,2.7598804133023176,
1970-01-01 00:00:41.200,4.048955083,-8.369196176,7.325327158,-1.758018434,-0.37124242635,0.3925457223999999,-12.94419956,9.162199973,-44.70079994,2.298574984,-0.6248903274,2.15973544115,1.8391688061677713,
1970-01-01 00:00:41.300,2.9466115234999997,-8.6983590125,7.376773118999999,0.0336729586,-0.09407047554,-0.2705289796,-13.18819952,19.23330021,-41.65690041,0.2096214294999999,-0.3354806898,2.7025301455000004,0.28839044941297254,
1970-01-01 00:00:41.400,2.26540488,-8.325975895,6.163013697,1.1574028135,-0.2619007677,-0.2414373792999999,-13.16379976,25.888399125,-39.100999835,-0.300105214135,-0.81010246255,0.9529960154,1.2109769993450814,
1970-01-01 00:00:41.500,4.775475740499999,-8.0173017975,7.570591926500001,1.5671285985,-0.21226942537,-0.341234544305,-13.7737999,27.97459984,-37.826099395,2.133960366,-0.6476085186,1.12977504745,1.6178353956476923,
1970-01-01 00:00:41.600,3.979563117,-6.9842004775,7.829166174000001,2.1746162174999997,0.50272728505,-0.7693621218,-15.40250015,25.125899315,-38.661798475,0.7194224594999999,-1.39857530575,0.1932520864,2.360849103820138,
1970-01-01 00:00:41.700,2.0798115434,-4.2022452354999995,7.045217514499999,2.236006379,1.1235771775,-0.8087617755,-16.158900260000003,17.97060013,-41.303098675,-0.1764400601,-1.0263680219,-1.720543385,2.629875626381877,
1970-01-01 00:00:41.800,0.7809574602,-0.2460120914999999,4.4223849775,0.770889215,0.0732253118999999,-0.4269058928,-15.56719971,8.808399914999999,-44.347000125,-1.193370581,1.3692921398500002,-4.03653574,0.8842402215538114,
1970-01-01 00:00:41.900,1.5052350165,-1.5638591055000002,7.7694950105,-1.529332459,-0.77791398765,0.2142546810149999,-14.63389969,0.7747000455999999,-46.640600205,-1.293907821,0.8159148693,-1.8268756865,1.7291364927816861,
1970-01-01 00:00:42.000,2.115703821,-3.754488349,7.0091757775,-2.249979496,-0.58549708125,1.0055309235,-14.10319948,-2.7327998875,-47.756898879999994,-1.4798858165,0.66778314104,-0.8486471174500001,2.5330430321428503,
1970-01-01 00:00:42.100,2.2989043595,-9.3411307315,7.296613693,-2.3955138925000004,0.232809165505,1.3074421885,-14.261799335,0.1707999705,-47.41529846,-0.184539794925,-2.6992099285,0.067636013,2.738994704809286,
1970-01-01 00:00:42.200,3.3439696435,-9.326774121,7.437790155,-1.7545060515,-0.2740413546999999,0.2706816829499999,-14.603399755,8.39969969,-45.37179947,2.0934441685000005,-0.9226360321,1.72744298,1.7962902667221063,
1970-01-01 00:00:42.300,3.2757742405,-9.4920282375,7.604240894,0.2212030589499999,-0.073225314973,-0.14988664726,-14.8961997,18.38539982,-42.376697539999995,1.496639073,-1.33316373805,3.154769659,0.27705368986637924,
1970-01-01 00:00:42.400,1.4262718111,-7.9501533485,5.6303117275000005,1.35478282,-0.1737096887199999,-0.135455385795,-14.57289934,25.601698875,-40.119699479999994,-0.66525065915,-0.0767951009999998,0.26953077315,1.3725741170746388,
1970-01-01 00:00:42.500,5.453093052,-8.9545407285,7.830512046500001,1.81994307,-0.27915719337,-0.366737426245,-14.53019953,27.968499185,-39.36330032,2.9665852785,-1.0635321145,1.241175413,1.8773965634516454,
1970-01-01 00:00:42.600,4.497758746,-6.6321566105,8.527122498,2.012359977,0.73943059145,-0.7581378221499999,-15.24999952,25.302799225,-40.314899445,1.6629635096,-1.3478043081500002,0.99454617475,2.2740103856354486,
1970-01-01 00:00:42.700,1.587936938,-4.306482434,5.8887364865,2.1778231860000004,1.310878217,-0.75218203665,-15.1706996,18.31219959,-43.18799973,-0.090644001975,-1.2435896396,-2.7218539715,2.65086652729692,
1970-01-01 00:00:42.800,0.3895814567,-1.3209876271499998,5.9665033815,0.6898756029,0.18554484845,-0.5720584690499999,-13.66400003,8.8144998565,-46.262399675,-1.10050690162695,-0.3859174847799999,-3.2813017365,0.91520824421265,
1970-01-01 00:00:42.900,0.75583286605,-0.1166501045,5.406433344,-1.477486849,-0.53029176595,0.2044047680885,-11.60220003,0.1707999705,-48.446199415,-0.8787755369500001,1.970602989,-4.163990736000001,1.5830218113530943,
1970-01-01 00:00:43.000,2.977718234,-3.4205399155,7.908129453499999,-2.6377911564999996,-0.3681118228,0.56961506605,-9.8088002195,-4.086999893,-49.757699965,0.2638779879999999,0.0621845722,-2.0558955670000003,2.723584003269569,
1970-01-01 00:00:43.100,1.597508252,-8.573932171,6.629763841499999,-2.7934045795,0.54693734645,0.6468872428,-8.8937997815,-2.0130000112000004,-49.65399933,-0.0821610093,-2.509387255,-0.4584484101999999,2.9190259866281982,
1970-01-01 00:00:43.200,2.3419750930000003,-8.159674883,6.723083973,-1.900040448,-0.4546994269,-0.0209215191449999,-8.466799736,6.4781999585,-48.00699806,0.8573398591499999,0.1820833683,0.6954061985,1.9538021862058,
1970-01-01 00:00:43.300,3.327219844,-11.7364959695,8.2721374035,0.1347681879999999,-0.0873511544099999,-0.6371137201999999,-8.5765995975,17.50699997,-45.091197965,1.66786110415,-3.5477757454,3.774799824,0.6570438198024898,
1970-01-01 00:00:43.400,1.152144134,-7.0272715095,4.1410785915,1.04462519275,-0.3893387765,-0.2089097695349999,-9.1194996835,25.998199465,-42.120500565,-1.20808452365,1.1262784005,-0.6627570389999999,1.134226506488743,
1970-01-01 00:00:43.500,4.760071993,-8.8168036935,8.421688795,1.540633142,-0.51922015845,-0.568317011,-10.150400163,29.81069946,-40.247800825,1.914176226,-0.9881677629,2.1759340765,1.7222439653433566,
1970-01-01 00:00:43.600,3.3200414179999997,-7.941778185,7.233054161,1.9825811385,0.38292486965,-0.64024430515,-12.51719952,28.51749897,-40.192899705,0.121805429475,-2.18709683395,0.88606595985,2.1182946435303642,
1970-01-01 00:00:43.700,2.2773689625,-5.566901922,6.548407793,2.4474359750000003,0.9877400397,-0.34505234655,-14.450900075,22.72859955,-42.138799665,-0.82227921505,-1.292583704,-2.0578043459999997,2.661697646166901,
1970-01-01 00:00:43.800,1.626222074,-2.18644166,8.345118284,1.763363361,0.3706315756,-0.1701209545,-14.298399925,14.048300265,-44.956998825,-1.1424479482,-1.2028285266499998,-1.19936037085,1.8099058668640604,
1970-01-01 00:00:43.900,0.83733838775,0.03529414535,4.366153479,-0.21646900475,-0.17027366905,0.3403946422,-13.17599964,4.9592998025,-47.159099575,-1.3938137885000002,2.7897872325,-5.2066953179999995,0.43785895540421516,
1970-01-01 00:00:44.000,1.95538482045,-2.517997265,8.588139296000001,-1.8311674,-0.64894884825,0.6698703766,-12.37689972,-0.72589999047,-48.494998935,-1.1262840031685002,1.25002729905,-0.6389131546,2.055002427228247,
1970-01-01 00:00:44.100,1.7697914391999998,-7.26431036,6.500401974000001,-2.463241577,-0.2620534822,1.03882214415,-12.340299604999998,-0.5611999926499999,-48.49499893,-0.5710753203500001,-1.2374484539,-0.79351973545,2.68614641100797,
1970-01-01 00:00:44.200,3.115305543,-8.0759258275,6.875177622000001,-2.2111144065,0.0920852273499999,1.00369840845,-12.52939987,5.8620996475,-46.902898789999995,0.62736010559,-0.7937951089,0.7103526592,2.43000351910301,
1970-01-01 00:00:44.300,2.954836905,-11.92567873,8.3881895525,-1.0828794838,-0.0437519338445,-0.0077119469499999,-12.63920021,15.9270997,-44.08469963,2.2230508925,-3.941746235,3.882252932,1.0837904235948237,
1970-01-01 00:00:44.400,1.3951651452,-6.0336518285,5.0545387265,0.5696914344999999,0.01175881175,-0.20959696545,-12.6086998,24.772099495,-41.150600435,-0.7151982188,2.248012781,-0.0986967085,0.6071387717172146,
1970-01-01 00:00:44.500,4.0824545625,-9.3257274625,6.972087145,1.4508386255,-0.23716145755,-0.0747524332285,-12.187799455,29.426399235,-39.497499465,1.4593358037500002,-1.3323819635999998,0.9912173748,1.4719939539493874,
1970-01-01 00:00:44.600,4.063312054,-7.580312490500001,7.7741315365,1.793600261,0.00236703455,-0.7525638342000001,-12.57819939,29.225098610000003,-39.48529816,1.515104532,-1.3937683105,0.9198493956,1.9450860710152735,
1970-01-01 00:00:44.700,3.471985817,-6.4885873795,8.017152071,2.3556560275,0.8467870056500001,-0.77837210895,-13.4199996,24.33289909,-41.614198685000005,0.76485991493,-1.702249765535,-0.4090116023999999,2.6214550716779494,
1970-01-01 00:00:44.800,2.1743280885000003,-3.4709388015,7.4533433915,2.0116727350000003,0.9791881741,-0.70132902265,-13.53589964,15.750199795,-44.456798555,0.4367511272499998,-1.2550284865,-1.2050414085,2.344674619441017,
1970-01-01 00:00:44.900,-0.2208874819999999,1.0875378698,4.0908294915,0.0794864893,-0.1527118087,-0.1072036921999999,-12.44399977,5.8194000720000005,-46.854099275,-2.4410449865,2.5358062385,-6.062679529,0.20280934425952057,
1970-01-01 00:00:45.000,2.1336500645000003,-3.2158041,8.9173023725,-2.001899183,-0.6886539459500001,0.3784962296499999,-11.010499475,-1.47619993995,-48.543800355,0.12977552413,-0.34515953085,0.012983084,2.15060549428012,
1970-01-01 00:00:45.100,1.7662021515,-4.742125988,6.505337000000001,-2.3936812875,-0.0467298105499999,0.91214767095,-10.162599565,-3.153699875,-49.043998720000005,-0.5547603368499999,0.0020203589999999,-1.6523144244,2.5620123252906506,
1970-01-01 00:00:45.200,2.355135739,-7.281060457000001,5.6421260835,-2.355427027,0.3437543064,0.80853271485,-9.9369001385,1.6286999285,-48.24489975,0.5086418389,0.0855219364,-1.1126220224,2.5139468279327857,
1970-01-01 00:00:45.300,3.400200963,-12.9634161,9.6882395745,-1.39654955245,-0.2676274552999999,-0.308096077315,-10.083300115,11.2117996195,-46.012298585,2.399927378,-5.034846306,4.395955086,1.454956459876219,
1970-01-01 00:00:45.400,1.1114661096,-7.290631533,5.778666735,0.60496784745,-0.05077667674,-0.2370087392399999,-10.0466995255,21.069399835,-43.425899505,-1.00245034681,0.35786724095,1.2741811275,0.6517188886515253,
1970-01-01 00:00:45.500,2.039133608,-6.759125709499999,5.874379635,1.1997803450000002,-0.1882173148699999,0.0143549107049999,-9.6135997775,27.273098945,-41.57149887,-0.17333579065,1.27297329905,-0.9277560711,1.2145388825914718,
1970-01-01 00:00:45.600,4.154239177999999,-9.4764747615,9.254989624,1.4129660725,-0.28068430209,-0.62352234125,-10.0161995875,28.645599365,-40.86389923,1.9155689476,-2.9341182705,2.636958599,1.5697251063526083,
1970-01-01 00:00:45.700,3.7784165145,-5.947659731,7.262964487,2.0102983115,0.67269554735,-0.6726191938,-11.37039995,25.552900315,-41.9375,0.9318825008,-0.43537831305,-0.5896139143,2.2240133049315216,
1970-01-01 00:00:45.800,0.8479565086,-3.8742790225,7.580163001999999,2.112080753,0.8273162247000001,-0.3785725980999999,-11.833999635,18.50739956,-44.32869911,-0.9397190809,0.1266577243849999,-2.2686700820000003,2.299707471587874,
1970-01-01 00:00:45.900,1.2803096397,-1.7913268060999998,7.652097225,0.60206634352,-0.0522274375,-0.27755372975,-11.25449991,9.3634998795,-46.634498595,-0.8864071368000002,0.1660305259999999,-1.6557116509,0.66501703747009,
1970-01-01 00:00:46.000,-0.2950649335999999,-0.5679962636000001,4.9814081195,-1.41960903985,-0.7304205743,0.2210503592899999,-10.266299725,1.3053999840499997,-48.372997285,-2.2377321720000003,2.047070265,-4.533027648999999,1.6117280486257037,
1970-01-01 00:00:46.100,3.1188946965,-3.7784165145,8.099854469,-2.5661693815,-0.77241636795,0.6267293096,-9.906399727,-2.5436999795,-49.30629921,0.0399429799999999,0.75331449495,-0.924615383375,2.7522067450569287,
1970-01-01 00:00:46.200,2.752643347,-8.0015990735,8.093722343500001,-2.3367961645,0.13301198420735,1.134954214,-10.76039982,-0.1280999779999999,-48.35469818,-0.08504462245,-1.815588236,1.3535745145,2.601236161950899,
1970-01-01 00:00:46.300,2.231905341,-10.1563358305,6.4477596285,-1.7330500485,-0.1881409511,0.2975589633,-11.91329956,7.948299885500001,-46.00619888,0.6288831234500001,-2.0205039975,1.0027902128,1.7684458783708468,
1970-01-01 00:00:46.400,2.5347470045,-9.1040916445,7.284649610500001,0.136906147,-0.2758738919999999,0.054899898835,-12.84049988,18.26949978,-42.767099380000005,0.2813044786499999,-1.1501708031,3.081307411,0.31283173794502767,
1970-01-01 00:00:46.500,1.7877376675,-7.373333454,5.6195440295,1.274303734,-0.3649812340999999,0.032298548145,-12.99909973,26.36419964,-39.839099885,-0.5519041418999999,0.58044719695,0.461823463455,1.3259353317352158,
1970-01-01 00:00:46.600,5.192126035499999,-7.533503055500001,7.5396344665,1.46519351,0.09261971339,-0.33436251433,-12.980799675,29.786299705,-38.448299405,2.796097994,0.0487172603499999,1.769055605,1.5057120322437638,
1970-01-01 00:00:46.700,3.541377425,-8.075776338499999,8.1596746445,1.8236845135,0.5932853966999999,-0.6254312396,-13.57859993,28.46869946,-38.88139915,1.1794633867,-1.3894500733,0.4178850651,2.0171705436538576,
1970-01-01 00:00:46.800,2.8184459210000004,-5.3250772955,6.869195700000001,2.3213722704999995,1.13014379165,-0.68934112785,-14.426499845,22.72249889,-40.943199155,0.5975407362,-1.24304294583,-1.5856559274500002,2.6722996461094835,
1970-01-01 00:00:46.900,-0.36580273515,-2.5538895725,5.844469309,1.407392025,0.20860435065,-0.61619216205,-13.901899815,13.7859993,-43.535699845,-1.7076815067999995,-0.393766343615,-3.6599292755,1.5504711760350665,
1970-01-01 00:00:47.000,1.408325672,-0.080907345,7.045217513999999,-0.8838959931999999,-0.780662775,-0.1163664013,-11.90109968,4.3980998995,-45.841499325,-0.5789574385,1.88724288355,-2.450143337,1.185009550348531,
1970-01-01 00:00:47.100,0.43519463016,-2.138435662,7.792227029999999,-1.929590106,-0.8423583508,0.373991243535,-10.650599955,-1.7994999287500002,-47.07979965,-2.2241780165,1.3650712965,-2.3308882715,2.1384001072241934,
1970-01-01 00:00:47.200,2.656780839,-6.7758755685,7.452147007000001,-2.2334103584999996,-0.3972797841,0.91879060845,-11.315499785,-2.5497999785000003,-46.6527977,0.0146918297,-1.7745656964999998,-0.2662711143499999,2.447474052668498,
1970-01-01 00:00:47.300,3.3378379345000004,-8.852845192,6.115007877,-2.461561799,0.0009926259499999,0.95490697025,-12.852699755,3.03780001415,-44.82279968,1.3676269056,-1.59871292125,0.1958475113,2.6402906653310785,
1970-01-01 00:00:47.400,4.27402988065,-12.846017838,10.631609915,-1.09753981215,-0.18218520285,0.0741415871199999,-14.07269955,12.877099515,-42.224199295,2.27211892586,-3.684647083395,5.439859628500001,1.1150255881962645,
1970-01-01 00:00:47.500,0.69122666865,-6.833303213500001,5.0424249175,0.36276690105,-0.0484860017899999,-0.43522866815,-14.676599505,21.88679981,-39.595098495,-1.172431588,1.16629886615,0.1733777523,0.5686604526838693,
1970-01-01 00:00:47.600,2.6831018925000003,-6.902694941,5.793023586,1.1548830865,-0.1874537496049999,-0.0102316915304999,-14.810800075,27.291399955000003,-37.911499025,-0.1535527109999999,0.72212171575,-0.62169885635,1.1700421100269494,
1970-01-01 00:00:47.700,3.9005999565,-9.7386384,8.7186980225,1.7790926095,-0.42499697205,-0.6638382375,-15.707499025,27.931899075,-37.75289917,1.54426658175,-3.016937971,2.37051796905,1.9458864676533147,
1970-01-01 00:00:47.800,4.437938333,-6.0792651175,8.038837433,2.397651792,0.55579464885,-0.7491278052,-17.299599645,23.63749981,-39.43650055,0.77138626575,-1.54364061335,-0.14347529415,2.5727095203102266,
1970-01-01 00:00:47.900,0.6349953115,-2.044068813,5.970242023500001,2.087952316,1.2320789398499998,-0.4481328129999999,-17.610699655,15.585499765,-42.28520012,-1.423583448,0.4514869454,-3.1231722835,2.4654383800855695,
1970-01-01 00:00:48.000,0.9414261876,-0.2651546504149999,6.845267295999999,-0.10560023785,-0.164012487955,0.06963658705,-16.646900175,6.154899716000001,-44.77399826,-1.0591486694,1.176138699,-1.964242935,0.2071249880993064,
1970-01-01 00:00:48.100,0.79426759485,-1.945813477,5.290231705,-1.7436635495,-0.6004628539499999,0.4861580580499999,-15.518399715,-0.7197999654500001,-46.44539833,-1.3946686985,0.80726349345,-3.8186445235,1.9071622558753791,
1970-01-01 00:00:48.200,2.145763636,-5.189882517,6.2371914385,-2.3696292640000003,-0.34558684375,0.7395833433,-14.73149967,-2.1410999895,-46.945598605,-0.1882561445,0.551386833,-1.89363884935,2.506303380890884,
1970-01-01 00:00:48.300,3.5820554495000003,-9.993623736,9.100502491,-2.3884891269999997,0.1892862990399999,0.90787175305,-14.8107996,2.7998999356999996,-45.841499325,1.20007789155,-2.973878622,2.593411922,2.5622140294650566,
1970-01-01 00:00:48.400,1.835594058,-8.780911206499999,7.1792156695000005,-1.1622896493,-0.28114245085,0.1546207144649999,-15.53059959,12.0840997675,-43.334398269999994,0.68022340535,-1.3307061195999998,1.38326001155,1.2057636053064167,
1970-01-01 00:00:48.500,2.1001505255,-9.4248797885,6.48021245,0.5151733159999999,-0.0294733792499999,-0.1916533223999999,-15.963699815,21.307299615,-40.394199375,0.2808353900499999,-1.1162114145,1.91486239455,0.5504572840737131,
1970-01-01 00:00:48.600,3.0349963905,-7.181757927,6.827321291,1.244372189,-0.2214321307949999,-0.115831907835,-15.66479969,27.157198905,-38.399499895000005,0.5165423155,0.8074250222,0.60888290405,1.2692168310331224,
1970-01-01 00:00:48.700,4.673780799,-7.289435147999999,7.638936758,1.643942714,-0.0417666733,-0.7580614686,-16.02469969,28.322299,-37.75899887,1.9082605841,-0.6335618495500001,0.9351465704,1.8107869261976197,
1970-01-01 00:00:48.800,3.221786141,-6.9698438645,7.3839514255,2.203936815,0.6520794481,-0.5364765972,-17.110499384999997,24.72939968,-39.100999835,0.91975808135,-1.839987993,-0.1644480230499999,2.3601593654857367,
1970-01-01 00:00:48.900,1.55907350765,-4.9097728725,6.899106026,2.2063803670000004,1.00721076115,-0.56266668435,-17.250800135,17.250800130000002,-41.906999584999994,-0.5206946730600001,-2.1475987434999997,-2.0406877995,2.489815583318741,
1970-01-01 00:00:49.000,1.12582308055,0.202941257485,5.54282403,0.2563267797,0.08933641016,-0.2461714483999999,-16.36629963,7.6250000005,-44.572698595000006,-0.462871313,2.2004516125,-3.536658764,0.36644889709071565,
1970-01-01 00:00:49.100,1.0060323849,-0.7404290887,6.549604177499999,-1.7295376065,-0.5854971111,0.39162944255,-14.97549963,-0.445300043,-46.524698255,-1.424625337,1.47196763745,-3.785371065000001,1.8674798043556504,
1970-01-01 00:00:49.200,2.631656289,-4.4189451935,8.096264839,-2.598086119,-0.154468001805,0.6689541042,-13.6395998,-3.7148998975,-47.506799695,0.7613855601499999,0.1295322179999999,0.02395439145,2.687268397248056,
1970-01-01 00:00:49.300,1.9025930615499995,-7.999355793,5.8133625984999995,-2.5993077755,0.18233790995,0.8758786022,-13.10889959,-0.433099985,-47.018798829999994,-0.1509072179999999,-1.547473669,-1.42349314715,2.7489655055987003,
1970-01-01 00:00:49.400,2.9368907215,-10.086794377,8.9270231705,-1.42709189645,0.01412583885,-0.24617144465,-12.98079967,8.649799588,-45.01189804,1.4034698607,-2.4734313485,2.869652748,1.4482372735147861,
1970-01-01 00:00:49.500,2.681905508,-9.879964352,7.7406315805,0.68659231065,-0.023288551705,-0.47325390575,-13.17599964,19.42849922,-43.004999165,1.1529098151,-1.48819541945,3.0694169999999996,0.8342185666789325,
1970-01-01 00:00:49.600,1.5195919275,-8.4086778165,5.348855972500001,1.1696960925000002,-0.2917559295999999,-0.2004342600899999,-13.121099945,26.47399902,-40.876100545,-0.49082857395,-0.3624532222499999,-0.3276140689949999,1.2220819791995767,
1970-01-01 00:00:49.700,4.7911787035,-8.05439043,8.296215057,1.5298669935,-0.3089360063849999,-0.7387434244,-13.724999905,28.56019974,-39.771999355,2.3149485590000003,-1.0601706505,1.905538559,1.7267531152240843,
1970-01-01 00:00:49.800,2.7837500575000003,-6.550800562,6.653692007,2.2768567805,0.59565243125,-0.7415685653499999,-15.414699555,25.632199285,-40.650398255,-0.25901782515,-1.3534440995,-1.1317765711,2.4675499092983144,
1970-01-01 00:00:49.900,2.316850543,-4.102793693500001,7.422236680999999,2.088334024,1.03118652085,-0.56533913315,-16.280900005,18.36099911,-42.931798935,-0.110549092271,-0.65655696405,-1.38648509995,2.3966837446875533,
1970-01-01 00:00:50.000,0.344117812825,-0.16331017015,5.8085770605,-0.08078455925,-0.1505738421999999,0.0826934501499999,-15.975900175,9.064599755,-45.268098835,-1.63908439855,0.94805735365,-3.5948300360000003,0.18983370002662264,
1970-01-01 00:00:50.100,1.2324532271000002,-1.37946227195,6.439534426,-1.651272893,-0.6282563806,0.5987830162,-15.1706996,1.13460001325,-47.07979774,-1.1886237265,1.2453258635000002,-3.0253851414999997,1.865462234249402,
1970-01-01 00:00:50.200,2.4233311415000003,-3.451796174,6.7663042545,-2.3270990850000004,-0.68911206725,0.7612684071,-14.68879986,-2.183799982,-47.817897795,-0.40333151815,0.91733562945,-1.760916233,2.5435792066074883,
1970-01-01 00:00:50.300,2.600549579,-9.7924771315,7.5204918385,-2.3920778035,0.132477497695,1.0671501756,-14.61560011,0.92109996105,-47.12859917,0.3549181222999999,-2.9652922155,0.55461716655,2.6226696327742127,
1970-01-01 00:00:50.400,3.9604206085000007,-9.5973124505,8.352446318,-1.9506643415,-0.0412321910249999,0.5576272011000001,-14.96329975,9.595299958,-45.066799165000006,2.2629203198,-1.5537111760999998,2.6156766415000003,2.029221417732173,
1970-01-01 00:00:50.500,2.5861926975,-8.599057197499999,7.4784679415,-0.0917797982999999,0.0293970257,-0.2088334038499999,-14.71929979,19.67249966,-41.711799625,0.511590123,-0.6021723747000001,2.7533938885,0.22999805881696542,
1970-01-01 00:00:50.600,1.781755507,-9.318399429,5.8827545645,1.1779426334999998,-0.107509117555,-0.3447469174999999,-14.023899555,26.498399735,-39.710998535,-0.224134326,-1.5584390165,0.2465684415,1.2320541770961704,
1970-01-01 00:00:50.700,3.9040396215,-7.081110000999999,7.295267581999999,1.6277552245,-0.2973299026499999,-0.3249707370999999,-13.651799675,28.36499977,-39.027799605,1.3313134911,-0.0982124805499999,0.79205584515,1.686297162978169,
1970-01-01 00:00:50.800,3.9652062655,-6.714858532,8.496015787000001,2.404905677,0.4685962050999999,-0.7637881338500001,-14.10929966,25.26009941,-40.192897795,1.3861995934,-1.506345510565,0.0965938567999999,2.566422808523766,
1970-01-01 00:00:50.900,1.962413609,-4.064508438,8.0472118855,2.2987710234999996,1.0382112265,-0.52403058115,-14.2251997,17.525299545,-42.69389915,-0.1387424468999999,-1.5888489485,-1.2968044281,2.5762062843053304,
1970-01-01 00:00:51.000,0.8385348021999999,-0.5057828835899999,4.2321554425,0.57625802996,0.0029015243499999,-0.4610369503499999,-13.34679985,8.015399935,-45.066799165000006,-0.77945876125,0.9660359622,-4.4767360685,0.7379951256783219,
1970-01-01 00:00:51.100,0.8612666129,-0.42442693002,5.9869918825,-1.46870589245,-0.5438067764000001,0.13881503792,-12.49889946,0.1524999735,-46.854099275,-1.2936555744,2.0213195685,-3.3356289864999997,1.5722889121687025,
1970-01-01 00:00:51.200,1.8188443185,-4.67751956,8.057830334,-2.5172251460000004,-0.6240568161,0.7211815417,-12.27929974,-2.921899915,-47.40309906,-0.87794309865,0.0896955728499999,-0.373310089,2.6918343488157626,
1970-01-01 00:00:51.300,2.3156541585,-9.2765250205,7.772934913499999,-2.5564720629999997,0.2189887389499999,1.24872452,-12.755099775,0.76859998715,-46.518600465,0.0461716651999999,-2.7763495449999995,0.85242605185,2.853562405754536,
1970-01-01 00:00:51.400,2.238934219,-9.697960378,8.390582323,-1.6867019535,-0.05375455694,0.2944283858,-13.444399355,9.857599736,-44.26160049,0.7899966540000001,-1.7560787204999997,2.50016307855,1.713050234726736,
1970-01-01 00:00:51.500,2.34436807035,-9.538688183,7.293024539999999,0.35222978891,0.055510744,-0.3393256589999999,-13.51149988,20.15439987,-41.81549835,1.6151887179,-1.23100757595,2.6507086755,0.4922287778572083,
1970-01-01 00:00:51.600,2.3922244905,-7.498806953499999,6.0013487340000005,1.476952374,-0.2224247604499999,-0.1338519081299999,-13.18819952,27.04739952,-39.613399505,0.1780566573,0.36684846875,-0.04447221755,1.4995924187710197,
1970-01-01 00:00:51.700,4.2345483305,-7.7264244555,8.1798639295,1.7616071705,-0.25877016038,-0.6700230836500001,-13.304100035,28.578499795,-38.978998185,1.7900931835000002,-0.98298263545,1.2905130385,1.902407094100514,
1970-01-01 00:00:51.800,3.427718401,-7.151698351,8.2002034185,2.1458301545,0.56778252125,-0.7735617161,-14.4447999,24.78429985,-40.35759926,0.68826591965,-2.504234314,0.1709382534,2.35060880880126,
1970-01-01 00:00:51.900,1.2143574950000002,-4.4416770935,7.3253273965,2.1217780115,0.9199359715,-0.55945974585,-15.01209974,16.677400115,-42.931798935,-0.68569993975,-1.597593665,-1.7848916055,2.379331697971321,
1970-01-01 00:00:52.000,-0.19815562665,0.23285156114,4.86057055,0.39277479795,0.0149657502499999,0.0528382882499999,-14.353299615,6.825899601000001,-45.420598985,-1.820281446,1.9152133465,-4.5132267475,0.3965953861183949,
1970-01-01 00:00:52.100,1.2779167888999998,-1.0420742631,7.2222862245,-1.8058172465,-0.60115005075,0.6194754839000001,-13.432199955,-1.2260999532,-46.994400025,-0.9386939408,1.1366739275,-2.07760477075,2.0015262142741745,
1970-01-01 00:00:52.200,1.6559828818,-4.2297626735,5.982206345,-2.780423999,-0.1444653793999999,0.78493872285,-12.584299565,-4.16629982,-47.54949951,-0.44102579375,0.4320559500500001,-2.1294507979999997,2.892707496220405,
1970-01-01 00:00:52.300,3.805933952,-9.700353146,9.1100738035,-2.813409805,0.3724641054499999,0.5086067020499999,-12.27319956,-0.1768999694999999,-46.683298115,1.723561465815,-2.7275426389999997,1.80341577535,2.8831727346950586,
1970-01-01 00:00:52.400,0.5989534259,-10.240084645,7.3480594155,-1.15671564635,-0.3358896374499999,-0.0573432892499999,-12.49279976,9.4488997475,-44.38359833,-1.46079051515,-2.2160592075,2.3069217205,1.205861181015128,
1970-01-01 00:00:52.500,2.5992035865,-8.270941019,7.041628599499999,0.9126057922,-0.1543152816799999,-0.1783673987,-11.492399695,20.48989964,-42.16929817,1.32829028345,0.0216419697,1.9589076045,0.9425908269424077,
1970-01-01 00:00:52.600,2.346760869,-8.4050884245,6.642924309,1.5982818010000002,-0.23319093885,-0.066276926545,-11.57169962,27.321899414999997,-39.887899399999995,0.18636423347,-0.76241803165,0.6279323101000001,1.6165628228936233,
1970-01-01 00:00:52.700,4.3482074735000005,-7.693971634,7.450950622500001,1.7532079815,0.0178672895,-0.863127172,-12.12680006,28.645599365,-39.119298935,2.3220827577,-0.80961751935,0.808722734375,1.9542379541586277,
1970-01-01 00:00:52.800,3.0770202875000003,-5.9080286025,7.861469269,2.4031493665,0.833119303,-0.55930703875,-13.261399745,24.53419876,-40.442998885,0.5138665435499998,-1.25069618215,-0.4043440819999999,2.604234823193917,
1970-01-01 00:00:52.900,1.38679033495,-4.269244313,7.707132101000001,1.8019993905,0.6190173327999999,-0.415986985,-13.432199955,16.238199235,-43.25509834,-0.598202586175,-1.8314429525,-1.2453854085,1.9502383016848448,
1970-01-01 00:00:53.000,0.2998505904999999,0.5309075266,4.4092242715,-0.4890595971149999,-0.3166479543,-0.074523367455,-12.578199865,6.862499714,-45.695098875,-1.2504609225,1.9051853415,-4.382905245,0.5873661113730464,
1970-01-01 00:00:53.100,1.53514530511,-0.9007481932,7.083502769499999,-2.1878257989999996,-0.68957021835,0.3701734393499999,-11.339900015,-0.3659999965,-47.805698395,-0.6500042081999999,1.5998860595000002,-3.4325337410000003,2.3236000490629753,
1970-01-01 00:00:53.200,1.7673985955,-5.563163042,7.7633636,-2.7146052125000004,-0.12446012345,0.8480850458,-11.181299685,-2.244799912,-48.281497955,-0.7020367383999999,-0.5222393274,0.2269508839,2.8467209253755366,
1970-01-01 00:00:53.300,1.9840986725,-9.3867440225,6.608228445,-2.448123217,0.3167243004,0.8973346353,-12.03529978,2.4887998996,-46.9333992,-0.031631887,-2.30019927,0.0019006729999999,2.6265625855454657,
1970-01-01 00:00:53.400,3.4133615495,-10.214959622,8.9735336305,-1.8281131985,-0.15263546538,0.17874918135,-12.858799455,12.0230994225,-44.35919952,1.6724179984999998,-2.0677838325,3.882291794,1.8431621528381503,
1970-01-01 00:00:53.500,1.733749568,-8.188388586,6.8117678165,0.2887016907,0.006413895635,-0.3980433493999999,-13.834799765,21.758699415,-41.742300035,-0.0765863060749999,-0.0095758437999999,2.076839924,0.4917604216199445,
1970-01-01 00:00:53.600,2.1121146085,-8.862416983500001,6.0276699065,1.279572308,-0.44469678405,-0.2155527212,-14.188600065,27.614699360000003,-39.704898834999995,-0.4483908414999999,-1.42524266245,0.3110141754,1.3716863696784278,
1970-01-01 00:00:53.700,4.2357447145,-7.574330568500001,7.4509503845,1.6346272825,-0.4155288487499999,-0.46722180395,-15.134099485,28.316199305,-39.015598295,1.7995507715,-0.606265783265,1.21251583085,1.7501333637534962,
1970-01-01 00:00:53.800,3.6228830815,-7.4714391235,9.245268821500002,2.3295423985,0.31886227425,-0.64322215315,-16.762799264999998,24.00959873,-40.34539986,0.1566417217,-2.3890702724999997,0.7083141805,2.437657825588312,
1970-01-01 00:00:53.900,1.889432609,-3.596561909,5.187340498,2.3748978375,1.13984096045,-0.6342121661,-17.53139973,15.701399325,-42.913497925,-0.27970230575,-1.7396531106,-2.9530253411,2.7095391167707854,
1970-01-01 00:00:54.000,-0.56919267765,1.42746824,5.6303117275000005,0.2242572902999999,-0.0871220975999999,0.0135913490999999,-16.71399975,5.8499000075000005,-45.05459976,-3.0271576645,3.242683649,-4.827827453499999,0.24096953523896006,
1970-01-01 00:00:54.100,2.332403898,-3.0493533615,9.010771751,-1.901720166,-0.5672480464,0.6657471657,-15.60989952,-1.335900016,-47.030998229999994,-0.38942331075,0.0818641185999999,0.16929912565,2.0932102676399396,
1970-01-01 00:00:54.200,1.784148395,-5.070241451,5.3825049400000005,-2.4313247205,-0.186155697345,1.04164728505,-14.694900035,-2.9584999085,-47.71419907,-1.01772850775,-0.0815234184399999,-1.8484179975,2.6516076079654853,
