Unnamed: 0,acc_Acceleration x (m/s^2),acc_Acceleration y (m/s^2),acc_Acceleration z (m/s^2),gyr_Gyroscope x (rad/s),gyr_Gyroscope y (rad/s),gyr_Gyroscope z (rad/s),lin_acc_Linear Acceleration x (m/s^2),lin_acc_Linear Acceleration y (m/s^2),lin_acc_Linear Acceleration z (m/s^2),acc_magnitude,gyr_magnitude,lin_acc_magnitude,filtered_acc_magnitude,average_acc_Acceleration x (m/s^2),average_acc_Acceleration y (m/s^2),average_acc_Acceleration z (m/s^2),average_gyr_Gyroscope x (rad/s),average_gyr_Gyroscope y (rad/s),average_gyr_Gyroscope z (rad/s),average_lin_acc_Linear Acceleration x (m/s^2),average_lin_acc_Linear Acceleration y (m/s^2),average_lin_acc_Linear Acceleration z (m/s^2),average_acc_magnitude,average_gyr_magnitude,average_lin_acc_magnitude,average_filtered_acc_magnitude,activity
1970-01-01 00:00:00.000,1.5975081919999998,6.884748936,7.79820919,-0.3613161445,0.3713951409,-0.2678565085,,,,10.52444140590182,0.5832930790831367,,10.529816706684892,1.5975081919999998,6.884748936,7.79820919,-0.3613161445,0.3713951409,-0.2678565085,,,,10.52444140590182,0.5832930790831367,,10.529816706684892,running
1970-01-01 00:00:00.100,0.5175974518500001,6.3689460755,5.37173748,-0.216927133475,-0.42362257095,-0.18898086995,-0.47678601744,-0.2719581127,-1.03713488565,8.347870673939864,0.5120812758371732,1.1734286908550857,9.552937296387954,1.0575528219249999,6.62684750575,6.584973335,-0.2891216389875,-0.02611371502500001,-0.22841868922499997,-0.47678601744,-0.2719581127,-1.03713488565,9.436156039920842,0.5476871774601549,1.1734286908550857,10.041377001536423,running
1970-01-01 00:00:00.200,1.7542381284,5.8876895905,7.67363286,-0.6430694460999999,-0.85587337625,-0.23677967485,-0.0638655423999999,-0.04678058625,0.8213756083999999,9.82989732374078,1.096413317642123,0.8251818713655855,8.812290981060785,1.2897812574166665,6.380461534000001,6.947859843333333,-0.4071042413583333,-0.30270026876666667,-0.23120568443333334,-0.27032577991999995,-0.15936934947499998,-0.10787963862500005,9.567403134527488,0.7305958908541443,0.9993052811103356,9.631681661377877,running
1970-01-01 00:00:00.300,0.58953166015,4.190281153,8.6851985455,-0.8178481162,-0.7214869855,0.2326564453749999,-0.97312042135,-1.5810921195,0.9446663857,9.661194413438825,1.1151448484355277,2.0830771049255246,8.500378254157475,1.1147188580999998,5.83291643875,7.382194518875,-0.5097902100687499,-0.40739694795000003,-0.11524015198125001,-0.5045906603966667,-0.6332769394833333,0.24296903614999998,9.590850954255323,0.8267331302494901,1.3605625557153986,9.348855809572777,running
1970-01-01 00:00:00.400,5.04137826,5.931957006499999,8.111668825,-0.0803264156,-1.6845640837999998,0.1466796993999999,1.30024695375,1.25302624715,0.1139609813649999,11.242899084037086,1.692844771291258,1.8093380065804845,8.708844233742239,1.9000507384799998,5.8527245523,7.528089380100001,-0.42389745117499994,-0.66283037512,-0.06285618170500004,-0.05338125685999995,-0.16170114282499998,0.21071702245374996,9.921260580211676,0.9999554584578437,1.4727564184316702,9.220853494406668,running
1970-01-01 00:00:00.500,1.7662022412000002,1.247857034,4.994568705500001,-0.40789324045,0.2280750908099999,-0.32794861495,-0.9248837234,-2.8837122915,-1.8350253104,5.4426403599799915,0.570916313219735,3.5409778835467254,9.397321175798764,1.8777426555999999,5.085246632583334,7.105835934333334,-0.4212300827208333,-0.5143461307983334,-0.10703825391250003,-0.22768175016799996,-0.70610337256,-0.19843144411700003,9.174823876839728,0.9284489342514922,1.8864007114546812,9.250264774638685,running
1970-01-01 00:00:00.600,2.8950164019,-2.918944478,4.822135687,-3.284220338,-0.93917769195,0.86870116005,-1.50198042385,-5.317038536,-3.4002997875000003,6.336745964353919,3.52459922133873,6.487594518140772,10.393025753473704,2.0230674765,3.941790759642857,6.779593041857143,-0.8302286906178571,-0.57503635382,0.032353090939285685,-0.44006486244833337,-1.4745925664666668,-0.7320761680141668,8.769384175056041,1.299327546692526,2.6532663459023627,9.413516343043687,running
1970-01-01 00:00:00.700,7.89870739,-3.231357336,8.1056866645,-3.473353863,-1.4460281730000002,1.7424418330000002,2.5914386510000003,-1.674224138,0.6449868678999999,11.770021451501895,4.146237821943544,3.15191827399157,11.429958889025269,2.7575224656875,3.0451472476875,6.9453547446875,-1.1606193371656248,-0.6839103312175,0.246114183696875,-0.006992931955714202,-1.5031113624,-0.5353528771692858,9.144463834611773,1.6551913310989033,2.7245023356293925,9.665571661291386,running
1970-01-01 00:00:00.800,12.63305664,-3.8383866545,10.000652791,-3.296819091,-1.399603784,1.439308822,7.1555454735,0.76649475095,4.1612653735,16.56322397436646,3.859989217090666,8.312970271524513,12.22368038953658,3.854804040611111,2.2803101474444443,7.284832305388889,-1.3979748653694444,-0.7634318259711111,0.37869136573055556,0.8883243687262501,-1.21941059823125,0.05172440416437496,9.968770516806737,1.9001688739868772,3.4230608276162826,9.94980596442974,running
1970-01-01 00:00:00.900,11.99028444,-2.9968608615,10.14078236,-2.0254932045,-1.3416496515,-0.1437018216,6.0393140315,3.0590016845,6.8225712775,15.986981042341416,2.4337823901032953,9.61136224025578,12.559771227086573,4.668352080549999,1.75259304655,7.57042731085,-1.4607266992825,-0.821253608524,0.3264520469975,1.460656553478889,-0.7440314557055555,0.8040407234238889,10.570591569360205,1.9535302255985187,4.110649873465116,10.210802490695425,running
1970-01-01 00:00:01.000,7.2750780585,-3.9807595015,5.9630635975,-0.111097848055,-1.9907512665,-0.6280273497,0.3028247355,2.0339255335,4.102175951,10.21427111613356,2.0904190223218433,4.588725686856501,12.36272846141475,4.905327169454545,1.2313791785454546,7.424303336909091,-1.3380331673527273,-0.9275715774309091,0.23968119275227276,1.344873371681,-0.466235756785,1.1338542461815,10.538198800885056,1.9659746616642757,4.158457454804254,10.406432124397181,running
1970-01-01 00:00:01.100,7.540831088999999,-6.1401326655,3.487538934,-0.281753297915,-1.1641985175,-0.5905365944,-0.95734071751,-0.6855888367,2.0643469095,10.330938509106272,1.3354686736725525,2.376565055952061,11.717179358820156,5.124952496083333,0.6170865248749999,7.096239636666667,-1.2500098448995833,-0.9472904891033332,0.17049637715625002,1.1355811817545456,-0.4861769458681817,1.2184444883013636,10.520927109903491,1.9134324959982987,3.996467236726782,10.515661060599095,running
1970-01-01 00:00:01.200,9.649954797,-4.339832544,0.9318548440000002,-0.1559187620999999,-1.3337849975,-0.3511608242999999,1.92950677865,0.9378353359,1.1789183317499998,10.62187024701352,1.3880226959433795,2.4479338142717766,10.833669747650045,5.473029596153846,0.23578505803846148,6.622056191076923,-1.1658489923765385,-0.9770208359030769,0.13036890012115387,1.2017416481625,-0.3675092557208333,1.2151506419220832,10.528691966604262,1.8730163575325358,3.8674227848555316,10.540123267295323,running
1970-01-01 00:00:01.300,9.3195955735,-4.0263727905,-0.8995517492,-0.4950916916,0.08651124685,-0.2340308502299999,-0.1880755425000001,0.1288499832,-1.88903401815,10.191944507853655,0.5544099726576605,1.9027412460934472,9.974754008474942,5.747784308821428,-0.06865478828571435,6.084798481057143,-1.1179377566067856,-0.9010542585635715,0.10434034652464289,1.0948326334961538,-0.32932777580384615,0.9763672065319231,10.504638576693505,1.7788301871843302,3.716293435719987,10.499739748808151,running
1970-01-01 00:00:01.400,7.662865162000001,-3.194418192,1.73135671035,0.523801516715,0.0591758191999999,-0.4672217965,-0.9547457697,2.150462985,2.589273691,8.480648921801198,0.7043905263528272,3.498623841100943,9.37096312092595,5.8754563657,-0.27703901520000007,5.7945690296766665,-1.0084884717186666,-0.837038920046,0.06623620365633337,0.948434176125,-0.15219986431785712,1.091574812565357,10.369705933034018,1.7072008764622302,3.700745607532912,10.424487973616007,running
1970-01-01 00:00:01.500,6.872784853,-2.494068861,-0.08913264423,-0.34864106775,0.6386408210000001,0.4104129895499999,-0.705873966,2.062183738,-0.3281796572,7.311873614013272,0.8353750740600192,2.2042145341477384,9.155832111714309,5.93778939615625,-0.41560338056250007,5.4268376750575,-0.967248008970625,-0.744808936230625,0.08774725277468752,0.83814696665,-0.0045742908299999975,0.996924514581,10.178591413095221,1.6527117638120918,3.6009768693072335,10.345196982247149,running
1970-01-01 00:00:01.600,10.189835309,-6.4730341435000005,0.870837895209,-0.13866233081,0.3846046943,1.5451381505,0.3117084504999998,-1.3287067416,-1.12057068945,12.103357934358215,1.5983115832007908,1.7658715789492871,9.33805396597256,6.187909743970588,-0.7719228372058824,5.158837688007588,-0.9185076749611765,-0.6783728403170589,0.1734761291114706,0.805244559390625,-0.087332569003125,0.8645810643290625,10.291812973169513,1.6495117531878978,3.486282788659862,10.285953275407467,running
1970-01-01 00:00:01.700,9.0442714695,-7.089484929999999,1.1304591597000002,0.129346905275,-0.8389223813000001,0.1035386026,0.65080070519,-1.3289289475,0.27252081035,11.547189307292854,0.8551266724752791,1.5046133381879476,9.8138022151466,6.3465965065,-1.1228985090277779,4.935038880879389,-0.8602935316147222,-0.6872922592605556,0.16959071097194445,0.7961596267905883,-0.16036765009117648,0.8297539905655882,10.361556102843032,1.6053792487038634,3.369713997455632,10.259722660948531,running
1970-01-01 00:00:01.800,6.830910444500001,-4.228566170000001,0.90792661925,-0.19073705375,-0.93849043525,2.5722777845,-0.1829197406499999,1.77538681,0.6857653037,8.084951459396056,2.744769192730273,1.9119968641188176,10.40966286353101,6.372086713763157,-1.2863547017105263,4.723085603951526,-0.8250537169902631,-0.7005132158915789,0.29604792536815794,0.7417663285994445,-0.052825735641666656,0.8217546190730556,10.241734805819508,1.6653471404947269,3.2887297122702535,10.267614250558134,running
1970-01-01 00:00:01.900,7.046264410000001,-7.0260748865,0.19202403725,-0.3060344755599999,-0.6182537618699999,0.6714738607,1.509474516,0.91543722135,1.08049401635,9.952509416082982,0.9626899604239434,2.069784032225246,10.940191906829476,6.405795598575,-1.57334071095,4.49653252561645,-0.7991027549187499,-0.6964002431905001,0.31481922213475,0.7821720226731579,-0.0018645273789473548,0.8353724820876316,10.227273536332682,1.6302142814911877,3.2245746764784107,10.301243133371702,running
1970-01-01 00:00:02.000,6.595067739500001,-7.301399230999999,1.59376946105,0.1796654462999999,-1.0029348357,0.5190674663,1.67530894275,0.4615993499999999,3.5313134194,9.967218785298968,1.1434985753492943,3.935722103961745,11.263581363099837,6.4148085576666665,-1.8461054023809522,4.358305713018048,-0.7524947453369047,-0.7109971285480953,0.3245453289997619,0.8268288686770001,0.02130866649000001,0.97016952895325,10.214889976759647,1.6070373431034786,3.260132047852578,10.347068763358756,running
1970-01-01 00:00:02.100,10.836196425,-10.4234347345,1.5339488980000002,1.7846666575,0.380099714,-0.1169772744999999,5.12321877495,-0.2743768690000001,3.9584041239,15.113707151034761,1.8284404703803054,6.480093864316391,11.321120561114519,6.615780733454545,-2.2359840083863634,4.229925857789954,-0.6371692270261363,-0.6614018175231818,0.30447611974977273,1.0314188642138096,0.007228402895238099,1.1124664144269047,10.437563484681244,1.6171011216160616,3.413463562922283,10.391343845074926,running
1970-01-01 00:00:02.200,5.777470112,-11.979516982,-2.4559333326,0.51677680015,1.650509238,-0.661623925,-4.292675495,-5.7636585235,-3.0468689205,13.524777134993961,1.85175193371818,7.805782004360392,11.149330877774995,6.579332445565217,-2.659615876804348,3.939236327773,-0.5869976606271738,-0.5608839455439131,0.2624717699780435,0.7894145751586364,-0.2550846392136364,0.9234057173847727,10.571790165129624,1.627303330837893,3.61311440116947,10.424299803018409,running
1970-01-01 00:00:02.300,1.6776677369999995,-9.4860458375,1.8967606425,0.96735297145,0.5665608049199999,-0.3522297963499999,-3.4103757145,-1.8886251445,-1.5915678734999998,9.81821448135346,1.1750866974319407,4.2107785202319,10.859814676526142,6.375096416041667,-2.9440504585,3.8541331742199585,-0.5222330509572917,-0.51390708094125,0.23685920471437502,0.6068149973473913,-0.3261081394434783,0.8140590395202174,10.540391178305617,1.6084609711126447,3.639099797650445,10.442446256081231,running
1970-01-01 00:00:02.400,4.040580153,-5.888886213,0.7390830738999999,1.06409591415,-0.92696070695,-0.073836164545,-2.6333062650000003,1.1315710545,-2.084582627,7.179938202561666,1.4131553509556847,3.5440428419335896,10.592934248442734,6.28171576552,-3.06184388868,3.7295311702071596,-0.458779892353,-0.5304292259816,0.22443138994400003,0.4718099447495834,-0.2653715063625,0.6932823034152084,10.405973059275858,1.6006487463063663,3.6351390911622428,10.44846577577569,running
1970-01-01 00:00:02.500,4.4105703830000005,-4.1208893065000005,1.9241284652,-0.4792860429599999,0.258770179,0.63657918575,-1.3346850872,2.8588004115,-0.41980350015,6.335387133428843,0.8378007974728121,3.1828224979607067,10.463658639920391,6.209748635423077,-3.10257640475,3.6600926046299618,-0.45956859045326925,-0.5000754027130769,0.24028322824423082,0.3995501434716,-0.14040462964800002,0.6487588712726,10.249412062127895,1.571308440581999,3.617046427434181,10.449050116704333,running
1970-01-01 00:00:02.600,11.301899435,-6.421588421,7.296464204500001,-0.2228828817499999,-0.30007872355,-1.2360494285,5.146782398000001,2.5666303635,4.149971127500001,14.906646791788031,1.2913335003010487,7.092194359596077,10.522579404782014,6.398346813185185,-3.225502775722222,3.794773034254778,-0.4508024530938889,-0.49266811829962964,0.18560424095740743,0.582135999415,-0.03628789914230771,0.7834208811275001,10.421902237300493,1.5609389983493713,3.7507059632865616,10.451773423670172,running
1970-01-01 00:00:02.700,2.2462621925,-10.179067371,-7.280013204,-0.68078926205,1.176110089,0.8331956490999999,-1.6799380779999995,-5.055608511000001,1.0297572615,12.714468082905636,1.5940275877315744,5.426027034582666,10.746885483355818,6.250058076732143,-3.473844368410714,3.3992449543171075,-0.4590162676994643,-0.43306889661035713,0.2087325055339286,0.49835547802925934,-0.22218866254444447,0.792544450770926,10.503779588929248,1.56212073368445,3.8127548918530842,10.462313140087517,running
1970-01-01 00:00:02.800,5.3705408575,-9.7637634255,-3.2650066015,-1.70372933125,-0.3353551625000002,1.78604105125,-0.0971845384999998,-3.073927641,-5.2483469245,11.61180663975451,2.4910036844467287,6.083060201620225,11.05990328421632,6.21972989675862,-3.690738129,3.1694431765303106,-0.5019374078218966,-0.42969945750310345,0.26312245538620693,0.4770861917246429,-0.3240364832035714,0.5767983302255357,10.541987418268052,1.5941511802624595,3.8938372243447676,10.482919696781613,running
1970-01-01 00:00:02.900,4.7540898325,-7.4187967775,6.229863167,-0.96826928875,-1.671659887,1.0778400002,0.4664468764999999,0.93467998485,6.005264759,10.791251588248118,2.212177944780306,6.095441262809702,11.365249387220732,6.17087522795,-3.815006750616667,3.2714571762126337,-0.5174818038528334,-0.4710981384863333,0.29027970688,0.47671931878586216,-0.28063246706379313,0.7639868277694828,10.550296223934053,1.6147520724130544,3.96975460498149,10.512330686462917,running
1970-01-01 00:00:03.000,4.042972863,-7.1327052125,-0.82178503275,-1.0996777714,-0.3814741223,1.283848226,-2.4052050115,1.3366384510000002,1.5686904190000002,8.239929845540617,1.7329396914778,3.1673969007212834,11.580133073633636,6.102233216177419,-3.9220292816451616,3.139417104955774,-0.5362623189349999,-0.46820704119,0.32233030427096776,0.38065517444300007,-0.22672343646166668,0.7908102808105001,10.475768276243944,1.6185645762538527,3.943009348172816,10.546775924758746,running
1970-01-01 00:00:03.100,3.655186057,-9.3913803095,5.1418766675,0.3560476305000001,-0.75584711155,1.1138799785,2.29213190065,-0.30361843105,3.6628211735,11.313589390318725,1.3924091990956908,4.331548424142406,11.658883371340332,6.025762992453125,-4.092946501265625,3.2019939662852814,-0.5083776330151563,-0.47719579338875,0.347066231590625,0.4423157139980646,-0.22920392015806454,0.8834557934779033,10.50195018605878,1.61149722071766,3.9555428667524803,10.581529282464421,running
1970-01-01 00:00:03.200,2.8782664537,-11.711371421,-0.1024427414999999,2.916642904,-2.679176092,0.3651339412,3.3888305425,-0.87787866595,2.168943107,12.060312303352529,3.977199159762331,4.118149778640137,11.603794162230132,5.930384309460606,-4.323807862469697,3.1018595205948185,-0.40458913189348483,-0.5439224691042425,0.34761373794242423,0.5343943023887501,-0.24947500596406252,0.9236272720254688,10.549173280522227,1.6831851582644681,3.9606243327489694,10.612507006093686,running
1970-01-01 00:00:03.300,2.9597721095,-17.16027737,3.643221974,1.9952562451,2.554334104,-1.076694608,3.6909183265,-6.1031594275,-0.4266670940000001,17.790683986495424,3.415397704128219,7.1451716494061985,11.461534791782805,5.843013362402941,-4.7013510832794125,3.1177819456949707,-0.3340054443348529,-0.45279727577764706,0.30572231600294114,0.6300465455436365,-0.4268593823742424,0.882709260933788,10.762158889521439,1.7341325860839902,4.057125766587068,10.637478411555131,running
1970-01-01 00:00:03.400,0.6996015495099999,-13.509278295,-2.400748849,2.02198073285,-1.20718687785,-2.9011427165,0.9731879235,-3.4942588805000003,-5.4176557065,13.738764042511601,3.736620840220593,6.519810826440548,11.303553152347831,5.696058739177428,-4.953006146471429,2.960109637275114,-0.26669155355814284,-0.47435126440828573,0.21409760078857143,0.6401389390129413,-0.5170770146720588,0.6974044089504412,10.847204751035441,1.791346536202179,4.129557680112169,10.656509118434922,running
1970-01-01 00:00:03.500,-1.9529919030000005,0.8433204593000001,-0.8542377354999999,-1.1014339627,-1.6558541954,0.22395186125,-6.208780289,8.0985097875,-2.4617518185,2.2923980629484255,2.001290665238347,10.497382315186785,11.194467405119271,5.483585110228056,-4.791997074088889,2.854155543586917,-0.2898788427009722,-0.5071707902691667,0.21437133024583332,0.4444555324982858,-0.2709173917528572,0.6071428024518571,10.609571231921914,1.7971783175642946,4.311495526828588,10.671452404176154,running
1970-01-01 00:00:03.600,3.0399317750000003,-1.66331085585,1.60349029285,-0.3636068366319999,-0.9064973594500002,-0.0358872712,-1.049738407,5.727349758500001,4.165769577265,3.818241652790888,0.9773613919986481,7.159477784740137,11.16261257162874,5.417540425492162,-4.70743798710946,2.8203537800534866,-0.2918714911855946,-0.517963400247027,0.2076075842608108,0.40295014529000006,-0.10429885980138891,0.7059935461966668,10.426021783837292,1.775021103359818,4.3906061451039085,10.684727003296494,running
1970-01-01 00:00:03.700,10.183853149,-16.34507227,-2.124228239,-0.0697129369999999,3.578801274,-0.8119687287799999,0.94499182725,-11.425285338,-4.012914896,19.374844466041147,3.670418459642687,12.146342682915947,11.19146464868961,5.542969707689737,-5.013691520869737,2.6902332006047103,-0.2860252134438684,-0.4101538035563158,0.18077662865447372,0.4175999204781082,-0.4102714673202703,0.5784554801913514,10.661517117579498,1.8248999811567357,4.600220646125855,10.69806220449105,running
1970-01-01 00:00:03.800,5.211268663,-17.18540096,0.766750127,-2.5997659565,6.3853390215,0.14858859776,2.8608720301,-7.261793852,-6.096881269,17.974516210212425,6.895898492542594,9.904049673231478,11.240491623684822,5.534464552697693,-5.32578663469359,2.6409131217943336,-0.34535189916325637,-0.23591039778564102,0.17995129452897438,0.48189655494184214,-0.5905746879697369,0.40278872363368423,10.849029914826497,1.954925584012783,4.739795094207582,10.711970651137044,running
1970-01-01 00:00:03.900,0.4362415074999999,-4.38185635195,7.0763245835,-3.0199525355,-4.4191746115,-0.3268796429,-2.535827458,2.1899011135000004,5.3092303275,8.334587053540018,5.362468448815478,6.2780581754314,11.283930955594904,5.4070089765677505,-5.302188377625,2.751798408336975,-0.41221691507167496,-0.34049200312850003,0.16728052109325,0.4045190161484616,-0.51928043665,0.5285949186046154,10.786168843294336,2.0401141556328506,4.779237737315886,10.72626965874849,running
1970-01-01 00:00:04.000,0.48065822952,-1.6166508195000002,1.77098783835,1.03874576105,-3.33377534175,0.38796436598,-2.253131986,9.652605533,5.9932253385,2.4456062907546934,3.5133413063108367,11.5830974821106,11.342517250632179,5.286854080298293,-5.212297217670732,2.7278761993129024,-0.37682758150773166,-0.4134989138265853,0.17266305389536585,0.3380777410947501,-0.26498328740875,0.665210679102,10.582740488354343,2.0760465251615816,4.949334230935753,10.741300087818825,running
1970-01-01 00:00:04.100,5.6973106865,-18.75703764,0.0077767369999999,2.670242548,-1.363792885985,0.0203106404999999,4.557778597,-6.2544856075,0.96831429,19.603210720811074,2.9984227225543676,7.799331286585674,11.487114004316162,5.296626856636428,-5.534791037250001,2.6631119264006906,-0.30427829270992857,-0.4361249607827381,0.16903561548119048,0.44099727416560985,-0.41106870985000005,0.6726034500995123,10.797513589127123,2.098007863194743,5.018846354244287,10.759057562021141,running
1970-01-01 00:00:04.200,5.28439918345,-16.75454426,2.4137598275,1.737707794,-1.79848703755,-2.743925929,1.2745485307,-7.3769550325,-1.8067438600000003,17.7331854046361,3.71258851819081,7.701185810268721,11.809661691604067,5.2963424921437205,-5.795715530802326,2.6573130403797443,-0.2567902441817907,-0.4678077997773256,0.10129232374906977,0.46084373265452383,-0.5769231461035714,0.6135713712876191,10.958808282511052,2.1355562505202332,5.082711579387727,10.783490216197489,running
1970-01-01 00:00:04.300,3.178715229,-3.0291638375,1.8595223429,0.20264857635,0.74225574715,-0.6038225229399999,-0.9121880530000002,2.50143671,1.0887012485000005,4.768426093087587,0.9780652733245943,2.876550549991607,12.374115124837193,5.248214599799545,-5.732839355954545,2.639181433618841,-0.24634845280606815,-0.4403063555289773,0.08526698632431819,0.4289127608951164,-0.5053333820081396,0.6246209033158141,10.818117778205973,2.1092496374021508,5.031405508936654,10.819640782302937,running
1970-01-01 00:00:04.400,2.242523432,2.205584288,7.307231737349999,-0.61825378606,2.1053614615000003,1.504364073,-5.536261081499999,9.052112579,-2.562476754,7.955447759735249,2.6604315235841143,10.915915720644417,13.17119831931616,5.181421462737333,-5.556429941644445,2.7429158848128665,-0.25461301576726664,-0.383735959595,0.11680247713933335,0.29334062811340916,-0.2881187010761364,0.5521868656495456,10.754502888906623,2.1214981237617496,5.165144377384558,10.871897616458785,running
1970-01-01 00:00:04.500,2.922533691,-12.039337636,-5.370690346,-0.5698441268500001,-2.22524018595,-0.2045574785,-2.6671626565,-0.7769391540000001,-5.081238985,13.503005912805259,2.306135290064854,5.791060413078955,14.10253975446134,5.1323152068299995,-5.697362717608696,2.566533140664761,-0.26146586600819566,-0.4237686601679348,0.10981639114717393,0.22755166623311116,-0.29898137780777784,0.4269996245240001,10.814252954643552,2.1255119752031217,5.179053622622211,10.942128967284928,running
1970-01-01 00:00:04.600,12.57084322,-13.131062985500002,5.5691449635,-1.7467940448,3.534133196,-1.49894288185,10.912531853,4.782557965,1.0364758966,19.012266830009136,4.217607929273026,11.95953571070204,15.00819523246842,5.290581760301702,-5.8555265530957445,2.6304184985974257,-0.2930685932165319,-0.33955798237712764,0.0755874704451064,0.4598338442063044,-0.18851313122500005,0.4402491086995653,10.98867878177899,2.1700246550769493,5.326455407145685,11.028641015480321,running
1970-01-01 00:00:04.700,1.337587893,-23.6374979,10.158729076499998,-4.9573309420000005,-0.8009734155,-0.061237454,-0.4033787248999999,-19.6042790415,-2.7913250925,25.76276818965173,5.02199547058943,19.806109332847736,15.728394357371993,5.208227721399584,-6.225984289489584,2.7872583023037287,-0.39024072548285416,-0.3491708039005208,0.07273695118583336,0.44146761933170214,-0.6016145335712767,0.3714922108017022,11.296472311109673,2.2294407137334593,5.634533150245729,11.126552543436398,running
1970-01-01 00:00:04.800,4.555336118,0.81326059975,6.190531136,2.3725307585000004,-2.371461749,1.2165786921,-1.467751503,4.3351318835,8.965635063,7.72885215907553,3.568304463056715,10.066294005481463,16.168898316879382,5.194903402962857,-6.082326230525511,2.8567128499301835,-0.33385763397299995,-0.39044204767806123,0.09608066018408165,0.40169222094979173,-0.4987656498822917,0.5505368535558334,11.223663736578361,2.2567644637196485,5.726861501396474,11.229457559220949,running
1970-01-01 00:00:04.900,6.634549379499999,4.3577786675,1.1101201775000002,1.22696310265,1.1235008834999998,0.684912473,0.53989565365,12.3108177165,1.0522910955,8.01497643118397,1.799110276264568,12.367499210244125,16.335552766595143,5.223696322493599,-5.873524132565,2.8217809964815803,-0.30264121924054,-0.3601631890545,0.10785729644040001,0.40451269916816335,-0.2373455811806123,0.5607767360444899,11.159489990470474,2.2476113799705466,5.862384719944385,11.331579463368433,running
1970-01-01 00:00:05.000,11.2181510905,-34.498370175,6.051598072,4.169719815,0.9027559755,-2.9847524165,6.5393071175,-23.878440382,0.8397443295000002,36.777796261408184,5.206753179737559,24.771911980964283,16.320316857408017,5.3412346512780395,-6.4347956235931365,2.8851107430603724,-0.21494786562798038,-0.33540006818088236,0.04721789030431374,0.5272085875348,-0.710167477197,0.5663560879136,11.661809721273174,2.3056337682012726,6.240575265164782,11.42939784364372,running
1970-01-01 00:00:05.100,6.629763603,-3.2434711460000005,-2.5971097945,0.74622631055,-0.399265051,-0.11384665965,-0.1894402503999999,-2.4399917105,-3.6665252445,7.82424755432022,0.8539480952731029,4.408271149139549,16.246464608095646,5.366014054195769,-6.373423999024039,2.7796834250303655,-0.19646374685532692,-0.33662824092740384,0.04412049511288463,0.5131566495360785,-0.7440855994186276,0.48335841472901975,11.58801044883177,2.2777167360295767,6.204647733478014,11.522033742960103,running
1970-01-01 00:00:05.200,-1.2276675553999998,3.102144897,-6.1236817835,-1.8227682115,-0.38582640698,1.1350305675,-5.9204626085,9.094333648,-8.145729065,6.973517704439755,2.181660000627361,13.568776068613461,16.201030665456855,5.241604967222264,-6.194639680231132,2.6116954022279057,-0.227148736754283,-0.33755650821141514,0.06470370402584907,0.3894332022661539,-0.5548852292759616,0.31741442473423087,11.500944547994187,2.2759043447955727,6.346265586076772,11.610316703761928,running
1970-01-01 00:00:05.300,3.08060956,-0.4567300084999999,11.895617965,1.560103893,-0.7368345260000004,-1.77313691365,0.7533540725000001,4.2469279768,1.3914256095,12.296523261924834,2.474037952459026,4.532108209812661,16.189955154591143,5.201586533755186,-6.088382093717593,2.7836198941310926,-0.1940514658329074,-0.34495054557787036,0.030669618513333347,0.39629963378000005,-0.464284980104717,0.3376787867109435,11.51567748714105,2.2795734856782293,6.312036201618959,11.695124823221727,running
1970-01-01 00:00:05.400,2.4617661240000004,-21.94143677,-5.388636588999999,-0.40499171605,-0.9055809975,3.7069265845,-8.134804012,-11.023876669,-5.1521890180000005,22.727171937341687,3.8373688819261376,14.637142644798322,16.141290223887733,5.151771617214182,-6.376619451468182,2.6350334126196184,-0.1978867431095818,-0.3551438265219091,0.09751065425854548,0.2383162329322223,-0.6598329743435186,0.23601456810518526,11.719522840781062,2.3078970383372823,6.466204839455613,11.77596419414293,running
1970-01-01 00:00:05.500,19.098163605,-18.20773506,15.351453306,-3.8194751738,-0.0829988714999999,1.26002523468,15.17999077,-12.156256675,-5.701492786499999,30.527505428789922,4.022802879582245,20.26607303155396,15.955373467919431,5.400814331281786,-6.587889373049108,2.8621123392871253,-0.2625579650861964,-0.35028409518223214,0.11826984319464287,0.5099830426970909,-0.8688588598100001,0.12805988893054554,12.055379672709792,2.3385203569309425,6.717111533857401,11.850596502603223,running
1970-01-01 00:00:05.600,0.7701897919,0.0544366834999996,3.9207895694,-0.7876111741474999,0.6026008128000001,-0.4762317985499999,-1.6650469304999995,7.0037155145,5.2327616235,3.9960914048071126,1.1001162789357277,8.899786879312888,15.572145507863063,5.319575304275087,-6.471357336969299,2.8806856240259475,-0.27176942489428946,-0.3335668160948246,0.10783998983070178,0.4711432217471429,-0.7282771745544644,0.21921527704785723,11.913988650465885,2.3167939695976933,6.756087879311964,11.915886836028834,running
1970-01-01 00:00:05.700,3.0040391981,-3.63365077955,4.83066019295,3.0114769935,1.8413990735,-0.8838959932,-1.5684040784999995,6.8237607495,5.6765818595,6.750033140007339,3.6388207371429377,9.013721968614115,15.015557694922782,5.2796522679617235,-6.422431361841379,2.914305875214293,-0.21516172802542238,-0.2960674042052586,0.09074109357155175,0.4353616901638597,-0.5957852811500001,0.3149585504242106,11.824954934768323,2.3395875345553696,6.795695494913756,11.969329437044246,running
1970-01-01 00:00:05.800,12.55035448,-28.411478045,0.79411798715,1.7668757143,4.8331762555,-0.438359253085,6.03034091,-12.739209176,-1.927979826695,31.070148143397837,5.164649198278366,14.225665823884837,14.39057108241103,5.402884508843728,-6.795127068335593,2.878370487281,-0.18156787307075423,-0.20913107098991526,0.08177329108584747,0.5318268491265518,-0.8051546586474139,0.27628719909456906,12.151144650168824,2.38746993563542,6.923798431620154,12.010367431033515,running
1970-01-01 00:00:05.900,3.30927372,-9.5243315675,0.04845466183,2.2375335095000004,-1.26941698984,-0.9628480075,0.8178834915,-8.06248283245,-3.1635966303000003,10.082982307621725,2.746825801862316,8.699477367547129,13.836289945506412,5.367990995696333,-6.840613809988333,2.8312052235234835,-0.14124951669457494,-0.22680250297075003,0.0643629361094167,0.5366752667938983,-0.9281602209152542,0.21798408334211872,12.116675277793039,2.3934592000725354,6.953894684771458,12.040799472941396,running
1970-01-01 00:00:06.000,-2.352892399,0.22088743745,-3.9496529105,-1.4729818105,-3.1496047970000003,1.893473804,-6.7533941265,7.834922552,-10.4652321335,4.602678786827984,3.9591575919358784,14.714463198898011,13.46106806666962,5.241419136766885,-6.724851494456558,2.7200436147689997,-0.16308119364220489,-0.2747172946761475,0.09434836017319675,0.415174110239,-0.7821088413666667,0.03993047972808341,11.993495007449349,2.4191263868243937,7.083237493340235,12.064082564641858,running
1970-01-01 00:00:06.100,8.821589231499999,-0.7139585014999996,4.518247366000001,0.736834503875,1.83842118095,-0.7142331301500001,3.346796991,7.0329380055,1.75203120725,9.937038420553018,2.1054326132341963,7.983287570878984,13.29328736810481,5.299163815714193,-6.627901607473387,2.749046901079178,-0.14856642432741127,-0.24063441603701616,0.08130672323250003,0.4632335017268853,-0.6539933192868853,0.0679977047694263,11.960326352821989,2.4140668098310027,7.097992412644149,12.083908448568682,running
1970-01-01 00:00:06.200,3.6191442015,-16.473088265,-4.2393338685,-2.61404459195,3.940499425,1.395480573,-1.977848172295,-9.300811769,-6.444584369499999,17.390594969302892,4.930327664237822,11.486933909909261,13.273530142305123,5.2724968377107935,-6.784174411561112,2.638120222196968,-0.18770099841665872,-0.17426721221103175,0.10216662560976192,0.4238612166620162,-0.7934581329919356,-0.037043941589757975,12.046521092766131,2.454007458313651,7.168781791632295,12.102791332596242,running
1970-01-01 00:00:06.300,4.2130130525,-18.902102470000003,15.473637104499998,-7.60031414,1.402657986,-0.7769976854,2.8147102595,-11.1968884465,-2.766263127,24.788553850692352,7.767621891897833,11.872030846325305,13.292061056701707,5.255942403566875,-6.973517037474219,2.838675173482953,-0.3035230787538984,-0.1496277559889844,0.0884296832502344,0.4618112014689683,-0.9585919474920634,-0.08036488104071421,12.245615354608727,2.5370326838384036,7.243436538532185,12.121373672035391,running
1970-01-01 00:00:06.400,-1.3905290364999998,-4.38768875615,4.335046887,-1.51841357325,-1.1338088512,-1.1474766133,-4.545444012,3.3594126705000003,5.8638775345,6.32281702524145,2.2153566007665075,8.144432116271606,13.25004501914269,5.153688996796615,-6.9337350639153845,2.8616962767678307,-0.3222137017461461,-0.1647690036076154,0.06941574022638464,0.38357283875851567,-0.8911231253359375,0.012513906702109459,12.15449538031077,2.532083821021913,7.257514594434363,12.138737846606272,running
1970-01-01 00:00:06.500,-1.6357933285,-3.9675989745,4.4403311015,2.266396105,-0.0720036328,0.34237990248,-4.713387727500001,6.600154637999999,7.800756214,6.175289606728317,2.2932422082104154,11.252993496200029,13.110299123569993,5.0508180524739394,-6.888793608015151,2.88561498623347,-0.2829923410378712,-0.16336346768628787,0.07355156086659091,0.305158060816077,-0.7758726982076923,0.13233301912207698,12.063901353438307,2.528465008706587,7.318983500615373,12.153458472014815,running
1970-01-01 00:00:06.600,5.029414058,-21.139242170000003,1.2993027270000002,3.8164972065,-0.33665320275,2.090777397,0.0795419214999997,-13.4916710845,-3.5313634875,21.768113213255393,4.364669108873,13.946398949207552,12.911849156873885,5.050498589869851,-7.1014868701343286,2.8619386838568506,-0.22180592988058953,-0.1659498816424627,0.10365940916708956,0.30173963446280305,-0.9685363101212121,0.07682246599143946,12.208740336420654,2.555871040052355,7.419398886200104,12.164777735967935,running
1970-01-01 00:00:06.700,1.03011013565,-15.9943738,5.2736316915,2.6599344015,-2.800734699,-1.384408951,0.7876975537,-7.9538276195,1.9174547195,16.87282760426623,4.103163903389031,8.21951785922744,12.743964026561619,4.99137523024897,-7.232264619102942,2.897404757498662,-0.17942739559558085,-0.20469671719183827,0.08177605092933826,0.308992737735,-1.0727943893656715,0.1042945891781344,12.27732985506544,2.5786253468661293,7.431340960424392,12.173295181417842,running
1970-01-01 00:00:06.800,2.47373006876,0.9509974422,-1.850100577,-0.59412530835,-0.8089144826,0.27511034905,-0.987991214,7.313270569,-7.5002806185,3.2321213982729717,1.040679213944634,10.522084508812384,12.69547289722987,4.954887619212898,-7.113666618214492,2.8286003323610003,-0.18543751027318112,-0.21345349640065217,0.08457799727891305,0.28991944432713235,-0.9494699046838235,-0.0075373991700734486,12.146239877430766,2.5563362724759626,7.476793071430098,12.180862974400624,running
1970-01-01 00:00:06.900,7.3156065935,-0.4434199335000004,4.47981271155,-0.8267054297449999,0.7521056535,0.27465218285,2.3217539790000004,8.479866268,2.8698458675,8.589728924643127,1.1508860078829688,9.248496567841359,12.805995303446883,4.988612175988429,-7.018377379861429,2.8521890806351284,-0.19459848055134998,-0.1996597942592143,0.08729334278707145,0.3193663216412319,-0.8128128587028985,0.03416380759326095,12.09543257810523,2.536258411553206,7.5024699336969265,12.189793436244143,running
1970-01-01 00:00:07.000,-3.352344513,-15.00195122,-0.4999502899999999,0.7011762856999999,-0.900999725,-1.21940381845,-6.284493446499999,-7.4228293895,-9.632437946,15.380074916383593,1.6704473534142177,13.688576069418874,13.044484041460356,4.871133912763239,-7.130822081835212,2.804975850062803,-0.1819819345478098,-0.2095378214527465,0.06888915741753524,0.22502546781064292,-0.9072416662857142,-0.10393050317235707,12.141695146249996,2.524063889607586,7.590842878492955,12.201831332092258,running
1970-01-01 00:00:07.100,10.2927267555,-19.714764595,0.3870390652000001,-4.438874364,1.94906093195,2.982003689,4.6050992014,-8.03557682,-4.629073858,22.243245409284185,5.691642130092141,10.354021357312106,13.32623271208915,4.946433813356806,-7.305599061184722,2.771393394717486,-0.2411054405124236,-0.17955728321104167,0.10934908146729168,0.28671664715697187,-1.0076407529577465,-0.16766491662063374,12.281994455458804,2.568058031836538,7.6297608852368874,12.217448017925548,running
1970-01-01 00:00:07.200,1.7386847735000004,-10.0905330175,8.002795396,-2.8658661840000006,0.0865112393999999,-1.13617588595,3.6262452605,-6.8404788963,15.4486720585,12.995638324803334,3.084083141381165,17.280141046620628,13.557796382860072,4.902492045687534,-7.343748841408218,2.8430564358309454,-0.2770610671355411,-0.17591250892869864,0.09228709561226028,0.3330989890089584,-1.0886523938375001,0.04922865247826396,12.291770398874482,2.5751268689535878,7.763793943033883,12.2358089544315,running
1970-01-01 00:00:07.300,1.3806587159,0.3812065124999999,4.315904379,0.4060606806,0.8236511945499999,0.0108425393999999,-3.0024060012,11.2386445995,7.126834748,4.547369294837887,0.9183703649800649,13.642336594411258,13.683799428289396,4.854899703393108,-7.239357552841892,2.8629597864143106,-0.2678296921661419,-0.16240489131412164,0.0911864935012838,0.28740713982801375,-0.9197853117369862,0.14618216063609596,12.187116329901015,2.5527382675485404,7.8443219245596,12.255376393267419,running
1970-01-01 00:00:07.400,-4.105335890999999,-13.3715419745,0.0747756958,2.9890283345000004,2.098871112,1.30454061905,-6.475074768000001,-0.8122828010000003,3.2682833670000004,13.98776282893124,3.878321358008297,7.298497980201099,13.710693015002992,4.735429895467867,-7.321120011797334,2.8257839985394533,-0.22440491847726,-0.1322545446032667,0.10736454850860001,0.19602224918168923,-0.9183325751054054,0.18837271747885143,12.211124949888085,2.57041270875467,7.836945925311513,12.274780614890558,running
1970-01-01 00:00:07.500,7.070342302,-29.94841862,2.9309085610000003,3.367448211,-2.0412988066000004,0.9416974338,4.6829416751,-17.396248815,1.5021888015000004,30.91096477140687,4.048876674883935,18.07805262635136,13.696911182127943,4.766152427132764,-7.618847625063158,2.8271672164665658,-0.17714369308940128,-0.15737354805059214,0.11834261278875002,0.25584784152726675,-1.1380381249706666,0.2058902652658001,12.457175473855438,2.5898661819932136,7.97349401465871,12.293492859196315,running
1970-01-01 00:00:07.600,0.1716850104,-2.728565691499999,-1.3725828228,1.04867203535,-1.4793193156150002,-0.6453601122,-1.616398692,1.1944322589999996,-4.8168634175000005,3.0591714697075307,1.9247307213466358,5.219347309356691,13.71586484983221,4.706484019123247,-7.5553374700818186,2.7726250081644026,-0.161224008304474,-0.17454167490207795,0.10842439558110391,0.23121301871769742,-1.1073477251815789,0.13980140101888167,12.335123473801568,2.5812280591276737,7.937255242220527,12.311965222711066,running
1970-01-01 00:00:07.700,-0.69616185135,2.143370986,-4.5028434995,-2.514094591,-0.78211354465,0.78096824895,-4.444020270999999,12.329280375,-9.4644722915,5.035303375953735,2.7463220159130057,16.16591186698079,13.81118663537802,4.637219328476154,-7.430995053978204,2.679349770886654,-0.19138901577492948,-0.18233105784756412,0.11704675267557693,0.17049570326681826,-0.9328460615428572,0.015070573843311773,12.241536036649673,2.583344648317229,8.044120912671959,12.331186010052951,running
1970-01-01 00:00:07.800,3.7209888695,-6.49471879,7.1421269795,1.5038295985,0.37857259795,-1.1535850170000002,-2.20953512195,3.751322746000001,3.1645631805000005,10.345873965954919,1.932764616990433,5.382279064036337,13.96923840964465,4.6256214745650635,-7.4191434557000004,2.735840621628595,-0.1699305523030949,-0.17523101157164558,0.10096280622398736,0.13998248755891032,-0.8727926152923076,0.055448684185064184,12.217540314235814,2.5751094580472693,8.009994735125348,12.35192085055411,running
1970-01-01 00:00:07.900,5.3633624315,-28.35524845,-1.93743859205,-2.2960983664,1.305609703,1.945930302,1.2232158180000003,-13.845189095,-7.0869345665,28.92299153840795,3.280751308007711,15.601607595487232,14.126558562131601,4.63484323652675,-7.68084476812875,2.6774246314576127,-0.19650764997930623,-0.15672050263950002,0.12402489992118751,0.1536943018682912,-1.0370001656683545,-0.03496123038056954,12.426358454537967,2.5839299811717753,8.106091100446385,12.374103821948829,running
1970-01-01 00:00:08.000,2.29411870265,-16.096219060000003,8.0745799894,-4.4788085220000005,-0.8047910925000001,-0.41163469106,1.2290044426,-9.818635463,11.147583009,18.153514553787506,4.569120002603481,14.90585996236907,14.208820116846274,4.605945402775185,-7.784738277904938,2.744056179086531,-0.24937556197956173,-0.16472137411925927,0.11741181855104939,0.16713567862743756,-1.1467706068849999,0.10482057261168758,12.497064085392898,2.6084384999548824,8.191088211220418,12.396754640404353,running
1970-01-01 00:00:08.100,3.6671503785,-1.9206888675,2.4749263525000003,-0.76775863765,-1.5629290045,-0.4626404345,0.510941446,6.118355751,5.3606936935,4.823100462831983,1.8017315478250064,8.150605813837767,14.176462190980132,4.594496682966952,-7.713225480217074,2.740774108030598,-0.25569730680481095,-0.1817726866848781,0.11033801058701222,0.1713801942740124,-1.0570776888864197,0.1697078950917902,12.403479163166546,2.598600610294762,8.190588428536682,12.418458391021131,running
1970-01-01 00:00:08.200,0.4733302594999999,-1.0791630744999998,6.8524458995,3.0472878215000003,3.0414084195,-0.4707341788,-2.98082202655,8.92529249,7.254728794,6.953031661189024,4.331018229972972,11.881802719306053,14.048434706814366,4.544844075455301,-7.633297017497591,2.7903123223856507,-0.21590230525896986,-0.1429391793814458,0.10333714083536145,0.1329387037761586,-0.9353414671926829,0.2561105889809147,12.337811120974047,2.6194731117366685,8.2356032369607,12.43809665988611,running
1970-01-01 00:00:08.300,7.091727972000001,-27.72070074,4.2656549215,3.4612896445,-0.1814217564999998,0.477606193155,-2.35579872128,-21.452463148,-3.68322277065,28.929667593230327,3.498792296292321,21.89347146319462,13.891594350481846,4.575164121842738,-7.87243277609881,2.8078759247560594,-0.17212621061898212,-0.14339730529952383,0.10779272479154764,0.10295391552246995,-1.1825357043108433,0.20864874127451816,12.53533322183424,2.629941197267093,8.400155866192433,12.455400203821775,running
1970-01-01 00:00:08.400,5.189733446,-10.9763257515,2.3611177205,1.50375324495,0.1009424324999999,-0.78150273865,3.9437173605,-7.912277221,0.1463544364999998,12.368829254769109,1.6977071970437427,8.841858235831866,13.78421559790334,4.582394349185765,-7.9089491640447065,2.802619945882459,-0.15240998172993528,-0.14052272014894118,0.09733042522164706,0.14867728986744053,-1.262651674747619,0.20790714240815486,12.533374351633473,2.618973738440936,8.40541422773576,12.471033326105086,running
1970-01-01 00:00:08.500,0.1333998590499999,4.088436633200001,-5.08699131,-1.5788874923499998,0.9436063395,0.61199259755,-2.3511395455,9.294192075,-8.566549777999999,6.527678776877876,1.938508080173992,12.856735144987573,13.774432212013247,4.530661855114419,-7.769444678030233,2.710880280116384,-0.168996929527843,-0.12791656829255815,0.10331486908593024,0.1192676800395883,-1.1384535129858824,0.10467823746217655,12.463540682159572,2.6110613470657387,8.457782709115191,12.486189127104018,running
1970-01-01 00:00:08.600,1.822433531,-4.270440474050001,2.4903301005,1.008356086995,-1.12892206025,-1.3350830675,1.5611913205,6.465393542,18.944694995,5.26874461582395,2.0183393702309287,20.078349046814527,13.856166145157472,4.499532793917701,-7.729226238904023,2.708345220580563,-0.155464136234477,-0.13942237854494255,0.08678155947,0.1360342339984303,-1.0500366867651163,0.32374819975912794,12.38084187679939,2.604248450780281,8.592905573507045,12.501935989380494,running
1970-01-01 00:00:08.700,-1.8524932561,-19.719550607,2.0558832885,-1.6440954208,-2.646113932,1.96509572865,-6.246804475499999,-8.506804226,-10.750863075,19.912786432387197,3.683282492095672,15.065501689356937,13.977228293325938,4.427350679712955,-7.865479924905114,2.700930880443284,-0.1723804008318125,-0.16790750983420455,0.10812603866522728,0.06266827182028742,-1.1357466584804599,0.19645381729063227,12.466432155840163,2.616510201249774,8.667303230011067,12.518700674652603,running
1970-01-01 00:00:08.800,13.645668984,-24.607190135,7.2056861504,-4.6743558645,-1.159617126,0.99453571455,8.6953544635,-12.900869371,-6.010731697,29.045481597987102,4.917663664222424,16.678444630925146,14.076525993397471,4.530927289873484,-8.053589028389327,2.7515461081956065,-0.22296439480561236,-0.17905031451022474,0.11808569794483148,0.1607669785439205,-1.2694412347590909,0.12591761826460235,12.652713610246307,2.6423658581371074,8.758338927748726,12.536204329919398,running
1970-01-01 00:00:08.900,1.517199129,-0.4434199335,6.548407791,-1.7904696465,0.744622767,0.07757760026,1.2524710894999995,4.320289612,7.041419029,6.736479721018464,1.9406861941681017,8.355547145672253,14.127025835388718,4.4974414214193335,-7.969031594001667,2.7937334602267665,-0.24038111982443888,-0.16878728027122225,0.11763560797055557,0.1730333168692697,-1.2066352701887642,0.2036198813065731,12.586977678143777,2.6345694174263405,8.753813177388317,12.553880124424614,running
1970-01-01 00:00:09.000,-0.359671354,-2.119442582,4.1723348495,3.4005103115,1.566212356,-0.5237251820500001,0.2043581004999999,8.1769833565,11.3888928905,4.693589078480903,3.7803147473481893,14.021829421191779,14.154409826391184,4.444066555755385,-7.904750396067583,2.8088829260429558,-0.20037132387581869,-0.1497213502023077,0.1105876872010989,0.17338137002072226,-1.1023728410033333,0.3279006925198334,12.500237144081545,2.6471600254474597,8.812346691208354,12.571468362907764,running
1970-01-01 00:00:09.100,5.807380676,-21.735353945,-0.5165505856,3.2304657700000003,2.9808582065,0.8435036826550001,-0.3024752139999997,-4.2869286539,1.042688191,22.503735377440986,4.475815367176425,4.422267201601919,14.216561869787602,4.458885187497174,-8.055083043338586,2.772736909612054,-0.1630796163336902,-0.11569331154250001,0.11855416541255435,0.16815217678972533,-1.1373679598263737,0.3357555001954396,12.608970820531106,2.6670367139445137,8.764104059454437,12.589349814069498,running
1970-01-01 00:00:09.200,3.850350678,-20.31446648,5.965456365,2.74743834135,-0.2421245574999997,-1.01988583785,2.3596773145,-23.40658188,4.051221608500001,21.519512502687824,2.940613688180004,23.87150076670689,14.35533254552626,4.452341805674624,-8.186904370614517,2.807067226336656,-0.131783724315586,-0.11705278730548388,0.10631287505489248,0.1919731021996196,-1.3794246328717392,0.3761410013726631,12.704783096683327,2.669978401839519,8.928314893228922,12.608338875698069,running
1970-01-01 00:00:09.300,0.8887840509999999,0.7438687085000001,-2.6928226945,-1.9527260065,1.89759699245,0.7281299531500001,0.1287140249999999,6.502572775,-7.611268520499999,2.9316500147206637,2.818543317192579,10.011564737120624,14.55098029006054,4.414431616795106,-8.091896146368617,2.7485577590937127,-0.15115545072180317,-0.09562034284000001,0.1129279503537766,0.1912928970684409,-1.294671972572043,0.2902548774815592,12.600813595811386,2.671558879662424,8.939962741012703,12.629005273723198,running
1970-01-01 00:00:09.400,1.191625703365,2.905783892,-5.4231829645000005,1.4474788905000002,-2.4100215435,-1.28842955805,-0.3970521688,12.59674263,-10.0757021915,6.266934283233694,3.0924827735387876,16.13553066877585,14.711591659774736,4.380507344022158,-7.976131093333158,2.662539435687463,-0.13432772081420524,-0.11998246074168424,0.09817681868636843,0.18503390700601066,-1.1468909661617022,0.17997873844984053,12.534141181994778,2.6759896574927016,9.016511335988906,12.650927235681635,running
1970-01-01 00:00:09.500,-4.38424921,-7.464260818,-13.90558958,0.7640172243000001,-2.5702924730000003,-1.5184135440000002,-4.39615011208,-2.8790841105,1.1976504305000004,16.379934440098356,3.081510247652955,5.3897706516095285,14.714269047727852,4.289207796584427,-7.9707991112984375,2.4899547584407187,-0.1249699609692656,-0.145506523369375,0.08133733574171877,0.1368109173314211,-1.1651245782073685,0.19069107205036853,12.574201528433356,2.6802138303068705,8.978335118258597,12.672420379557117,running
1970-01-01 00:00:09.600,13.618152139,-30.85694313,-5.339434147,-4.1150488255,-2.480650723,3.0636280775,3.6836032885,-21.45736313,-9.166154863,34.148419641605,5.698514880476816,23.6221455556482,14.485802404661381,4.3853824805268555,-8.206738740357217,2.409239408900093,-0.16610479462422165,-0.1695801749119588,0.11208260112067012,0.17375667119776048,-1.376502063121875,0.09322392689359386,12.796616148156778,2.7113303359787255,9.130874810314738,12.69111503960974,running
1970-01-01 00:00:09.700,5.5286169030000005,-8.174031677,2.286940217,-2.932066798,-2.01304714365,0.614894151505,14.8223285665,-3.195592403,21.022927285,10.129683818997943,3.609358575709326,25.92058461088003,14.08040211304838,4.397048137899031,-8.206404994812756,2.407991457962337,-0.19432889669948467,-0.18839106234806127,0.11721333122663266,0.3247728763039691,-1.3952555717804123,0.30899406460603107,12.769402552961278,2.7204938894453643,9.303964602073144,12.705291438318296,running
1970-01-01 00:00:09.800,4.0525442365,0.75119674222,5.291577697,0.4376720789999999,0.20845163615,-0.05703786015,0.3822238445000001,10.479843141,9.8377347,6.707324791427588,0.48812114361117886,14.37895098242056,13.702489272155404,4.393568300511162,-8.115924169186162,2.43711859168999,-0.18794504846009594,-0.18438255024202022,0.11545321818242425,0.32535911067331635,-1.2740810951193877,0.4062261119059695,12.708169444258917,2.697944669790474,9.355750177382813,12.715364143710591,running
1970-01-01 00:00:09.900,4.9239801765,-5.437540089285,2.15877469645,3.1874773505,2.419642329,-0.62046810985,0.5243582725,7.302862645499999,3.9638375045,7.6467464448077065,4.049649557132058,8.325788982376338,13.646394881970732,4.39887241927105,-8.08914032838715,2.43433515273759,-0.15419082447049498,-0.15834230144960004,0.10809400490210001,0.32736920321702023,-1.1874452997595961,0.4421615805180304,12.657555214264406,2.7114617186638896,9.345346528948403,12.724674451093192,running
1970-01-01 00:00:10.000,10.449605583,-33.23077202,4.2967616915,3.049349487,1.6553198095,-3.2743704315,9.1328763965,-24.75501537,1.6177678110499998,35.09901176556146,4.770756511107203,26.435532715138397,14.169664031235092,4.4873933931810495,-8.490295537947151,2.39932067775259,-0.12008416815549498,-0.1455030547636,0.0780288656721,0.4154242751498501,-1.4231210004619999,0.4539176428233501,12.903300917861001,2.75333635298413,9.516248390810302,12.761072924338693,running
1970-01-01 00:00:10.100,1.4178969787,-1.6944175658,-2.0331515075,-0.1388913989999999,0.7455390767999999,-0.2719033882,-3.2899137735000004,2.442255497,-6.2927601335,3.0025302299806587,0.8056368836309651,7.509126090795031,15.354870845447422,4.496396388449551,-8.57092917436015,2.32527178787759,-0.11930381081074497,-0.13381143828610004,0.07719964048960001,0.38729299758925,-1.395978864365,0.40136139034485013,12.849847513421409,2.7562719090620686,9.579605364809703,12.81909225982929,running
1970-01-01 00:00:10.200,-1.84411846855,1.0730313807000005,-3.7127634285,-1.15610480325,-0.6471926866,1.5664414765,-6.462879896,8.408818244999999,-7.8148493765,4.282146838446951,2.051627546360632,13.173796400618475,17.02726371252417,4.46041282248005,-8.619075756458152,2.2114078249925897,-0.12443416438224497,-0.1317246313896,0.09523185200310001,0.3233028540532501,-1.3114228760525,0.31499914049585015,12.794370008568471,2.7658240513492536,9.703091510102233,12.901241987143925,running
1970-01-01 00:00:10.300,4.464408873,-3.7377386095,11.368898155,1.4127370417,-2.14163059,-1.28209204955,-3.7317717075,7.4689741135,-9.2292295705,12.77315473001993,2.8681296268708523,12.44549608693933,18.77813548744227,4.49916159460855,-8.69835595408315,2.2382448210875903,-0.10212831280324497,-0.14592606743460002,0.08008436705385001,0.29571634119175,-1.2209222137225,0.21326018093385016,12.825489611734284,2.7833538991336066,9.80671569992237,13.004019559476768,running
1970-01-01 00:00:10.400,5.2281677140000005,-34.1188097,-8.7308117145,-1.9115701915,-1.2056598067,2.29556393635,-3.978971003,-20.256620405,-7.618868828,35.60412878002461,3.2213863401327596,22.004773179772776,20.100053541448464,4.50102948914855,-9.09886362114815,2.0698200156925903,-0.12044075056224496,-0.14113702466360004,0.10157320942335002,0.24292416162425,-1.436018680244,0.13593188284020014,13.069101908694158,2.798639314822022,10.008670051654294,13.117931652553832,running
1970-01-01 00:00:10.500,19.787745595,-11.507981778,33.125338554,-3.1489175555,-1.9377601742,1.6363835039,15.96337986,-8.571838619,-5.238067389,40.265078848207175,4.043308946381385,18.86115754232859,20.583413254288434,4.68124492268655,-9.22642200926815,2.35112771417759,-0.147850993712745,-0.16279537731370003,0.12121653061185,0.41180679745825005,-1.492899943519,0.10190146205420014,13.41732629357643,2.8333632411536382,10.16187184824211,13.22979257333873,running
1970-01-01 00:00:10.600,-0.2400300499999996,0.9521938859,4.16500678645,0.0697892904999999,0.3771218192049999,0.48363831501,-1.712166071,8.7539668085,5.762245178,4.279201929381564,0.6172498937502493,10.61917685276912,20.084236374631697,4.64989445816755,-9.187710625629151,2.34455642517209,-0.11431089742774497,-0.14963238220215003,0.11736590216145001,0.40970494098675003,-1.3521898900740001,0.1935269117092001,13.396750853226706,2.804289747877753,10.203187671588394,13.32670467955031,running
1970-01-01 00:00:10.700,4.9754259585,0.6254240274999998,5.228018403,2.6759691835,1.4752724469,-0.6193227917499999,2.0191071035,11.466355322,6.5513447525,7.244183536106511,3.117819844699976,13.359424236540704,18.781182874665948,4.62066164385255,-9.14914281199415,2.31577974255709,-0.05281766696274499,-0.12041937600315002,0.09374825591395002,0.40398162551175,-1.220784095474,0.25259049055520016,13.351492474072751,2.7940055681053173,10.305262731213887,13.400216919406716,running
1970-01-01 00:00:10.800,13.378870011,-34.77249908,6.31615448,3.1695338490000005,1.3750171587,-3.7551071645,9.055527687,-27.7541809095,-1.8041349055,37.78908125973771,5.102690155550835,29.249821237137866,17.095190398624947,4.628119777562549,-9.45848393624915,2.27893475944709,0.011845862437255019,-0.09267316657615002,0.04180409604895001,0.42298144764675,-1.5059908520785001,0.19293648776520012,13.563751046926463,2.80643257748992,10.514631240870019,13.4489320194976,running
1970-01-01 00:00:10.900,4.409224272,-3.202793121,-3.4422249795,0.7584432363,-0.7725690530999999,-0.48035500955,-2.6620583535,-4.1381781095,-5.546677351,6.445778096259025,1.1844154759613827,7.414627595468332,15.512861323417935,4.5523091758825505,-9.46054325884415,2.1431046860520904,0.03968522684525502,-0.08698236059215002,0.03843756416945001,0.33596772379675,-1.5779626500185,0.06924400148020014,13.468339017465642,2.7939389083485002,10.492663894422144,13.478462920460915,running
1970-01-01 00:00:11.000,-3.75344141555,-1.0923235566,-1.1020444038,-1.5161992315,-0.8192225434,1.82528790825,-11.001602652,8.310088398,-5.269652366500001,4.061526200853093,2.510311063039721,14.760151291867802,14.396052498704409,4.44202398114205,-9.431658899395151,2.07245360603909,0.025634213010805026,-0.07526707336115003,0.06297071674895001,0.22292344992175,-1.5152010213734999,-0.024474281694799867,13.406811568312834,2.798137828755679,10.594378150472258,13.49879616083381,running
1970-01-01 00:00:11.100,4.041926086,-4.169942081,9.1471629165,0.721868774105,0.6617003084000002,-1.02057305715,2.3337750435,5.9500153065,5.2624092105,10.834951447264297,1.4143942838349595,8.279017985244565,13.860046244389624,4.40703493111205,-9.41195699355015,2.12904984586409,0.03567043373100502,-0.057008085102150025,0.05867035212145002,0.25583460753185006,-1.4488449799415002,0.007506341315200133,13.411851697694416,2.7989270848573033,10.653402679765184,13.520224829689505,running
1970-01-01 00:00:11.200,3.60598377865,-20.862721445,-6.765107989,-1.8278076948,1.6299694775,2.0071676965,-1.9879529475,-10.8165335655,-11.429456232,22.226627076692978,3.1664496883141577,15.861331124917156,13.76734228661023,4.34659522092855,-9.57718588256015,2.05208021753409,0.018951544404005018,-0.027370540352150027,0.08225363732945003,0.21666001027035,-1.5663886689555,-0.11857740432229986,13.52789926599121,2.8167113547810105,10.787536652871639,13.549561555079105,running
1970-01-01 00:00:11.300,7.337291718499999,-18.8744359,16.00977846895,-4.3577844505000005,-1.35401930665,1.59293693315,4.21507823475,-14.53674364,7.6393229965,25.81459251916312,4.833332356955588,16.954145688444385,13.829949479083266,4.3267721823785505,-9.725666513655149,2.22117351971559,-0.019675383184994986,-0.04177584588715002,0.10052331516325001,0.26069154804285005,-1.7130446051874997,-0.023293834175799874,13.684125746104305,2.85950057862399,10.938050697295147,13.58811350978519,running
1970-01-01 00:00:11.400,4.512115717,-0.109621167,0.6637092825000002,-0.4521033394,-0.2714452745000001,-0.0120642333999999,2.5935207604,7.1407999975,3.9575527905,4.561985867528476,0.5274708639086539,8.566189271112105,13.764525645219253,4.29526468792855,-9.69481854340515,2.21049704543709,-0.029434431746144983,-0.04508205682415002,0.10507489079425002,0.29617421334385,-1.6631412350625001,-0.009611043180799866,13.644939115561577,2.8577313819995487,10.988726351595258,13.632049135028124,running
1970-01-01 00:00:11.500,0.7211368679999999,-1.9673489925000005,3.8992539645,2.6356532570000004,1.000873238,-0.5271611828,0.468626261,10.165846348,9.0893979085,4.426588067614671,2.868155198438608,13.644823079933575,13.426266510270107,4.233748208078549,-9.68955134472015,2.25038091152439,0.00040851150135502224,-0.04145973265415002,0.09569914907075,0.30791921561385005,-1.5821046089625,0.08456473247620014,13.616086260097592,2.8780591832433338,11.103132437053116,13.674753479013681,running
1970-01-01 00:00:11.600,6.5173010825,-26.065166475,1.36764766295,2.779889464,3.4149416685,0.211124081165,3.0309295656,-8.951145646899999,0.6345428077,26.902389799038154,4.408422099681873,9.471651756607653,12.865585939591535,4.19702286581355,-9.88547266803515,2.2553490092018,0.029594029449455023,-0.011156362912150022,0.08235900837740001,0.33511142676485,-1.6583289980154998,0.10211586744770015,13.76407657874439,2.906160288408145,11.1801902388297,13.71002879874987,running
1970-01-01 00:00:11.700,1.2011969685,-16.7497587215,4.1027934851,2.64848104115,-0.2451788112699999,-1.4932160975,1.4562223555,-15.3956885345,1.779408574,17.28670604155048,3.0502883123829276,15.56644159315858,12.290666977549138,4.11859212080355,-9.98207540595015,2.2850723524558,0.054785370808205024,-0.005218927211850019,0.06639146137640001,0.34316564326795,-1.7989965938855,0.11718474508420014,13.821471746086967,2.9281119048072215,11.320808521379407,13.734797446373896,running
1970-01-01 00:00:11.800,-1.0408778937499998,1.025174856,-2.041675985,-1.3903647065,-0.16828841,0.4227826447499999,-3.951660752,6.5540866855,-7.093228817,2.5105479686311067,1.4629354636220164,10.434824868212441,11.958460916946786,4.039874237421049,-9.92953799569015,2.2555763264133,0.04278909428070502,0.0024830930406499795,0.04489650997890002,0.30547823315445005,-1.7512095951305,0.03939480387720014,13.765727711179318,2.915293567516139,11.406036801420342,13.750285426908055,running
1970-01-01 00:00:11.900,0.7247262004999999,1.275374532,0.6206383705,-0.3193967565999999,0.2334963679999999,-0.5302154273,-1.68303894995,12.053878069,-8.3132231255,1.592796361592492,0.661561215113698,14.739005235894176,12.045146118569972,3.97665885532605,-9.846523501505152,2.2598624697457996,0.04265547147030503,0.011000594339349978,0.03287961709890001,0.27355309849495,-1.639825186654,-0.05454236754129986,13.682130580634414,2.9122822800630366,11.53272901345703,13.761334969025459,running
1970-01-01 00:00:12.000,1.7291134595,-13.967803479,-2.15428812785,0.9669711889,-1.75504058585,-0.1511846782499999,-1.4449703694999998,-4.480067492,-5.692064282895,14.238339956665737,2.009491862407247,7.386375288476555,12.55659947022707,3.92799931252605,-9.913187543985151,2.2223818938568,0.05052852889630502,0.003479536837849977,0.026177095653400016,0.24235030537245003,-1.689241855074,-0.14677614456424987,13.724841792348082,2.9209422129336162,11.567235545302179,13.774265150096733,running
1970-01-01 00:00:12.100,5.0916274785,-19.1569385535,-4.3316071035,-6.552024126,-2.07611705345,1.3944116235,0.88049531,-14.43042231,-9.339518068,20.28979510052979,7.013106725486494,17.21159370245464,13.321782697531997,3.87055362306105,-10.00052258217515,2.1637263338418,-0.03283837893869498,-0.02108263083665002,0.04129098463340001,0.19992307072295007,-1.8308023094840002,-0.2797553664832499,13.776602671843031,2.9727888754846776,11.674550543683562,13.794271771460906,running
1970-01-01 00:00:12.200,11.500503779,-10.875827072,16.195520379245,-0.90871164225,-0.8570187389499999,0.86327990905,9.7683877925,-8.524601222500001,13.668429374,22.64597275511435,1.5183840650644078,18.83921940047776,14.070295988786198,3.92778395973105,-9.98948568307515,2.3502408709602505,-0.047093263362694975,-0.046157910606150016,0.05654002297390001,0.34053370359795004,-1.858411736474,-0.11260238353824986,13.867814628044236,2.9694551967981404,11.784884917644735,13.82348142257102,running
1970-01-01 00:00:12.300,2.6328526735,0.4471586944999997,4.1183469295,0.8302177935000001,1.4204489585,-0.68307992815,1.6524431105,9.8288168895,7.496589183499999,4.908425972768167,1.7814418364317013,12.471369574626861,14.552467530018886,3.9373358090960497,-9.89015363775515,2.37245673383025,-0.04846461514219497,-0.037619029070350016,0.05323152165590002,0.39116189184795,-1.741237316134,-0.02172081296824986,13.818716742958383,2.975518748188138,11.867490828188686,13.860407951105945,running
1970-01-01 00:00:12.400,-0.4722833635000001,-9.1401342165,1.163958788,3.3413345815,2.667951703,0.66338011625,-3.2528579235,5.14008188455,2.1550530195,9.226044934381978,4.326956927646061,6.453354164092645,14.642625602270824,3.8922071739310495,-9.92266611779015,2.3767054909712497,-0.025692228468694976,-0.0016699049708500224,0.06060368446385001,0.38496637526295,-1.7011522078335,0.02067554349675014,13.839177810276585,3.0046567639550417,11.896583941410277,13.900904864644225,running
1970-01-01 00:00:12.500,6.618996382,-31.00425148,5.6027941705,3.92805326,0.3128301505,-0.80792186385,7.068558573000001,-18.59159565,3.6751179694,32.19419241815207,4.022462287523071,20.226676474449217,14.380547737535277,3.91429143392105,-10.191499739525149,2.41349214802425,0.018381164560905022,-0.001129305255850021,0.04615867396785001,0.46899881186495007,-1.9156561684485,0.061624758192250134,14.097765863123819,3.0365033788555444,12.067022481175162,13.940073755620373,running
1970-01-01 00:00:12.600,0.66011997295,-8.2517985115,-1.554437369,-0.0371853409999999,0.0237466692499999,-0.1209477484,-3.3116635085,-4.4045290965,-4.632705927,8.422838748736957,0.12874397744665522,7.199233012030279,13.93851681827606,3.80787363930055,-10.209801840430151,2.3249831322892502,0.02023813996840502,0.002108948672149978,0.057309690768850015,0.38441435279995007,-1.9853677630485,-0.026202012352749868,14.032927782693307,3.0248774836270007,12.068092867699502,13.974233129755316,running
1970-01-01 00:00:12.700,0.2902793880000001,5.12273407,-5.636293649500001,-1.583316088,-2.29586935,1.565907001,-3.1098579765000003,12.4279646885,-10.200067757,7.621973010869985,3.198432529000707,16.375802428583295,13.534472935278046,3.78831381125555,-10.056783826020151,2.3414203278342502,0.011212871708905026,-0.03261084571785002,0.06463680428785,0.37011515381495,-1.8105320310535,-0.13850026253774986,13.982002831972952,3.0409215330396915,12.177590621639508,14.002109004274539,running
1970-01-01 00:00:12.800,1.7183457615,0.211316147835,-0.8804092410000002,-0.1805816889999999,-0.7069793567999999,-0.6092438102000001,3.7932591438,6.474920272,1.2407462595000007,1.942289139659447,0.9505827568446884,7.606106674327024,13.334286120345254,3.7517918602955502,-9.957033030286802,2.36526630143925,0.026444348131405025,-0.03632708766085002,0.04068395567335001,0.40901959063794996,-1.7150435519234997,-0.07360933069774986,13.885307656972,3.025517323763671,12.192821086366578,14.024852832635826,running
1970-01-01 00:00:12.900,0.2783151865,-20.496470455,-5.593222856500001,0.53029175648,-1.575909555,-0.2519745229999999,-5.8237810135,-15.8998298635,-10.239604473,21.247750525130854,1.681722757404448,19.788140760185915,13.389459039556833,3.7070341138355496,-10.0878097670618,2.24703544120425,0.041429958583705025,-0.03536958434085002,0.027385810441350012,0.3461173117379501,-1.883388650407,-0.23605802301774986,13.989872646340828,3.0202127718899128,12.32974808134034,14.045094929159188,running
1970-01-01 00:00:13.000,14.011920455,-21.551107405,8.954540134,-5.797245741,-1.511388815975,2.62954473495,15.3755927105,-13.855129715,26.273457765,27.220726188522413,6.542695151671077,33.44649538513558,13.635836112347103,3.8067235897555496,-10.2319937889868,2.34479869287175,-0.005545721112294979,-0.04666873127760002,0.04084277553085002,0.52392528895795,-2.035306332067,0.010989650442250145,14.179680609770644,3.0683103264918454,12.632539066184481,14.065651959546324,running
1970-01-01 00:00:13.100,2.328814566,-1.837986946,5.6602218155,-1.39540418965,-0.6121453047,0.8888591454500001,-0.52446517348,4.9354629515,6.951521397,6.390593422925784,1.7640706638366654,8.541516726950274,13.944206362611464,3.79345987484555,-10.1564598553518,2.3499821443517503,-0.023060239313794976,-0.04523171320910002,0.038592567200350016,0.49575931821665004,-1.9829155182415,0.04387665267725014,14.130450650096716,3.072026941139255,12.67463874921256,14.088505189459033,running
1970-01-01 00:00:13.200,2.3754747510000005,0.3058326468,4.45364107195,1.673187017,1.2578108682,-0.7871530204,4.36396724,10.730450153,5.9803168775,5.056810526235599,2.236348106074776,13.036524096288943,14.188187691301515,3.78843195781855,-10.0362878146738,2.39554298248625,-0.03549479818379497,-0.0058618436071000216,0.02706969758435002,0.5055106851916501,-1.8668322300520002,0.08199039038225013,14.06041563232555,3.05461843060238,12.76382249238905,14.114349124749749,running
1970-01-01 00:00:13.300,8.8730351915,-21.893429755,-1.00139623865,2.8583070035,4.1298619510000005,-0.10376767815,2.6870601175,-8.109293939,0.8398495315499999,23.644361153845946,5.02358899509139,8.584071731981625,14.293918499691713,3.8475645886385497,-10.0836193385238,2.3490968003597503,-0.026864290599794973,0.009893434862899984,0.03679896688285002,0.49547210310165,-1.886893575167,0.09465555663775013,14.118952403999053,3.0707003435120117,12.778211493214805,14.142672961828836,running
1970-01-01 00:00:13.400,2.738286376,-20.9069895725,2.9859435555,3.5141278505,-0.01382040975,-1.2468156215,2.2128711936500003,-20.4602866195,3.4543628695,21.295921773387573,3.728784620677606,20.867504649716913,14.254101149995043,3.86795143690345,-10.1575964512988,2.40296372440475,-0.011942819423294978,0.021827099543899983,0.05334223783285002,0.5078689358031501,-2.056553852557,0.18337574239775012,14.194523981307812,3.0706219813165814,12.921688431447569,14.172178441805308,running
1970-01-01 00:00:13.500,-3.1417761149,-0.274725914,-3.908974886,-0.6416950226,0.85228461015,-0.30763791485,-5.4426381585,5.804456234,-7.9281506535,5.022580625869334,1.1103164618168138,11.232523985346045,14.110060093385654,3.8560635947844504,-10.1687769150318,2.3724163528997497,-0.007345430022294977,0.04690848759939998,0.04802634007185002,0.51553035710815,-2.079494388092,0.12871175404775012,14.22182580693702,3.061712239282366,12.929039848149161,14.201334368687972,running
1970-01-01 00:00:13.600,2.2138096095,3.888635874,-1.7723337415,-1.11670514965,-1.08005428305,0.81509931773,-1.64958298205,13.43001032,-8.075552464000001,4.812858697170911,1.754404327215762,15.757564812139975,13.92003798336536,3.84780237312945,-10.1132574477333,2.33865811255625,-0.014876413152474979,0.04517291836339998,0.05653620596115002,0.5095319113576501,-2.002467782477,0.006298533635100103,14.231771977380822,3.069482668634537,13.015020718423159,14.22890862280534,running
1970-01-01 00:00:13.700,-1.5496517567,-15.941732647,-6.6107708215,1.8567466585,-1.622333944,-1.0740222039,-2.225735307,-3.4582478997500004,-0.8886086940000002,17.327508511319937,2.689423595154866,4.207493506115495,13.736168101807904,3.7304673240724497,-10.1092240515033,2.29379268673125,0.00438818280252502,-0.006838433816600014,0.05391567120995001,0.47782464001515,-1.9227974080945,0.037541595655100096,14.21129861783361,3.059672719989659,12.935632226655152,14.254355657336523,running
1970-01-01 00:00:13.800,10.110722544,-24.293580055,-3.114258647,-6.5225505825,-0.6087092758,2.9406950475,2.534760237,-16.34283829,-9.3648619655,26.497232858750703,7.180660167847179,19.00563107252782,13.603308740247112,3.77946186288245,-10.180305842453299,2.25498259899125,-0.03483966345747498,-0.07677891678960001,0.08183673570735,0.47456352208415,-2.0136078524745,0.004861788690100095,14.296525784318993,3.062520336742705,13.026648040648118,14.277983828502144,running
1970-01-01 00:00:13.900,2.5694428684999995,-8.7521973845,3.56052017205,-1.545290887,-1.6502038538,-0.3156553210499999,6.9549181465,-5.306358574,18.5742900979,9.791848630739198,2.2827034337050436,20.531258616590563,13.573723535221449,3.8007938764924503,-10.2240092527788,2.21982455487675,-0.020093046972474982,-0.04908920921260001,0.08194897892585001,0.56947097812915,-2.0885704493495,0.13751238639410013,14.311098400090982,3.0317226865916003,13.16918004505971,14.300881754298409,running
1970-01-01 00:00:14.000,6.215506315500001,0.79292161745,4.482205331149999,1.1387719809,1.0056073369999998,0.06406261025,2.3628642559999995,9.2255964295,11.330402375,7.703986505701408,1.5205761272436131,14.801107220464665,13.71696213897529,3.85814235735225,-10.199913528409299,2.2469367298047502,-0.01909278477397498,-0.0056953824251000104,0.07870996136855002,0.61563094054915,-2.0928405403845,0.19088415675910014,14.363682202240453,3.0117950348009286,13.20136014244325,14.324626203181843,running
1970-01-01 00:00:14.100,1.079013348,-7.002147019000001,4.414159595999999,3.2156527045,2.240129608805,0.0873511582499999,-1.09002840514,6.8626356135,3.7803348895,8.347403046445741,3.9199787250762754,7.910427381909371,14.106973500108777,3.8119593839672503,-10.0823646221993,2.29100055839475,-0.01363868320897498,0.03034384252279999,0.07938036654605002,0.5591528705277501,-1.9616693281745001,0.21900436275410012,14.251124125496796,3.0210105948261474,13.202471103396487,14.350824798139767,running
1970-01-01 00:00:14.200,6.0384376737,-36.28924942,4.8366422655,3.8841485975,0.319702208,-2.1194872260000004,3.9477282765,-22.5784173,1.452516675,37.10479027579257,4.436332486462041,22.966917316200057,14.785173606050128,3.8194997688697496,-10.2777116737993,2.31522938277475,0.007825724826025015,0.051525734978299986,0.08562475357605001,0.58588466798575,-2.1136839508495,0.2515969681041001,14.44484017420836,3.0282480345088594,13.355128418455799,14.380579917284228,running
1970-01-01 00:00:14.300,0.6589235065000001,-3.2709884645,-4.140031934,-0.5416687948500001,1.1245698329999998,-0.3903314026,-2.1476899385,1.7444450855,-8.298098326000002,5.3172746907462,1.3078306451768065,8.747233651630856,15.715523090173672,3.79430185164475,-10.280129920069298,2.2552338400057503,0.0003825511140250171,0.05534887583679999,0.08775966477945002,0.5735296491307501,-2.1212538670945005,0.1577289723591001,14.450328660184947,3.031545688227382,13.413835249472193,14.413993996937595,running
1970-01-01 00:00:14.400,-1.4490035770000005,5.721238971,-3.302095294,-1.3773078325,-1.9754036665,1.12983834735,-5.7334669830000005,12.647283075,-9.3173503875,6.762841123381865,2.660024661958996,16.722423002297813,16.757404626423476,3.7573865815547505,-10.244973373239302,2.14914056969225,-0.007207989350374984,0.014541224556799983,0.08401440752295,0.57155759011575,-2.0853021621345,0.09018023602410011,14.438402593821415,3.0315416196111307,13.471900322288725,14.449856060008665,running
1970-01-01 00:00:14.500,3.5534909945,-8.017302036,3.5582767725,2.2957167625,0.3967452941,-0.93474900725,0.783741236,5.961523532499999,25.8017716405,9.463919049429542,2.5102744847065708,26.493120483289015,17.681707253814714,3.76369615458975,-10.204753017239302,2.2384302408772503,0.02144761954312502,0.04076107935729998,0.07671249223545001,0.60606662904075,-2.0179175352695,0.3990103422791001,14.398011725187658,3.033583011557548,13.678920922990827,14.485647735002198,running
1970-01-01 00:00:14.600,4.761268407099999,-29.701807975,-7.779066563500001,-5.396759331,-0.0106898248,1.961965084,-0.5069941280000001,-17.1108789465,-12.111940146,31.070580143080463,5.742336853574941,20.96993837539562,18.2403125859696,3.68560040646075,-10.3704604671343,2.1049481256072498,-0.015052033318874987,0.005312849149299987,0.11132157189395002,0.49187136923075003,-2.2368519043845,0.26752618185310006,14.51859485831837,3.048830300800567,13.769024949637762,14.517968908537211,running
1970-01-01 00:00:14.700,9.150752187,-18.062819956,25.7238904215,-2.690705836,-2.8789994715,-0.25739577415,7.94723153,-14.59624243,7.441184044,32.737138982630974,3.949023732181413,18.209338319758867,18.26853543030214,3.76373204940075,-10.3147136876943,2.26059973905725,0.00761421774112502,-0.015467411410700009,0.10935998869245,0.57537747177975,-2.1867715382695,0.36985127321810013,14.588338566248161,3.038100583416487,13.753057239506875,14.543370319266515,running
1970-01-01 00:00:14.800,5.217400193,0.8158030509999998,7.747809887000001,0.2686963679999999,0.6592568904,-0.3003841042499999,2.4957449435,8.133562088,11.4163808815,9.376318970525283,0.7726888091608055,14.237883532809063,17.770932915877133,3.77035269015075,-10.314688263181802,2.27617252656725,-0.013424126163874985,0.01483977498329999,0.09419036072895003,0.61501243624475,-2.1487872362245,0.39435873140310007,14.604813234362659,3.0101444268775275,13.79477313478015,14.55939066525649,running
1970-01-01 00:00:14.900,-0.4529912248499999,-2.847309232,1.216750324,2.8168457745,2.0611513255,-0.0500131249499999,-4.8792158365,6.823590278499999,3.90710783,3.1293533299034224,3.4907687142800192,9.253843691312243,16.93922605489694,3.69947728410725,-10.3867391421768,2.27723882803225,0.002474700554625011,0.02421627940329999,0.08684110474945,0.56082132134325,-2.2036595106045,0.42290689874810006,14.555957003349853,3.027061011257682,13.76363657959083,14.565427398139509,running
1970-01-01 00:00:15.000,7.868797302,-33.211481095,5.9558850212,4.2280555965,1.462673664,-0.8220477105000001,6.408109069,-22.58249712,5.712457777899999,34.64668835385656,4.5488054270096505,24.159164138672068,16.084003111354942,3.66598374622225,-10.3738702513768,2.27628169752425,0.003058058369625014,0.029815456288299992,0.10846815180945002,0.55950934085825,-2.1907000779845003,0.47163403323210007,14.534645924274338,3.0204815337304027,13.757509101167908,14.563064260678978,running
1970-01-01 00:00:15.100,2.6460131405,-9.808030247,-2.628216505,0.8960365502500001,1.1669473421999998,-0.4940227084,-0.5856891873,-7.360793114,-6.9289057255,10.493158002380406,1.5520006556913677,10.125909423064016,15.507783659515917,3.62614624159725,-10.4395158423868,2.27597063041925,0.004556160766625014,0.04547758022029999,0.10466639132195,0.55554685148925,-2.2399080920195003,0.4390102284221,14.561335028754941,3.0274620593345856,13.814685483907153,14.555677451193183,running
1970-01-01 00:00:15.200,-1.71012046925,4.809124708,-6.9351477625,-2.1893529895,-1.86949809625,1.1625950335,-5.460434556,10.5945973375,-10.341809275,8.610950410039107,3.1048215498533613,15.780204604649365,15.377309263753087,3.62132171245875,-10.422446044276798,2.26785597062925,0.0008903129866250126,0.030640863327599986,0.10494203598195001,0.5601471320142499,-2.2249054551245,0.4170494263221001,14.577709355810935,3.036693674826846,13.836799769267511,14.547440237176142,running
1970-01-01 00:00:15.300,3.7821552755,-2.5718356370000004,-1.0683953165000002,2.043665886,-0.977050185,-0.4698178768,2.04759007715,5.74594592955,7.022436621000001,4.696861252374272,2.313423038479897,9.301781326462006,15.654402814660564,3.62833716961375,-10.4435971005618,2.13821583781425,0.0057259329166250116,0.028238706737599997,0.11797522635045,0.57308949206075,-2.209915275597,0.47335953643710016,14.501712735715428,3.0350875256870546,13.884496500434006,14.542084713776838,running
1970-01-01 00:00:15.400,0.1393820050000001,-22.185504435,-7.9680993555,-3.10692191115,0.51013380475,1.5904935448500002,-3.9507443905,-12.387005567,-11.631973743,23.573430843172616,3.527445247901404,17.445604068469443,16.119131364730507,3.6051133284237498,-10.4460377772118,2.11242121014925,-0.02129336903437499,0.042395854760099994,0.09681089595395001,0.61493008827575,-2.223546564577,0.4085616891871001,14.510175324773739,3.031988289346807,13.912581114670719,14.541863125185266,running
1970-01-01 00:00:15.500,10.4184994675,-24.203700065,24.27189618365,-5.257333398,-2.6311482195,-0.1863847671499999,8.1299846175,-17.538575169999998,-3.462403059,35.82581712034859,5.881941405023498,19.638902816030726,16.475794714129353,3.5183166870487503,-10.5059974272618,2.2016256389257496,-0.03567195127637499,0.016914361280099998,0.08234679593565002,0.5444300267507499,-2.2773697495269998,0.43095258646210005,14.563158441689325,3.0505796746012197,13.906309412515483,14.547067337647363,running
1970-01-01 00:00:15.600,1.6464115681,-0.7703392509999998,5.637340784,-0.18386504055,-0.68277452895,0.5175403469,0.418140918,4.2810125325,5.8520035745,5.923149899179867,0.8762621874694353,7.262771920326889,16.490596956595304,3.5270789048107503,-10.5142451866068,2.2187911510717497,-0.029634489940399994,0.004060607862599994,0.09228451739015,0.56526190523575,-2.304596779347,0.4371450059721001,14.58242902663305,3.0483411336865567,13.889939262925624,14.556251852134686,running
1970-01-01 00:00:15.700,4.0812581779,-0.032901287,4.3039402965,2.919849873,1.0401201845,-0.85633151255,4.9046021701,9.0285601615,7.4982426185,5.931412385359695,3.2156922953617,12.719813811635147,16.094307901358885,3.5378510946087505,-10.478237691681299,2.21352395210725,-0.03055076114539999,-0.003952181027400006,0.09256016219665,0.6299919677217499,-2.282548785227,0.4553616135621001,14.574242819086573,3.0441098492687444,13.927000181355833,14.567039354199046,running
1970-01-01 00:00:15.800,9.3985590945,-24.338894845,0.6517450809,3.804204106,4.361296772999999,-0.92955681665,1.8957049845,-5.5040645605,2.4114679693000003,26.098649140889524,5.861480555087422,6.301079418748035,15.40393954407575,3.5063331407537506,-10.437511859681301,2.21210022304475,-0.010177477228399998,-0.008670975852400007,0.08764818656100001,0.5886456084667501,-2.2101973390720002,0.4987560915220501,14.524527829061492,3.051078162836835,13.847754317304465,14.577173038815694,running
1970-01-01 00:00:15.900,1.3280165495,-21.14881277,2.0379370450000005,4.447120667,-1.160151601,-1.819408536,0.7450733185,-24.2534823405,0.0815796850000003,21.28823846483415,4.94298304518952,24.265061201981144,14.65919379062287,3.48652056904875,-10.553756671706301,2.2319950468764502,0.0119183943466,-0.0075783219640000055,0.079082581276,0.5879175067367499,-2.3721073341525,0.53120785467505,14.636580390633616,3.073039735270107,14.003410155648805,14.58540207726686,running
1970-01-01 00:00:16.000,-0.0113658905,0.21969103815,-5.259274483,-0.67712420245,2.5292893645000003,-0.3671955615,-1.216915131,6.472861051500001,-10.8485331535,5.263873233964245,2.6439807970750593,12.691315306565789,14.10738626365708,3.5099358341337497,-10.553768635699301,2.21889883115145,0.0198769704271,0.049210619651,0.05647588762100002,0.64328229669175,-2.3857279491575,0.5273748444750501,14.64319233510498,3.0598879673214987,13.983178676725485,14.591865259236735,running
1970-01-01 00:00:16.100,0.4805087150499999,2.70000125465,-2.3947669265,-2.494318366,-1.728392303,0.9471950235,-3.05481845155,12.758801935,-9.1674988275,3.6408521025453413,3.1790159604156942,16.005060991470913,13.89057906306174,3.42652502896925,-10.5196290381378,2.14976868822645,-0.01243455827165,0.013542484811499998,0.0730901691575,0.57926614226625,-2.3284693098625002,0.41817954412755015,14.580230471924901,3.0706238007933138,14.063396410931405,14.597838176186306,running
1970-01-01 00:00:16.200,-2.8832017180000005,-6.835696220699999,-11.108080866000002,2.4461378753000003,-1.6933449658000002,-1.195886254,-5.888358593,-2.5168390275,6.227929114,13.357733920615644,3.206423492098877,8.932768140901953,13.986812893820598,3.36150156977425,-10.4232551176948,2.08108121825145,0.038167266400850004,-0.042795959096500004,0.04717650088750001,0.5401610380592,-2.2606295824475002,0.5449046789625501,14.539901861438029,3.0533847590719243,14.037854753241332,14.60497100370146,running
1970-01-01 00:00:16.300,8.105836034,-25.77907562,-3.82283326995,-3.59735588745,0.6426113840000001,3.527490139,1.7791080474999994,-20.3681740775,-9.2059380985,27.292478301568874,5.079085099952531,22.42269022596165,14.23225849498039,3.40042979958925,-10.492024849194799,1.88811651450695,0.07819684892635,-0.05039642511649999,0.09022137913150001,0.5298050159391999,-2.3523424387575,0.48050792924755015,14.564941105946795,3.0264993911524716,14.143361347037693,14.614372978084242,running
1970-01-01 00:00:16.400,4.6894836415,-12.0393376375,13.389487984,-4.621517539,-2.8449447453500003,-0.5932853818000001,11.3950465905,-13.14583206165,24.5218912355,18.606861531362576,5.459315205374825,30.06631233055465,14.410131223224761,3.46122992636925,-10.568541338008298,1.9786609254769498,0.04716580926885,-0.06750778405800001,0.09576329144650002,0.6892099219642001,-2.517394886079,0.6670880662575501,14.687781551008007,3.0589389771985545,14.362580149180523,14.625973840125067,running
1970-01-01 00:00:16.500,4.4883371595,-1.952991903,6.52791932335,0.6142833235000001,0.923142926945,-0.04207211735,3.1913267372000003,8.4207487095,15.20468044,8.159232716542556,1.1096427029260814,17.671329391266298,14.357641911911148,3.52247123124925,-10.548395267293301,1.99953680769545,0.030644681453850003,-0.05755631846055,0.09191877124820001,0.7682570666112,-2.4991889453639997,0.7411273085175502,14.707620982106148,3.0471029821457107,14.42676350813119,14.638447268008477,running
1970-01-01 00:00:16.600,-1.0229316949999998,-3.4384862187,0.8300102949999999,3.5182511805,1.5262781680500002,-0.02535015345,-3.4322612285000003,6.921622275999999,0.4685514564999999,3.682186010867917,3.8351348145320325,7.7400783290398305,14.036700067986907,3.46194777371925,-10.3713877077803,1.99484388337545,0.027662221193850006,-0.038927004752549996,0.07075749574370001,0.7331390351112,-2.295056011759,0.7811264579575501,14.526761710082276,3.0418076392023012,14.36470030192951,14.649695777119607,running
1970-01-01 00:00:16.700,7.50837841795,-32.601161955,6.3293151855000005,4.201941967,1.3875395060000002,-1.3397407828,3.1181880830000006,-28.371375085,2.9137677550000003,34.04807979902358,4.623471373312926,28.690557046958844,13.538759283730501,3.52673045654225,-10.5374555893303,2.00540071831545,0.04308229684885,0.0029557372974500008,0.07120417742570001,0.7564439404041999,-2.499231486414,0.79108958831255,14.698514232029847,3.0470107139015403,14.569410693806827,14.657643729691296,running
1970-01-01 00:00:16.800,3.3677482605,-3.5545380415,-3.6157045365,0.2708343865,0.8451835515000001,-0.935130775,-0.4149601455000001,1.0170800685,-7.472668647500001,6.086853729952619,1.2892463174231235,7.552974281925157,13.029718038833607,3.5356706384596506,-10.5825109441673,1.98774467872045,0.05173189379735,0.01949671763845,0.0591017661852,0.7621742510892,-2.5621933914190005,0.7913657080225502,14.727061555346642,3.0494963849363255,14.539719591537953,14.660986181107333,running
1970-01-01 00:00:16.900,-2.5467109979,1.5664014814500002,-4.517200470000001,-2.3644371035,-0.1863847376499999,0.975446731,-5.543469906,9.5021705615,-8.443370819,5.417051836015768,2.5645269372449406,13.86765354217164,12.66770319875708,3.4370474625456495,-10.5624127300178,1.89777454690495,0.036354577059800004,0.010111813726950003,0.0661097116667,0.6835220122392001,-2.551970348484,0.6782335411575501,14.69533478446037,3.0636327942299446,14.585911161281256,14.659603260060438,running
1970-01-01 00:00:17.000,0.4709374904999999,0.095264256,-2.722732782,2.0604641435,-1.72442174,-0.7322531792000001,0.7008312940499999,3.5821576105,2.7335078705,2.764802199182996,2.7848406673420874,4.5601625987752135,12.536490050729347,3.47528028258065,-10.4114405752578,1.8755467219849498,0.0499474556378,0.0018775935769500052,0.0709812180592,0.7533752596447001,-2.441920478484,0.8018929993225501,14.569182057288362,3.074776727369224,14.494627026574816,14.654523320153125,running
1970-01-01 00:00:17.100,-0.8889336585000003,-19.939839365,-2.9549863335,-1.46939311195,-1.98013770585,1.848500073,-7.9359204765,-13.0605797766,-6.9811636205,20.177198546438245,3.08172256562073,16.80161371435665,12.627351450614293,3.3634636784406498,-10.4136913229578,1.84212646799795,0.07964226815830001,-0.037414392801049995,0.05964618189920001,0.6279650628657,-2.49217050805,0.7783721016975501,14.548521588659906,3.04867753172451,14.559102950145267,14.647534507538376,running
1970-01-01 00:00:17.200,17.526528355,-22.853549955,11.714811325,-5.6904240845,-1.084941089,1.60698643305,16.437057494999998,-15.81391764,22.605526091,31.091811560355367,6.01169101202523,32.11334084254581,12.873658878645182,3.52134211425565,-10.5413214923328,1.87924662728795,0.05139668915330001,-0.049128916085049996,0.0870778050892,0.7560731852107,-2.581904895487,0.84994064202255,14.729483321015426,3.07795361043095,14.707434948104517,14.640693132496228,running
1970-01-01 00:00:17.300,0.9665507675,-2.58978196995,2.0164017655,-1.30912204845,1.08471202825,0.2683146521499999,-1.590376377,5.86503982585,12.9157018645,3.4215591647587305,1.7211605022561167,14.273869266319313,13.209903732019491,3.5172010347716505,-10.5710313771573,1.8562516011529502,0.03424486186280001,-0.04651830774804999,0.0896525262167,0.7701934814526998,-2.6356409432235,0.9078293131875502,14.718225219714634,3.085981511803711,14.713750274823596,14.635954175533529,running
1970-01-01 00:00:17.400,0.2781655785000003,-0.976122141,1.4572289587,3.1117322445,0.8074637057,-0.5177694038,1.855857372,7.3106985095,5.5829464195,1.7758678895927338,3.2562187200793486,9.38401886214111,13.613361663550569,3.5610360494666495,-10.447077178822301,1.87007613378195,0.035471900962800014,-0.059432381811049984,0.0714294259882,0.8535028028526999,-2.5544111301185,0.9309759437125501,14.59610627032125,3.0797604854244214,14.734605483642998,14.634980862019004,running
1970-01-01 00:00:17.500,8.68041289,-25.8270812015,0.8718847631,3.9419499635,3.5910947325,-0.61115269375,3.3636171815000004,-3.7073409565,0.6742169261,27.26073869816955,5.367349299943575,5.051026229872903,14.102604129076571,3.5771367553466495,-10.405863804637299,1.8494858958029499,0.041216918487800014,-0.003108446420049984,0.05590092471270001,0.8403095579166999,-2.4175220515335,0.9226962249585502,14.559604009588874,3.0929452116750173,14.604335219678212,14.63903779148849,running
1970-01-01 00:00:17.600,-0.3502493500000001,-15.201901195,1.5064313415,2.9688702970500005,-0.6331431864999999,-1.28025949,-3.800011635,-19.7322592715,1.8504834195,15.28037335723088,3.2945599853473895,20.179852161739873,14.697867216088941,3.5719174117426498,-10.5305971596723,1.87827603744595,0.06041890110480001,0.005353314871100019,0.04955193093470001,0.8184734284866999,-2.6267889668385,0.9893696933285502,14.681816028464109,3.106643504315025,14.753940268202046,14.64885781515106,running
1970-01-01 00:00:17.700,-0.7188936475000001,2.3612672685,-5.5622656345,-1.9208855625,-0.264725864,0.4285857006999999,-2.221338749,9.3240838055,-11.39851761,6.085325807090775,1.9858415924076114,14.892920746290045,15.371082280595726,3.5716900937811498,-10.5284181968473,1.8676818160959499,0.06635099138980001,0.010527191677600021,0.04602810545220001,0.8407002437066999,-2.6568409325335,0.9700292401435502,14.69231625277548,3.099038700079971,14.741210356995136,14.664456771603236,running
1970-01-01 00:00:17.800,4.351796790750001,-0.4028913974999999,17.756388666000003,-0.6423059105000001,-0.3018349410000001,0.1476723254,-2.5291574,12.390503885,-4.4914393425,18.28632809626402,0.7248919436445346,13.419919934393487,16.017996155062498,3.5779981729936496,-10.4674999229223,1.97382443296095,0.044889636299800015,0.003723116288100019,0.05904067887620002,0.8375040209261999,-2.5704491211435005,0.89346921491355,14.771720794078572,3.086959973346512,14.821586765698708,14.684944349057416,running
1970-01-01 00:00:17.900,-1.3054342865,-10.2891373615,-3.988087654,1.42503029125,-3.2933829425,-0.6522321552,-1.5009069445,-1.945569515,-2.4952129130000005,11.111946249697763,3.647257781019441,3.5020065498150643,16.47368792633329,3.51131020581365,-10.286838812037299,1.9533179423414502,0.08210092287630001,-0.04226681016689998,0.0330590543042,0.8102627933011999,-2.4514529253435002,0.93938643144855,14.593610341191468,3.0906250380766296,14.700590755241988,14.70841564269943,running
1970-01-01 00:00:18.000,7.544420243499999,-22.315912245,-0.0103190541,-6.055176258,1.3246222436,3.5884987115,-0.0445475580000005,-23.1102848065,-7.355662763,23.55670440914754,7.162199844050985,24.252691046674663,16.571112755617275,3.56381322122215,-10.3490357438873,1.8724689519064501,0.06633724551630002,-0.020972676805899978,0.07306038832980001,0.7975272732952,-2.5843694187785,0.7543539737285501,14.64764223974507,3.1165558364911043,14.794059066085042,14.73203856908714,running
1970-01-01 00:00:18.100,7.389933703500001,-13.8637151715,20.42468488,-2.6159534455,-2.0349612238,-0.4344651104000001,10.6511805075,-12.752127173000002,3.5971608162,25.76783791756509,3.3426096905782763,17.000116457757507,16.217951913095302,3.60104105447215,-10.468466006927299,2.05196653718145,0.047855297437800016,-0.02569299899889998,0.0733421415708,0.8989296639102,-2.7730742480185007,0.7367186449555502,14.857089614292398,3.131964617918637,14.88255417252424,14.752453466308292,running
1970-01-01 00:00:18.200,3.685096264,-0.9367899895,5.89112925735,2.376806736,1.0230164232,-0.665289011035,2.163282037,7.94643259,15.33949089,7.011627049849366,2.6717751272582473,17.41050145295689,15.453356052578824,3.63315871451715,-10.4670422760773,2.04235337075995,0.04115048658280001,-0.04587691896189998,0.07139659324845,0.9503707045456999,-2.7828628470185,0.81756626591555,14.857675568179005,3.1153721868914896,14.937841159860747,14.766502679765939,running
1970-01-01 00:00:18.300,-2.13499610125,-1.3724334240000002,0.1058824064999999,3.476179123,2.10497963415,0.608403840363,-4.245413780000001,9.076297283,1.16258263565,2.540274185923893,4.109125915366401,10.08733408376673,14.453612040754855,3.5408914737846504,-10.2035596029173,2.0007556456099502,0.04129938136780001,-0.02301290505539999,0.07270456972053001,0.9314745539584999,-2.4775752427085,0.8660243199785502,14.59378163410594,3.1214755230822306,14.81977978606647,14.772122856668666,running
1970-01-01 00:00:18.400,5.9558851735,-34.26148033,7.616204977000001,4.213166236999999,-0.2772482629999999,-1.8924811485,3.3212395312500003,-28.5830564515,2.0465434791,35.599553099085014,4.626999161158464,28.848051725297157,13.480500738244974,3.5485529910596494,-10.4364111487023,2.05330651817495,0.0683935112883,-0.02679481201039998,0.06159478562203,0.9252497756659999,-2.6842830350135,0.8850262104045501,14.826088872549098,3.150768442723378,15.019841720961121,14.769085708072085,running
1970-01-01 00:00:18.500,1.873879254,-4.8007498360000005,-3.977319956,-0.4022429285999999,1.3717338742,-0.549304388415,-1.5460289718999998,-1.4527392399999997,-5.836304903,6.509815395141514,1.5314008313855727,6.2099204344477545,12.792681658447727,3.56595778500915,-10.5253030133943,2.06440323171495,0.08015995692579998,-0.02251353666339998,0.04998181576238002,0.9333008814019998,-2.7917523481635005,0.9123286591545501,14.825910238731733,3.146697370235494,14.953373573855725,14.759268202536429,running
1970-01-01 00:00:18.600,-2.6497519015,1.3138091417,-3.4482070205,-2.340613961,-1.23047542565,1.377155125,-6.167319298000001,9.776903154,-8.521072625999999,4.542841760015733,2.9814593282267703,14.360791806294834,12.556222849585513,3.52123593068415,-10.4694605172368,2.00501786050495,0.04667025644585,-0.023529070317399984,0.07710419768738001,0.8560157752169999,-2.7586372520435005,0.6376709829445502,14.818651210173652,3.156328569815452,14.896198001450527,14.74626876958071,running
1970-01-01 00:00:18.700,2.6328525540000003,-2.6412274245000003,-0.8817551431999999,1.614774704,-0.8637380601,-1.3543247282,3.08115565795,4.972364425099999,7.0817208275,3.8321647944203656,2.2776602579308447,9.185243493950752,12.791859986310268,3.56608938878515,-10.2986772854118,1.97564147618795,0.07925895769385001,-0.005705311598399983,0.04390999311888002,0.9492953765514999,-2.6238455655324997,0.8159968219695501,14.657844993793983,3.142272347473804,14.837395419496465,14.73441508651055,running
1970-01-01 00:00:18.800,-2.2331017255,-18.565611835,-3.703192234,-1.0852465034,-2.00793126205,2.631988138,-8.6876630785,-16.87731838065,-12.688886168,19.062589510511973,3.483806751935638,22.832590691198842,13.38266043706964,3.4073016816901496,-10.2382615024118,1.8665526923439502,0.11515005130485,-0.014188452958899983,0.06028451735338001,0.7754652011315,-2.663610055629,0.7492152772595501,14.558016072919234,3.1279337783509362,14.898936880099201,14.727476430947274,running
1970-01-01 00:00:18.900,18.76062679,-24.58086872,11.23953655445,-5.336438239,-1.0225582125000003,0.7273663879500001,11.6487414835,-13.9565525035,-5.535460472,32.901480309286356,5.481994184503669,19.003153911112765,14.137209908105788,3.57973595830015,-10.4796359902768,1.91346397997845,0.07969036537985,-0.031860262753899984,0.06678240523028002,0.8794279050714999,-2.8463784767840004,0.6234464822495501,14.81966607880191,3.163346858254292,15.005412947753607,14.727578271674444,running
1970-01-01 00:00:19.000,0.9210871905,-1.174875975,8.472087383,-2.379097462,1.21176827,1.195886254,-0.7020790575000002,3.5501980805,15.75332546,8.602615869276228,2.925513802117465,16.16366556392609,14.872903678325,3.59254354374515,-10.4701903242068,1.95646150531345,0.02189428764485,-0.03540470361389998,0.08397851959078001,0.8703635334915001,-2.8926463295439997,0.6670908079445502,14.858756346709866,3.1547988488019847,15.02683130918095,14.734763210193783,running
1970-01-01 00:00:19.100,4.43569475395,-0.5931209325,2.78958251315,2.066496253,0.4117874206,-0.4543176553499999,6.18533349,7.446720124,4.1451077465,5.27341928813379,2.1555463751425443,10.53061770352511,15.474020113475678,3.57882668452465,-10.2587679940818,1.98952283630095,0.010254592474849993,-0.06109541147289999,0.07100030621073002,0.9352416205315,-2.7753098417650004,0.6981150034995501,14.686453185816793,3.1315961588816457,15.087914814200182,14.747337792630665,running
1970-01-01 00:00:19.200,7.278517841,-15.763317349,2.47118750235,3.627516508,3.30697444075,-1.088911623,2.051121056,0.0322561265000009,1.7705476285,17.53755295013562,5.027990104434453,2.70979278706884,15.90001189223525,3.61310835615465,-10.2132565027718,1.95458014767445,0.01905537414134999,-0.025604421490399997,0.07031004835923,0.9321560579464999,-2.5409214617,0.6753082636995501,14.646633590291271,3.15246992304419,14.876297734403801,14.762784586097753,running
1970-01-01 00:00:19.300,0.6900302170000001,-25.0320644365,2.3742783064999995,4.402223587,-0.6460473535,-1.759545505,-0.55679214,-35.4699850065,-1.884687424,25.153878212517803,4.784657780559567,35.5243845905131,16.154225475328705,3.61112081781465,-10.4710158342218,2.00525115768445,0.08260487007634999,-0.0510408649499,0.045433293777730005,0.9253009962965,-2.960647039515,0.73257407466455,14.868855872269242,3.1721310676778605,15.131425932937727,14.778817037950438,running
1970-01-01 00:00:19.400,-0.8899805544999999,0.03649052975,-4.237090825999999,-1.01049409438,1.30461701755,-0.29954422635,-2.5114871265,8.470150709,-9.874262808,4.329703871389234,1.6771555147920938,13.24960703648227,16.245089898480003,3.5903047552359997,-10.499708767844302,2.01711207906945,0.05802514022754998,-0.013894479339399994,0.05532214709473001,0.9041566467194998,-3.001912958725,0.7345884684995501,14.849483568150797,3.1579777950903933,15.10256669661479,14.79415202033749,running
1970-01-01 00:00:19.500,4.55892512195,3.3306595085,15.242429378,-1.6107279061,-1.575527847,1.5988926885,-2.71753990665,11.40741062,-6.784882069,16.25449920398736,2.7628228704534252,13.548013318850915,16.168994849061278,3.6797364985555006,-10.391759564579301,2.3085922686494498,0.03427768892354999,-0.003946833079399992,0.08649520941973002,0.9209427487737999,-2.85904801142,0.65476314350455,14.848229215789688,3.1547909213183982,15.184149123287204,14.808699278350822,running
1970-01-01 00:00:19.600,-2.97652178985,-15.480814457,-11.49721384,1.3845616429,-0.3329880835,-1.4959649741499998,-1.5445048810000004,-2.4342887404,1.5243957040000002,19.51156642353964,2.0653820979728086,3.261140791417123,15.924284163067453,3.513789759267,-10.2379982778493,2.2470144717194502,0.08927379360754997,0.017529793315600006,0.040899278903230016,0.8686616670788,-2.668817267524,0.76166864917455,14.701860683609034,3.118459593493358,14.980539075644892,14.823084095934885,running
1970-01-01 00:00:19.700,6.34965401715,-24.297169685,0.3967598976500001,-4.56363976,0.4824166295000001,3.5974321365,-0.7162606715000002,-16.481036185999997,-4.517193377,25.116289121913997,5.831042071550672,17.103877312439764,15.543192154342078,3.5220001304085002,-10.3992296579293,2.22811266852595,0.07295806398754999,0.04248443104710001,0.07072465875318001,0.7132757746988,-2.801671705354,0.5062674425545501,14.851726736638195,3.1406764284517714,14.89237200266049,14.83771199634782,running
1970-01-01 00:00:19.800,-0.4615156650000003,-9.077770948,6.2132629155000005,-3.242911696,-2.3445845245,-0.5843517630999999,4.3907482615,-5.29277229225,19.203994037,11.010157044771013,4.044134004161653,20.39817383509137,15.115474876570717,3.4768595313934996,-10.4975193348315,2.2373295207109503,0.036152226237549996,0.016954069440600007,0.06545151972368002,0.7533610188687999,-2.9593978596865,0.5999300359245501,14.894755059171628,3.176236557057276,14.952564231187198,14.851841852391974,running
1970-01-01 00:00:19.900,6.2563339475,-2.29052957915,4.369742600209,1.2378055749,0.0209978819999999,0.03733801855,4.549515724,7.610849617499999,12.1178455375,7.967615114178353,1.2385465998222456,15.01550217920905,14.781646150577492,3.4901830691035003,-10.46604922973015,2.25943919974854,0.016655508481549994,-0.007032375029399993,0.07202958100768002,0.7936125933838,-2.9563179899664997,0.6814701162545501,14.897963745865336,3.1481255274841784,15.019461363155527,14.86319436507804,running
1970-01-01 00:00:20.000,0.9593724014999998,-5.245964646999999,3.784398675,3.7354072335,1.6414992737,-0.511126428765,-1.0865368246,6.8353083135,1.92426747095,6.539282362283759,4.112059981544994,7.183648607189133,14.692420529732034,3.3952807372885,-10.18620115600015,2.25431556958354,0.023516085946549997,-0.007170580387399994,0.09966202103503001,0.6914184611727999,-2.6404147531315005,0.6845351128535501,14.612366451832559,3.141538562188556,14.826942522076033,14.868421930063011,running
1970-01-01 00:00:20.100,4.232005953,-38.955003735,7.626972614,4.1788060665,1.596449256,-1.4248012305,3.0352617505,-24.48788834,0.2072612642999999,39.919580429092655,4.694798069654803,24.67615137086891,14.95031975852752,3.4234218270315,-10.55880701769215,2.35091681079854,0.06669306060155,0.0013385214046000105,0.08813304261203,0.7546702164127999,-2.9097161915015,0.74953532683155,14.981536953823676,3.180430174048794,14.998612774876774,14.86437641919381,running
1970-01-01 00:00:20.200,1.07183501125,-4.653441906,-3.9043387175,-0.1382805705000001,1.0505045335,-0.6083274931,-1.9282786847,-0.6236128805000001,-7.460510254,6.168242268655451,1.2217788793162159,7.730870905702217,15.557283712724491,3.4525813618295,-10.61607175055915,2.34900105790854,0.07687130292904999,0.01831549360560001,0.06638535291603001,0.8000162285258,-3.0000405027565,0.7530787180565501,15.000397908125764,3.1721316873783496,14.944183519927611,14.849676619195813,running
1970-01-01 00:00:20.300,-1.4801102280000005,4.376921177,-5.0367420915,-1.8158197995,-1.7116703985,1.11693418,-4.461673498,11.1577129355,-8.857264042,6.834978871436917,2.7339639829027815,14.928235483923936,16.389710788067465,3.3931361708195,-10.534925152694152,2.18494465544354,0.04458573451705,0.022615095520600016,0.09037561521153002,0.7927172106207999,-2.9631531145365,0.7567983733415501,14.941016149539932,3.1707900309386696,14.969010913897455,14.825792372202068,running
1970-01-01 00:00:20.400,2.7430721519999994,-6.9409804345,7.514360186999999,1.371962971765,-0.8462525605,-0.94383540745,1.9326586725,6.108846426,22.953443525,10.590904741482683,1.8679537115258942,23.830940893221292,17.216464311471942,3.3682852151994997,-10.263146860039148,2.34739637445854,0.0774210661497,0.026209167982600014,0.057981621773530015,0.8518335073757999,-2.6994984462265,1.0625214968715502,14.690883909154513,3.1572557046526004,14.987272591031942,14.7969564799023,running
1970-01-01 00:00:20.500,-0.2760717870000002,-27.85948372,-5.710471152,-3.1292178148,-1.357684374,3.254212439,-3.86006557935,-13.422464845,-6.7800313210085,28.44005150407338,4.714362055464958,15.525189000653093,17.764448467447988,3.1676470413795,-10.42666187945915,1.95903827739854,0.0776180635567,0.03200992598460002,0.07415991112453,0.6535990529822999,-2.7480047084865005,1.047101857551465,14.572633635713176,3.163966235743436,14.953912905615184,14.768766832033897,running
1970-01-01 00:00:20.600,11.0564860695,-20.43425703,18.007784665000003,-3.541539788,-1.116399735,0.7153021542,11.36076975,-12.1101145745,1.2998730538,29.395323660646454,3.781601461034507,16.655678739577912,17.81541016065089,3.2806122025745004,-10.64052638861815,2.09746605618404,0.04150477277169999,0.017074710442550017,0.07647654951643001,0.7843284111922999,-2.9566455223165,1.002478136309465,14.823794853025824,3.195609751416279,15.014277924483274,14.746078569894088,running
1970-01-01 00:00:20.700,5.837290883,-0.1441675424999999,7.617251873000001,0.0214560029999999,0.8344937266,0.2173852619999999,3.0997133255,7.690366268,11.363583565,9.597774493588991,0.8626102781292952,14.067017717875123,17.2952135056802,3.2892308518195,-10.648222304318152,2.12135839088404,0.0149596409667,0.010666923239550017,0.08484363005393002,0.7951344734122999,-2.9944054128565,1.0506005244344652,14.84733076260065,3.1730576557505725,15.02135385929662,14.731218876204231,running
1970-01-01 00:00:20.800,0.189631198515,-2.4677479563,1.08993071295,3.805502057,1.46068851675,-0.5781669319,-0.8321650029999998,7.731509685499999,5.029562949999999,2.7043832802146888,4.117005446916387,9.260952654949218,16.31266090954561,3.1573384636946504,-10.325174793081151,2.0690961532135397,0.021319323046699992,0.011523636820050016,0.11661303237993001,0.6962575465122999,-2.6395485069065,1.118937502989465,14.49648378280542,3.1632008086642274,14.821465173474733,14.723393581313438,running
1970-01-01 00:00:20.900,0.6373879910000011,-36.65894127,3.263660431,4.0289957525,2.9056476355,-1.6764702795,3.550611198,-23.92789793,3.67593100645,36.8094514750934,5.242723295520811,24.46760323350127,15.126826758977622,3.11962010088465,-10.65973627457115,2.13615500731854,0.054024848208699995,0.04830580370605001,0.10465187968043001,0.7583842420272998,-2.8374457051115,1.2111635865639652,14.800120516593763,3.203783886859822,14.99199492985506,14.719533235669035,running
1970-01-01 00:00:21.000,2.9213374184,-7.333702151655,-1.229910884,0.7326349318,0.5814502834999999,-0.4532486647499999,-1.7713985445499998,-5.3596010205,-5.013173819,7.98937296312513,1.039361692373487,7.54950909941074,14.055691115816629,3.18636788922415,-10.7221500605217,2.1348763425165402,0.0765131898417,0.06231253197505002,0.08186651395043003,0.8506862831017998,-2.9741425992964996,1.213728372038965,14.839398984216484,3.1890743931531595,14.91988850793049,14.716129621840155,running
1970-01-01 00:00:21.100,-1.37019008405,4.002294898,-3.953242183,-2.7941679955,-1.4745852649,0.92383015155,-4.4465976955,11.46458244,-8.694263458,5.789983512449441,3.2916923670734466,15.059850552588374,13.364623503943779,3.13224672752365,-10.640427690731702,2.00387229152154,0.041352822145649996,0.04094967624205001,0.10131054603743,0.7828825557117999,-2.9189969279615,1.074161645353965,14.788949304868336,3.207847373985544,14.987696833603927,14.711175394435699,running
1970-01-01 00:00:21.200,2.661566496,-2.2257736925,-1.1270194055,1.95280236,-2.2977019545,-1.5891191365,3.4231405259,5.4320321095,7.255831719000001,3.6480374838025407,3.4085438179558722,9.688754194071828,13.181057052281616,3.1228025546971505,-10.4540582132067,2.06025317735654,0.07915892269364999,0.0016729619220500114,0.06534767770743001,0.8369934904457998,-2.7565112712115,1.261014524863965,14.60316340893943,3.2102683152819615,14.925971064295474,14.705312542092413,running
1970-01-01 00:00:21.300,-3.1739296315,-21.230318544,-7.435546875,-1.3854015767,-3.2225247620000004,1.7666466534,-9.1335072535,-13.9272742245,-13.4676141755,22.717561755517387,3.9274729494161287,21.418836421577332,13.469584575088781,3.01769034119715,-10.4776170396467,1.82579992391704,0.10888275143165,-0.017012092631449992,0.06708477490993,0.7035076355633,-2.7504165770565003,1.0499451531439652,14.572193101302974,3.201209721206567,14.970617971626805,14.701708893052466,running
1970-01-01 00:00:21.400,17.71571064,-19.7219429,0.00284147265,-4.0398382545,-1.3899065255,2.127122961075,18.8137519355,-14.57009125,12.17967248,26.510402548905898,4.772503050149006,26.73180208373401,14.072364685631776,3.1497262904271497,-10.673740256976698,1.81919124581854,0.07300540228065,-0.02819670514144999,0.08847664685468,0.8657099473143,-2.9675254895315004,1.132166350038965,14.791677268116748,3.2436600430689704,15.152274099753022,14.704787283456591,running
1970-01-01 00:00:21.500,0.3082253934999999,-0.539282322,9.808030368,-1.5230712592,1.11846134825,0.142021989425,2.2007080320000005,4.9970071315,8.5746412295,9.82767968625505,1.8949596548767247,10.165513677577364,14.786620817323044,3.1455971756821497,-10.659459590271702,1.87827900985354,0.031418157118649995,-0.02702082403894999,0.09516847857693002,0.8830307650243,-3.0192138816965,1.1270187832489649,14.845688184303151,3.2339280876333523,15.11748100572946,14.718390826527122,running
1970-01-01 00:00:21.600,0.9809076785000002,-1.5197414755,3.7724343535,3.1761003735,1.08242134005,-0.63329587875,1.991757691,9.048366547,8.597504139,4.1836652563944625,3.414720077837159,12.639506053982034,15.435813273273505,3.0902332416421503,-10.414005340276699,1.90232687675904,0.035380266213649994,-0.05034602732344999,0.08672427897778,0.8726390462782999,-2.8392187597575003,1.206648396561965,14.618500938876716,3.2239910674149046,15.149159548703205,14.744093099863942,running
1970-01-01 00:00:21.700,11.7149603355,-22.068255425,1.6344473809,3.544670343,3.303232968,-2.2537208795,6.30447173,-6.952917578499999,1.691933751,25.03836279404688,5.343715344600616,9.536879283369188,15.904005658992219,3.1953708753121504,-10.4671903073117,1.8776434157170399,0.04434215923214999,-0.01486190953074999,0.07911923115778001,0.9211215400232998,-2.7547910501975004,1.2057736483319652,14.69601750640168,3.2469253377370815,15.088863925605313,14.780226486678373,running
1970-01-01 00:00:21.800,5.9546887875,-21.1178555505,-0.447158754,1.58117809905,-0.2569375634999999,-1.2274976073,0.061879754,-23.016077520000003,-3.6296236515,21.945890106328353,2.0181405967820756,23.300597017289768,16.131474111700754,3.2653265421246505,-10.6886206113767,1.89358858802704,0.07405758728765,-0.015748401065749987,0.06261642863728001,0.9612569450833,-3.0504926922525,1.2404096999869652,14.890370927778651,3.2524773890686816,15.217521647096085,14.821956618625912,running
1970-01-01 00:00:21.900,-2.52517570565,1.535294831,-3.851547122,-2.1333076955,0.620773554,1.5974419414,-4.64538931865,8.144269466499999,-7.1304075715,4.854694408043288,2.7364543272580146,11.779281777786633,16.092488138789673,3.23282752306315,-10.6860214083867,1.84886673310204,0.05591847789864999,-0.011875629205749987,0.08389300232428001,0.9316334413962999,-3.0895887782775002,1.252237855526965,14.92298990824316,3.2732263201901253,15.18792441251501,14.862430038828109,running
1970-01-01 00:00:22.000,2.1994527580000005,-0.0496511459999999,10.942826749,1.7261780353,-0.9500202089,-0.61138170965,-4.5214180945,12.068679335,1.241291523,11.161788160039718,2.0630115369927347,12.94747261520177,15.782420819653861,3.23753091604815,-10.5468398850567,1.97983788187054,0.06351054636265,-0.0038254254362499874,0.07929103201028002,0.9008689641463,-2.9241013100075004,1.3215714135859151,14.892224390276898,3.2737615169359797,15.243535385782263,14.894688252322375,running
1970-01-01 00:00:22.100,-2.9238796235000004,-10.435249089,-7.9670524595,-0.2229592501999999,-2.573117733,1.19321371625,-6.7982261180000005,0.1908540725999999,-10.582677841,13.450554653791002,2.8450667246614696,12.57956175368911,15.231039581609805,3.1573758450281497,-10.459622990411699,1.94348342831054,0.12680119512065,-0.00879543223174999,0.07727905293778001,0.8240817498663,-2.7778885461815004,1.309139815855915,14.82383198580951,3.23208111692773,15.197215066294605,14.913780821163154,running
1970-01-01 00:00:22.200,17.8126208795,-29.853901865,-6.4755761625,-6.695649624,-3.223440886,4.760943413,6.86016821705,-22.054793835,-7.6562905923,35.3620984360118,8.825467535190183,24.33299456919182,14.536523431937376,3.22049701603315,-10.649403738341698,1.71677246289309,0.06893181530315,-0.03245965370224999,0.11625568797728,0.7949995541118,-2.9131904723065003,1.095892616192915,14.950993242618484,3.3051519516289876,15.252152817981745,14.918443095594666,running
1970-01-01 00:00:22.300,6.4467127905,-6.1809601785,-0.2581256629999999,-2.5215010645,-0.8989381790000002,1.2766707839,14.3228673358,-1.8900525569999995,14.386440276,8.934819717783803,2.965795973832709,20.3883910890993,13.891564083840382,3.25863561720315,-10.715684927071699,1.6730077369680902,0.03541462672315,-0.055653525077249986,0.13585319509778002,0.9217037963647999,-3.0303791667715,1.1647911271179152,14.991257180068642,3.3169954930029975,15.331323033126472,14.911834061132884,running
1970-01-01 00:00:22.400,4.1651563645000005,1.1712867020000002,2.6974587736,0.5583143829999999,0.7446991801,0.0992626845999999,0.0824980735,10.7255632865,10.008722545,5.098698256838555,0.9360261212489115,14.67034562400079,13.566714207808516,3.3050100144831505,-10.612570717886701,1.6883427368240902,0.007584424738150002,-0.07488605030625,0.13021202078128,0.9550573563347998,-2.9745243527520007,1.2433278223729152,14.949983713293209,3.283086184939026,15.413492947725553,14.901074947188258,running
1970-01-01 00:00:22.500,5.3763732614,-4.111318052,1.8786649705000005,2.9588677885,1.729308605,-0.70453593115,2.0399470924000003,9.1641335495,5.194788830599999,7.024080554918324,3.498825191322271,10.729797707663886,13.836420429036568,3.29258378327715,-10.3436413836067,1.65110144482409,-0.0021074299768499972,-0.06072126576124999,0.13124588010828,0.9047712415287998,-2.696967060757,1.258524530984915,14.69828259466087,3.277849813977018,15.318524160057699,14.895633674103271,running
1970-01-01 00:00:22.600,12.856935024,-36.400515555,5.7535421845000005,3.2895652055,0.7485169169999999,-4.025407195,10.639475583,-26.374701975,4.9924833775,39.03077706823137,5.252182394189029,28.87469887680105,14.867754716654654,3.4145519337876498,-10.625128554041702,1.7241812403590902,0.031160075488150002,-0.05347356328375,0.09220128564228,1.0442826324438,-2.916668789542,1.3547764240299152,15.004361977855815,3.3290841981444417,15.535278818705407,14.904926053087056,running
1970-01-01 00:00:22.700,1.5566806795,-1.58793690825,-3.7366915945,-0.33398073925,2.4930967095,0.0513875260999999,-2.560939074,3.2530677315,-6.8296208385,4.348294198294097,2.515892488749943,7.9865248640532,16.617824349535965,3.42721594670265,-10.6922352638242,1.74317726090909,0.04365342897565,-0.005583902688749988,0.07705609089328001,1.0497718214687999,-3.0084177591120005,1.388480893214915,14.971625189730055,3.3222587977419344,15.451386043060106,14.935759567229637,running
1970-01-01 00:00:22.800,-2.999253571,3.801148415,-6.115157366,-2.0675653215,-1.1647330293295,1.257200003,-7.808041334,10.41341305,-11.35658407,7.799961593941173,2.6855132164678825,17.273583373531405,18.79068612462234,3.3800399533776497,-10.656336941152551,1.69082977965909,0.02478359265065,-0.010161439414044989,0.09572052902528,0.9337588166907999,-2.9690328313319996,1.262507589919915,15.030201914272872,3.3396081023381665,15.54806081005215,14.990323567272407,running
1970-01-01 00:00:22.900,4.616353094,-5.1157052525,8.682806016999999,2.374439657,-0.4492018224999996,-0.9349780978,-0.2323145864999998,8.974813461,13.13681507,11.084776788361182,2.591125239242076,15.911541625820755,20.888527642369507,3.4234203324526504,-10.502529289127551,1.83359006839409,0.043225071655849996,0.001105637910955013,0.08889049327727999,0.9896734809608,-2.720286398087,1.4962717853499152,14.928572176905174,3.3487021271565425,15.509294818708497,15.065314253300533,running
1970-01-01 00:00:23.000,3.0266213430000004,-35.483467105,-9.585498092,-1.2970578074,-3.658211589,2.0616859795,-4.314592123200001,-16.055769446,-8.109029292999999,36.87978644484341,4.394931178493933,18.497561833047584,22.356891401396837,3.3135673413326505,-10.641852886127548,1.64818968613409,0.08822695099184999,-0.020362589819294986,0.08321190572278,0.7927716326238,-2.7422927953969998,1.152446914769915,15.025162779468387,3.3272244874247714,15.35980548318762,15.152524806191032,running
1970-01-01 00:00:23.100,30.97179985,-15.952500345,32.36995578,-3.401808381,-1.69174147039,2.37016367915,21.181742665,-10.51274681125,-5.3079984190000005,47.55574298026307,4.4779420864545605,24.235488752237593,22.776899823975814,3.59999719417265,-10.78299802011755,1.91528702577909,0.06816290907835001,-0.031158551476194986,0.09802495105978,1.0098337110085998,-2.8967748930245,1.029851716609915,15.436814275041758,3.3543632016509504,15.516745203440491,15.240851740804676,running
1970-01-01 00:00:23.200,-0.5356931684999999,0.7091727855,3.77243443215,-1.06203434615,1.4660334585,0.65429378022,-0.4503118995000001,8.399977205999999,5.209307431999999,3.875713451139324,1.9249081548682543,9.894406591061502,22.023005013705294,3.5708855149776504,-10.77896461873055,1.9084749593810901,0.04081069544685,-0.029076325573194985,0.11243941906598,0.9616909196136,-2.9200796224945003,1.0221416221549149,15.425003304290794,3.351248802138885,15.485324028388218,15.319199914028712,running
1970-01-01 00:00:23.300,1.2693923715,-0.9007481335000004,4.146013975500001,3.01529479,0.96231350295,-0.43255622685,0.6812698839999998,9.8485307695,9.050063133,4.428559142414996,3.194550803782552,13.392584876860754,20.312129373349023,3.4948490867776503,-10.569037802515549,1.95994906152259,0.04238057331185001,-0.06075181005369499,0.10915153357898,0.9416330172785998,-2.7405013754095,1.1042437581694151,15.232845284176484,3.332958420225796,15.533409159837008,15.379382022765284,running
1970-01-01 00:00:23.400,15.917654035000002,-39.032770155,0.9222835896,3.1044784785,2.925271094,-3.616139412,12.779639719,-17.8774318675,2.565863080235,42.16372211950288,5.59208921995003,22.124769261419654,18.12139003794921,3.62664276336765,-10.75029560834055,1.93931246186359,0.038284079591850005,-0.03136089501619499,0.08545829567398,1.0473007025321,-2.7146728278895,1.095358760276765,15.441523287637638,3.3515914662185207,15.545981805954035,15.418054911644827,running
1970-01-01 00:00:23.500,2.9009982945,-7.744220614,-1.623829305,0.9064210055000002,0.7428666353,-0.4501944481499999,-2.4583570955000003,-10.184372423,-3.135656953,8.42766667795845,1.2554381379417536,10.93605531196031,16.0140098493141,3.68707050746165,-10.824990555340548,1.9621639176735899,0.05376523987285001,-0.03245507476469499,0.08403273034098,1.0771435131620999,-2.8745611144595,1.143283697281765,15.47557414815853,3.3530426829797704,15.543017119220178,15.437094409204112,running
1970-01-01 00:00:23.600,-3.282952547,2.635245383,-5.0116174220000005,-1.414874971,-0.44729290895,1.594845891,-8.601831913,9.9133276925,-9.826645376000002,6.5451206894121166,2.1784112435439704,16.39599150841616,14.449714375503051,3.6321028858966495,-10.837524460250549,1.92977108086859,0.05078354165935,-0.026127461023694995,0.09183019607368001,1.0076210238526,-2.9097279407345003,1.1257727681617649,15.492896768080943,3.3572827521430524,15.54940138618294,15.442391173125488,running
1970-01-01 00:00:23.700,-0.7788637874500001,-0.3634098765,-4.447808683,1.6317257283000002,-1.2337587774,-0.4421007334499999,-0.5547652245000001,6.8040966990000005,3.4078769685000005,4.530088036485482,2.092879029405364,7.630014533150641,13.654703954331605,3.63981076558915,-10.681741232545551,1.9514007022535902,0.04853333235735,-0.022241709357694994,0.09814941077818001,1.0243307246776,-2.807104494747,1.168737624786765,15.364922563332598,3.3513173064855573,15.583626596453291,15.441576531650727,running
1970-01-01 00:00:23.800,2.832802892,-21.3451740755,-5.8003514425,0.073988877215,-2.6290102005,0.8316685555,-6.338268757,-14.7036259155,-13.393927572,22.29989473954603,2.75841287237644,20.87504638804205,13.594979748301864,3.56703156906915,-10.652257172750549,1.9245397742985901,0.11449872695449999,-0.04244471860469499,0.07705914585818001,0.9356004347375999,-2.790712371002,1.128446968721765,15.322949182140551,3.30709483353085,15.602320749608435,15.441493241731274,running
1970-01-01 00:00:23.900,21.689890865,-19.03729725,9.2512510405,-4.3795459717,-2.849602461,3.0056740045000003,21.405484198,-20.745224,5.7185225485,30.306034021871294,6.0278299018218835,30.352274588549484,14.049204087541998,3.75823604903415,-10.75510817140555,1.98144708298309,0.0861561761075,-0.05443870467669499,0.11027243911368,1.0801060952526,-2.945101025262,0.999889293227765,15.528091036051874,3.3445460982120183,15.700530909328021,15.44624804725448,running
1970-01-01 00:00:24.000,2.8302605597,1.372433424,6.237191081,-1.03416436905,0.8491540253000001,1.1407572628,-0.9949535130000002,7.904135703650001,8.8038982135,6.985449228218015,1.7583758510417293,11.87324376353885,14.733474398750465,3.7243835914761494,-10.74931305334005,1.9989969404815902,0.06442681260800001,-0.05600323779369499,0.12103938563918001,1.0465279175625999,-2.9583156325205007,0.9746242516127649,15.520905663277038,3.346924095449999,15.671252274758764,15.456413169852231,running
1970-01-01 00:00:24.100,3.1966614725,1.8415760995,2.003091574,2.323357582,0.6180247068,-0.38384114205,4.023770511,10.4393737325,6.4855741265,4.197906972986098,2.4346003808391963,12.931895638394645,15.413995743100529,3.7455600727211498,-10.660875822155049,1.9748862602615902,0.055503861383,-0.07222428681374499,0.11632746263617999,1.0976659067239998,-2.9225482513305003,1.001676643982765,15.479410702542443,3.3320703120076285,15.721466957323617,15.46948339228215,running
1970-01-01 00:00:24.200,13.769049407,-21.898216246,4.357778638349999,3.098522663,3.160599947,-4.2591325045,7.786661149,-3.5840795025,5.100319624,26.231828586468097,6.142511246142693,9.974516429208293,15.962997072363644,3.82286619005415,-10.51696549041505,1.9700976239900903,0.047647602037999996,-0.04381530942374498,0.09493100985118,1.136055235449,-2.7326048733555,1.038154673472765,15.370681085649199,3.349132099604435,15.5915429484537,15.481261626945283,running
1970-01-01 00:00:24.300,3.9293138385,-21.094974993500003,0.8839983939999998,1.65799213925,0.2583883405,-1.1273949743,0.3881330494999995,-26.234792234,-5.151561022,21.476008250566785,2.0215642202012862,26.738615367828054,16.351310323656058,3.8555700933741495,-10.695205355705049,2.02033792727009,0.06964421137900001,-0.052477124348744984,0.08756037413418001,1.161413465329,-3.0123972465505,1.069620046512765,15.532268421247403,3.3562694353546796,15.771456765615671,15.487619499280106,running
1970-01-01 00:00:24.400,-1.6645072696,2.32163611065,-4.016801417,-2.076040745,0.951470952585,1.37684974095,-5.7581144570000005,9.406186581,-7.634214401499999,4.929023463571513,2.6666378377401085,13.413182233331764,16.60223347000516,3.8534150564481497,-10.72920138430855,2.0131908660400897,0.06265688225400001,-0.023208378157894977,0.09003048807018,1.1611669905889999,-3.0448082114905004,1.086451406372765,15.513930244649298,3.3563355671124913,15.738364357926011,15.486067787715925,running
1970-01-01 00:00:24.500,3.8561833202,-2.0668004750000004,8.0937228195,1.0145409105,-1.33653387415,-0.7136223019000001,0.7357425689999997,9.267490385,13.7112641325,9.200552324797895,1.8234233862703504,16.56582202231713,16.742618781659626,3.8564419797051506,-10.66969636869855,2.05854532651009,0.04984512373400001,-0.04054116984039498,0.09224175512367999,1.160687003919,-3.0117485429655,0.965546331292765,15.511296577402982,3.3494670561281286,15.639091373316294,15.476676902994376,running
