Unnamed: 0,acc_Acceleration x (m/s^2),acc_Acceleration y (m/s^2),acc_Acceleration z (m/s^2),gyr_Gyroscope x (rad/s),gyr_Gyroscope y (rad/s),gyr_Gyroscope z (rad/s),lin_acc_Linear Acceleration x (m/s^2),lin_acc_Linear Acceleration y (m/s^2),lin_acc_Linear Acceleration z (m/s^2),acc_magnitude,gyr_magnitude,lin_acc_magnitude,filtered_acc_magnitude,average_acc_Acceleration x (m/s^2),average_acc_Acceleration y (m/s^2),average_acc_Acceleration z (m/s^2),average_gyr_Gyroscope x (rad/s),average_gyr_Gyroscope y (rad/s),average_gyr_Gyroscope z (rad/s),average_lin_acc_Linear Acceleration x (m/s^2),average_lin_acc_Linear Acceleration y (m/s^2),average_lin_acc_Linear Acceleration z (m/s^2),average_acc_magnitude,average_gyr_magnitude,average_lin_acc_magnitude,average_filtered_acc_magnitude,activity
1970-01-01 00:00:00.000,2.176870346,4.746761799,8.090133667,-0.3542914092999999,0.3119902313,-0.3994941114999999,,,,9.629162727343783,0.618430151475154,,9.61575393280596,2.176870346,4.746761799,8.090133667,-0.3542914092999999,0.3119902313,-0.3994941114999999,,,,9.629162727343783,0.618430151475154,,9.61575393280596,walking
1970-01-01 00:00:00.100,1.8858433965,4.594817638,7.635347604500001,-0.2667111754,-0.183635950795,-0.31848049165000003,-0.10879594086,-0.063081979735,-0.24353480335,9.108638069664556,0.4541881075823749,0.27408957177831983,9.466238487899181,2.03135687125,4.6707897185,7.862740635750001,-0.31050129234999996,0.06417714025249999,-0.358987301575,-0.10879594086,-0.063081979735,-0.24353480335,9.36890039850417,0.5363091295287644,0.27408957177831983,9.54099621035257,walking
1970-01-01 00:00:00.200,2.6318057775000003,4.4536411760000005,8.0089268685,-0.47943873705,-0.7372162938,-0.56190311905,0.4929021597,0.14213180539999998,0.3151850699,9.534371031170659,1.0435921050038781,0.6020760894032046,9.343882337648393,2.231506506666667,4.598406871000001,7.91146938,-0.36681377391666664,-0.20295400443166667,-0.4266259074,0.19205310942,0.03952491283249999,0.035825133275000004,9.424057276059665,0.7054034546871356,0.4380828305907622,9.475291586117846,walking
1970-01-01 00:00:00.300,1.9170996545,3.8539398910000005,9.155537605,-0.2512872964,-0.88687384125,-0.12751436604,-0.9942974449,-0.357005834565,0.64426803595,10.116916160831533,0.9305645754981944,1.237401259493052,9.286731746366806,2.152904793625,4.412290126,8.22248643625,-0.33793215453750003,-0.37393396363625,-0.35184802206,-0.20339707535333332,-0.09265200296666669,0.23863943416666666,9.597271997252633,0.7616937348899003,0.7045223068915254,9.428151626180085,walking
1970-01-01 00:00:00.400,3.9006000760000004,4.8978087905,8.622984886000001,0.39582901445,-1.2817102070000002,0.03649812565,0.17094635963500002,0.1785681248,0.72720766065,10.656410288900044,1.341936576960478,0.7680756569343236,9.348556069726698,2.5024438500999997,4.5093938589,8.302586126200001,-0.19117992074,-0.5554892123090001,-0.274178792518,-0.10981121660624998,-0.02484697102500001,0.3607814907875,9.809099655582116,0.8777423033040158,0.7204106444022249,9.412232514889407,walking
1970-01-01 00:00:00.500,4.3063330650000005,4.331457734000002,7.9429745675,-0.10216420773699997,-0.43232715130000005,0.22265382115,0.2810835838000001,0.40440082549999995,0.07169985780000004,10.019824127602867,0.4969094637520986,0.4976835122399308,9.582243624611268,2.803092052583333,4.4797378380833335,8.242650866416668,-0.17634396857283333,-0.5349622021408333,-0.19137335690666665,-0.03163225652499997,0.06100258827999998,0.30296516419,9.844220400918909,0.8142701633786963,0.6758652179697661,9.44056769984305,walking
1970-01-01 00:00:00.600,5.202893734,4.7002514600000005,6.991229296,0.8090671897,-1.3219498096,-0.53189524635,0.2500134707,0.19767475105,-0.16988587375000005,9.901502616460657,1.6386133069276165,0.3611692855627956,10.009741343086365,3.1459208642142857,4.511239784071429,8.063876356357143,-0.03557094596242857,-0.6473890032064286,-0.2400193411128571,0.01530869801250003,0.08378128207499998,0.2241566578666667,9.85240357456773,0.9320334695999707,0.6234158959019377,9.52187822030638,walking
1970-01-01 00:00:00.700,5.1239304545,-1.1605189445,0.83614197365,-2.987043023,-2.307857275,-0.35688750819,-0.1875448227,-4.730511904,-4.372374058,5.319830911147015,3.7915695848191246,6.444421683710546,10.59361511449014,3.3931720629999997,3.802269943,7.160409558518751,-0.404504955592125,-0.854947537180625,-0.2546278619975,-0.013670376374999975,-0.6039748873642858,-0.43249058725714284,9.28583199164014,1.2894754840023648,1.4549881513031675,9.65584533207935,walking
1970-01-01 00:00:00.800,9.210721970000002,-1.29451708862,6.1618173125,-5.398133516000001,-3.2259607315000003,-0.23380178583999994,2.247351408,-3.6139285565,0.05627107649999996,11.157112811744561,6.2929588726452454,4.256082047679089,11.229093011280403,4.039566497111111,3.23596027282,7.049454864516667,-0.9593525734152224,-1.1183934476605557,-0.2523138535355555,0.26895734667187504,-0.98021909600625,-0.3713953792875,9.493752082762853,1.8454180827404625,1.8051248883501576,9.830650629768355,walking
1970-01-01 00:00:00.900,10.6268243815,-0.6768697126500001,10.9115705495,-3.583535433,-1.931269944,0.4947099164,1.2211799622,-0.61479258525,6.650374889,15.246308435154441,4.100764282124585,6.7894577535469605,11.76806729587527,4.69829228555,2.844677274273,7.435666433015001,-1.2217708593737,-1.1996810972945,-0.177611476542,0.37475985950833335,-0.9396161503666668,0.4088013171888889,10.069007718002013,2.0709527026788748,2.358939651149802,10.024392296379046,walking
1970-01-01 00:00:01.000,9.5026464465,-1.7518452702,2.9801111220000003,-0.6187119426300001,-1.6210358740000002,1.7503064275,0.080708742,-0.249427557,3.8657684315,10.111889716436254,2.464575899195589,3.874647541804052,12.069762695076582,5.1350517547272725,2.426811588411818,7.030615950195455,-1.1669473214879091,-1.2379860769950002,-0.002346212538181801,0.3453547477575,-0.8705972910300002,0.7544980286199999,10.072906081496035,2.1067366296349395,2.510510440215227,10.210335059897004,walking
1970-01-01 00:00:01.100,14.557932855,0.8995518084999999,10.3884391775,-0.8515974732499999,-0.6632274090999999,1.1254860905500002,2.382857323,2.1655604834999997,-2.232370317,17.90704528981487,1.5594254687700873,3.918052891640714,12.055977094789352,5.920291846416667,2.2995399400858334,7.310434552470834,-1.1406681674680834,-1.1900895213370835,0.0916398127191667,0.5305822545977272,-0.5945829478909093,0.4829645426545454,10.725751015522604,2.061127366229535,2.638468844890271,10.3641385628047,walking
1970-01-01 00:00:01.200,9.829416275,-2.954986453,0.5189434254999999,-0.1424801275,-0.37009710085,0.6328377724,1.942082405,2.440677166,0.8030172887,10.277094507861552,0.7468307016762136,3.22078031886614,11.743253835207767,6.220993725538462,1.8953456021561539,6.7880121580884625,-1.063884472085923,-1.1270131812996154,0.13327042500230774,0.64820726713125,-0.3416446050666668,0.509635604825,10.691238976471755,1.9600276228023565,2.686994801054927,10.47022435298955,walking
1970-01-01 00:00:01.300,8.2171022895,-3.9065821169999997,0.09511470237,-0.47019968925,0.24754586815000004,1.6382923719999998,-0.10183620450000007,1.69316101055,-0.215385735,9.098967011676505,1.7223148959357923,1.709840880033915,11.234813305593498,6.363572908678572,1.480922193645,6.309948054108572,-1.0214784161690715,-1.0288303920532142,0.24077199264500002,0.5905116154673077,-0.185121096173077,0.45386473253076925,10.577505264700665,1.9430481423118877,2.6118291148225414,10.524837849604117,walking
1970-01-01 00:00:01.400,7.680810928500001,-6.317500353,-0.12996017935,-0.45531027765,-0.43286164104999997,2.2491396665,0.2781009674,0.034379482299999965,-0.18919193745000001,9.945981946381004,2.335231442202239,0.33810602784942567,10.67588644277731,6.451388776666667,0.9610273572020002,5.880620838544668,-0.9837338736011334,-0.9890991419863333,0.374663170902,0.5681965691767857,-0.1694424834250001,0.40793211324642853,10.535403710146023,1.9691936956379112,2.4494203228958904,10.534907755815663,walking
1970-01-01 00:00:01.500,4.8809094425,-8.45773053,-1.19416800125,0.29106871779999993,-0.33993650225,2.2688393595,-1.164159774905,0.35232329375,0.32391011699999994,9.837810727961234,2.3125548346493474,1.2586967262691449,10.194933236639836,6.35323381828125,0.37235498925187516,5.4384465360575005,-0.9040587116385626,-0.9485264770028125,0.49304918268937503,0.45270614623800004,-0.13465809828000008,0.40233064682999997,10.491804148759472,1.990653766826126,2.3700387497874407,10.513659348367174,walking
1970-01-01 00:00:01.600,4.1795134544999994,-6.092425585,-0.35742787275,0.15423893924999998,-2.5605190395,1.40578860065,1.004158497,1.70221972475,0.751801490715,7.396873455002978,2.925113500659496,2.1144956277719187,9.859321069771672,6.225367914529412,-0.007926220998235145,5.097512747304118,-0.8418059086451177,-1.0433495689144117,0.5467397366870589,0.487171918160625,-0.01985323434062508,0.42417257457281243,10.309749402067913,2.045621986463383,2.3540673046614704,10.47516886139097,walking
1970-01-01 00:00:01.700,4.297958255,-11.989088535,-0.8769694564999999,0.29755896142,0.09949171550000002,1.4646589755000001,2.056414485,-2.7871308325,-0.0834214685000001,12.76635282645067,1.4978871290879003,3.464664190509183,9.6647429604476,6.118289600111111,-0.6735463495538888,4.7655970693150005,-0.7785078603081668,-0.9798583864469443,0.5977352499544445,0.5794803044452941,-0.18263426952647066,0.3943141014508823,10.446227370089177,2.015192272164745,2.4193965332407474,10.430145200227448,walking
1970-01-01 00:00:01.800,1.89900389315,-8.2651083445,1.43330079315,0.61237438405,1.34523840265,2.095435202,1.12929567705,1.141319275045,1.9873100519999998,8.60073153261784,2.564277175343126,2.55486196428952,9.559194600945293,5.896221931323684,-1.0731022440247369,4.59021305478,-0.7053035316577368,-0.8574848712313156,0.67656156322,0.6100256029233333,-0.10908129482805562,0.48281387648138874,10.349096010222263,2.0440914775951864,2.426922390521235,10.384305695002071,walking
1970-01-01 00:00:01.900,-2.9071299435,-12.3912315375,0.06400799749999997,-0.4032355547,1.3523394466999998,1.4916890859999998,0.6714948567000001,0.45989465715000005,-0.7190470991000002,12.727848229299125,2.0534257281349606,1.0860189542424181,9.485173153657897,5.4560543375825,-1.6390087086985,4.363902801916,-0.69020013280985,-0.7469936553347498,0.717317939359,0.6132608268063158,-0.07913519209236848,0.41955803566131566,10.468033621176108,2.044558190122175,2.356348525453929,10.339349067934862,walking
1970-01-01 00:00:02.000,-2.886641502,-8.577521324,-1.662114382,1.1823711993000001,0.6981220694499999,0.24647687375,-1.8221975565000001,-0.254203319525,-2.6187660695,9.201586572086075,1.395036532167113,3.2004623086886337,9.416629312081097,5.058783107126191,-1.9694140713319048,4.076949602681905,-0.6010300693760476,-0.6781786208211903,0.6948969362347619,0.4914879076409999,-0.08788859846400006,0.26764183040324985,10.407726618838486,2.01362858736241,2.398554214615664,10.295410031941824,walking
1970-01-01 00:00:02.100,-2.4868905545,-7.7312099935,0.52238307895,2.2671597,0.5893148779999999,0.3976615667,-0.21507990360000007,1.8848462105,0.12533393505,8.13812734447114,2.3760134369078267,1.9012136117343346,9.372840589249956,4.715797940688637,-2.231313885975909,3.9153783970577276,-0.4706578071316818,-0.6205652799656817,0.6813862376195454,0.45784182139142854,0.006051154343809466,0.260865263957857,10.304563015458154,2.0301006259781107,2.3748713287641725,10.253475057274013,walking
1970-01-01 00:00:02.200,-1.3592728227000002,-6.6106212135,2.6962624789999996,1.6967809795000002,0.207840781675,0.07353074104999999,0.5969814656499999,1.6505942345,-0.13929021361,7.267583284047749,1.7110436151073465,1.7607526688611839,9.405454901233632,4.451664429236956,-2.42171855239,3.862373357142174,-0.3764213381476957,-0.5845476251117391,0.6549577377686956,0.46416635067590906,0.08080311253272722,0.2426763786138635,10.17252041844031,2.0162285820272077,2.3469568442231274,10.21660461570704,walking
1970-01-01 00:00:02.300,-0.39332022147,-7.4750282765,5.694917917000001,0.5828246324999999,0.6080220937999999,-0.3096231967,1.866498768,1.8222424984999999,1.8941910267500002,9.405468548268045,0.8973527415305661,3.223716026591868,9.568733573716191,4.2497900687908325,-2.6322731242279165,3.9387293804695833,-0.33645275603737507,-0.5348572201570833,0.6147668654991666,0.5251373253421738,0.15651786844434776,0.3144813633154347,10.140559923849798,1.9696087553398478,2.3850768086739422,10.189609988957422,walking
1970-01-01 00:00:02.400,-1.5987046062,-8.369196175999999,6.094668864999999,0.5619031191,1.1874870658,-0.5883986056,0.8938591481500001,-0.0010819435000000157,4.1720707415,10.475890874968988,1.4394698905390926,4.266750475410244,9.888864083519834,4.0158502817912,-2.8617500462988,4.0249669598508,-0.30051852103188004,-0.4659634487187999,0.5666402466552,0.5405007346258333,0.14995120961333328,0.47521425407312484,10.153973161894566,1.9484032007478178,2.463479878121288,10.177580152739917,walking
1970-01-01 00:00:02.500,-6.8908803465,-10.743025778,-2.59815681,-0.4264477491500001,-0.91940146705,-0.170197323,-4.563621998,-2.8227443695,-3.0550491808499998,13.024870580005848,1.0276788745153616,6.17477586747776,10.34465003259703,3.596360642241538,-3.1648760359796153,3.7702314302411537,-0.30536195288257695,-0.48340337250076915,0.5383003401299999,0.3363358253207999,0.031043386448799934,0.3340037166761999,10.264392293360384,1.912990726661954,2.6119317176955468,10.184005917349806,walking
1970-01-01 00:00:02.600,1.1401799397,-12.190234661500002,-2.6449663635000005,-2.2041659355000003,-1.19519901275,0.5476245731,1.990137219,-1.6323847775000002,-4.998423816,12.52588034676113,2.566464654804372,5.622238598335967,10.864104977363226,3.5053909865918516,-3.4991485776655558,3.532631511954444,-0.3756880263128519,-0.5097661739914814,0.5386456820918518,0.39994357123153834,-0.03293461985692315,0.12891035003480755,10.348151110153005,1.9371934647413027,2.727712751566332,10.209194771424379,walking
1970-01-01 00:00:02.700,-1.7291134875450005,-6.5400328635000005,-0.1885843426,-1.9821230769999998,0.1782146692,-0.7082773745000001,1.125053227,2.2484369276,-0.7918824554000001,6.7673796526236005,2.112398920640376,2.6359611537632293,11.336239573055492,3.318444398229821,-3.6077515878739286,3.399730945720357,-0.4330607066945357,-0.48519542959178563,0.494112715785,0.4267994844081481,0.0515606226414814,0.09480691279648135,10.220266415241241,1.9434508024519839,2.7243145442402916,10.249446371482632,walking
1970-01-01 00:00:02.800,-2.253440678,-8.922237396,-0.4962115882500001,-1.3495143055,-1.52589643,0.33291176705500003,-0.8219848273999999,0.4651107788,0.52442166205,9.215776743181204,2.064068560024006,1.080280136195716,11.63653833624723,3.126310430083965,-3.791009719188621,3.265388099721379,-0.46466255492920694,-0.5210816709851723,0.48855406238051724,0.3822000447007142,0.06633027107571421,0.11015029669839273,10.18562884034262,1.9476100354717087,2.6655990296672707,10.297277128888307,walking
1970-01-01 00:00:02.900,1.2406785784999999,-12.227323535,1.3963616194,-1.1812258659000001,-0.32153472305,0.5862606614999999,3.31886458375,-2.318130493,3.621731043,12.369177415529581,1.35734324605844,5.431899010077079,11.663869386080648,3.063456035031166,-4.072220179715667,3.2030872170439997,-0.48854799862823334,-0.5144301060539999,0.49181094901783334,0.48346433915068954,-0.015892513892413866,0.2312392879501723,10.25841379284885,1.9279344758245998,2.7609886841641607,10.342830204128052,walking
1970-01-01 00:00:03.000,-1.1044372022,-13.78340626,3.383451104,1.201078448375,-0.19585290549999995,-0.5287646651,1.3955768345,-4.3354177475,5.5222325325,14.235512320776143,1.326853372005364,7.15810965893457,11.380978895446196,2.929007866088225,-4.385484246821613,3.208905406945806,-0.43404391969264516,-0.5041534221651612,0.45888915501403227,0.5138680889956666,-0.15987668834600008,0.4076057294351666,10.386707293749732,1.9085447627981729,2.907559383323174,10.376318871589929,walking
1970-01-01 00:00:03.100,-6.0432231425,-15.616158485,-1.291077256,3.5037435295000003,0.12201675769999998,-0.6162685305,-4.4027314185,-5.991835117500001,-2.092945218,16.794398835910904,3.5596198829871386,7.724412709345762,10.842411264759239,2.648625647069843,-4.736442816764687,3.06828094872875,-0.310988061905375,-0.4845856040443749,0.42529047734171876,0.3552681048829031,-0.34800437960903235,0.3269427956469354,10.586947654442268,1.960140860304078,3.062941748678741,10.390884258876468,walking
1970-01-01 00:00:03.200,-1.2946665885,-7.73823905,-1.2468101382,2.8286045790000003,0.19699824600000002,-0.219523241745,-0.9951021073999999,0.4163267615,-5.555613518,7.944245759733358,2.8439413895038483,5.659363721998909,10.191795465623906,2.529131942961666,-4.8274063389839394,2.9375206127612117,-0.21584889096884846,-0.46393154798242414,0.4057506676724243,0.3130690357490624,-0.3241190314493751,0.14311291084546865,10.506865778845027,1.986922694522253,3.1440799353449966,10.384851265141542,walking
1970-01-01 00:00:03.300,0.4663012624999999,-2.274976075,-0.3765704633000001,1.864763975,2.4415565135,-0.7075138390000001,2.0666381715,5.38458848,-7.1576116085,2.352606708113678,3.1526367890146485,9.192180936479847,9.621701809387346,2.4684604523598526,-4.752334860631471,2.840047345818235,-0.15465439491094116,-0.3784760167623529,0.3730075939467647,0.36620749440818173,-0.151127894738788,-0.07812116549833342,10.26703462970587,2.021208403183794,3.3273557232581736,10.362405692913477,walking
1970-01-01 00:00:03.400,-5.6075799465,-6.903891443999998,6.34008264385,-1.355851829,0.93871952595,-0.8092198968000001,-1.01822853095,3.904925108,0.6907920840000004,10.92269737096901,1.836944575097311,4.0941938331796734,9.30891787227021,2.237716440963857,-4.813807905870572,2.9400483543334284,-0.18897432159919997,-0.34084185839914277,0.3392296656397143,0.3254887877799999,-0.03183221818764716,-0.05550606992485302,10.285767850884817,2.015943722381323,3.3499097853146886,10.332306040895098,walking
1970-01-01 00:00:03.500,-2.3001008035,-8.80020356,5.26630336,0.44889637082500006,0.7281299364699999,-0.2696127072,-1.0544378159999999,-3.1032381039999994,3.62130069715,10.510375706093733,0.8968679769104119,4.8842342876962235,9.35210186384284,2.1116659619509717,-4.924541118485278,3.0046665489352775,-0.1712556912540833,-0.31114819743055544,0.3223173775052778,0.28606231338628557,-0.11958667206800008,0.04954555199157135,10.292006957973953,1.9848582850071308,3.393747628239875,10.305078147088091,walking
1970-01-01 00:00:03.600,-3.615704477,-10.69143057,-4.2059839965000005,-1.97700721,-1.5840032695,0.04306472835,-2.4375994804,-3.0372066495,-9.6246442795,12.044513600679045,2.533668967526447,10.382691990304124,9.737205212284817,1.9568721663036484,-5.080402995553244,2.809784101761351,-0.22005978635532428,-0.3455496858648648,0.3147700086091892,0.21040504133666657,-0.2006316714411112,-0.21918194332763896,10.33937200237139,1.9996910061563018,3.5878849716305488,10.289730229931246,walking
1970-01-01 00:00:03.700,-0.24122643450000006,-10.842178343499999,0.35368908925,-2.520890236,-0.9180270621950001,0.046500757300000056,1.6003521680500001,-1.8655304905,-3.0615065398000003,10.850627511661086,2.6832487006075287,3.926086265736615,10.341805178634418,1.8990274662824995,-5.232028662604474,2.7451500224847365,-0.28060795608281575,-0.3606148799788157,0.3077102914694737,0.24797117989648637,-0.24562893682108117,-0.2960015270160811,10.352826094721117,2.0176793665365973,3.5970255471469286,10.291100623318172,walking
1970-01-01 00:00:03.800,-1.4479568,-7.257131815,0.5463113413999999,-1.6484476925,-1.9108065365,-0.24556059018000004,0.4670035243,2.37732172,0.7316588314500001,7.420309774982019,2.535519950284211,2.5308250626487716,10.9740050090759,1.8132073568906406,-5.2839543844607695,2.6887695434825636,-0.3156807698371025,-0.4003633839921794,0.2935238586066667,0.25373518895973673,-0.17660391953631588,-0.2689578333722369,10.27763336857396,2.0309573302224337,3.5689676396601353,10.308610992183755,walking
1970-01-01 00:00:03.900,-0.89491564025,-9.2956671715,0.401545584,-1.628976941,-0.7887565245635,0.80746370555,0.6911976338,0.6233863830499999,1.5871680379,9.347274523758076,1.9818426691167352,1.8399638942311385,11.43254269495629,1.7455042819621245,-5.38424720413675,2.6315889444955,-0.34851317411617494,-0.41007321250646245,0.30637235478025,0.2649521747248717,-0.1560913476751283,-0.22136486231397443,10.254374397453564,2.029729463694791,3.524634210290161,10.336709284753068,walking
1970-01-01 00:00:04.000,1.8010476379,-13.145420075,2.7969106435000004,-0.3651339561,-0.32290913165,-0.11140325665000007,4.4910173415,-4.2651658055000015,4.407568693,13.55981381472186,0.5000037987779888,7.601811487637268,11.571064946369885,1.746858997960609,-5.573544103426098,2.6356211810565853,-0.34891855904260966,-0.4079472593148414,0.2961827057209756,0.37060380389424996,-0.25881820912075015,-0.10564152343112507,10.334994871045472,1.9924190816236493,3.6265636422238385,10.366815520402259,walking
1970-01-01 00:00:04.100,-3.1154551505000003,-15.941583155,-0.6770191189999997,3.4869451519999997,-0.2799207531,-0.68170556425,-0.8961901069499999,-5.359434128,4.12596827735,16.257259583645954,3.563967535963506,6.822778400759085,11.34741876369679,1.6310896134734518,-5.820402176082619,2.5567487929599997,-0.25758847068445234,-0.404899009166869,0.27289965167404756,0.3397063914346341,-0.38322347543487817,-0.0024315282901220185,10.476001173726436,2.029836901965074,3.7045200997490886,10.390163216671176,walking
1970-01-01 00:00:04.200,-4.998457073999999,-12.86650658,-0.3381357195000001,2.9395496844999998,0.4715740977,-0.2431935668,-4.0942888260000005,-5.1394758225,-5.0300633910000005,13.807458146183377,2.987051654759007,8.275200930385251,10.839672827730709,1.4769141091136042,-5.984265069196977,2.489425897321395,-0.18323642056388367,-0.38451591365833715,0.2608974838025581,0.23413507673380943,-0.49646757893642873,-0.12213704883083341,10.553476917271947,2.0520977101695848,3.813345833811854,10.40061692855628,walking
1970-01-01 00:00:04.300,0.803838849,-4.433302164,-1.3772189615,2.7136889694999997,1.57010647645,-0.48088951409999997,1.0036486985000002,3.0767419335,-7.167445183,4.71137528121077,3.1718443996116106,7.8642178305708175,10.219715705596006,1.4616169441110223,-5.949015912260682,2.401547605075454,-0.11739720715334089,-0.34009267751951133,0.2440386883956818,0.25203074235627904,-0.41336968329837226,-0.28598142404406984,10.420701880088739,2.077546498565994,3.9075521593178766,10.396505537125366,walking
1970-01-01 00:00:04.400,-1.378415406,-0.5117649435999999,-0.44476592545,-0.7711946815,2.238984346,-0.8700755535,0.9768369795,6.865368127999999,-6.5721051695,1.5361474920844842,2.522860203658789,9.554059680389562,9.692904651100756,1.3985051141085552,-5.828188112957111,2.338296193286,-0.13192603991659996,-0.2827798547746333,0.21928059413133333,0.2685036113822727,-0.24794382395068199,-0.4288478728044318,10.223267338133088,2.0874423586791675,4.035881875705869,10.380869961880375,walking
1970-01-01 00:00:04.500,-5.592026472000001,-13.010076047000004,10.0688481325,0.4263713881500001,1.2309335469999998,-0.40690062195,-0.6771503687,-3.4198117255000007,6.741405010499999,17.375688231768567,1.364755682862781,7.589478662944665,9.428526104589512,1.2465370361496735,-5.984316111523261,2.5063516702254343,-0.1197891393064565,-0.24987304169257604,0.20566795899913043,0.2474890784915555,-0.31842977731844463,-0.2695089198421111,10.378754748864294,2.0717317787701157,4.114850693200065,10.360166834547964,walking
1970-01-01 00:00:04.600,-4.3746780155,-8.570193527999999,-1.4383852485,-1.2505569905999998,-1.23826372635,0.16615045910999998,-2.9927879575,0.5106401440999999,-5.1133060445,9.729078937380171,1.7677092005743422,5.946716053423413,9.508619009233515,1.126936715901808,-6.039334779958936,2.4224210974865956,-0.1438480297595106,-0.2709026307278404,0.20482716112914892,0.17704827336130427,-0.3004065181571741,-0.37480885733467395,10.364931859258249,2.0652632132765887,4.154673853204921,10.342048795711488,walking
1970-01-01 00:00:04.700,1.702792406,-12.05489111,-1.9015464785,-2.8736546040000004,-0.8296833334999999,0.1850103587,2.0904089215,-2.6958975791000004,-4.894028543449999,12.322166232517077,2.9967472448981036,5.965667489911532,9.910491191826274,1.1389337094455203,-6.164658870168125,2.3323384396535416,-0.20071900005618748,-0.28254389536892704,0.20441431107854166,0.21775807438553185,-0.35137441307085127,-0.4709624676775532,10.405707575367808,2.084669130602037,4.193205632709317,10.333058012297213,walking
1970-01-01 00:00:04.800,-1.7507984637499998,-6.791578293000001,0.7450651527500001,-1.891106725,-1.34386399395,-0.54075255245,0.8442798255,1.9446902275,-0.15443463624999998,7.053081103493745,2.382156250659612,2.1256713202078026,10.522034390537755,1.0799595834619382,-6.1774531441034695,2.299945107267755,-0.2352167087285102,-0.3042034892175204,0.1892068240677551,0.23081061086708324,-0.3035397330589585,-0.4643681378561458,10.337286626962214,2.0907402963174975,4.150132001198869,10.336914673077633,walking
1970-01-01 00:00:04.900,-0.6828517615999999,-8.589485645500003,-0.5225326415,-1.4844352005,-1.1915339232,0.60420429705,0.75539177676,1.453393936,0.8976785839500001,8.632415104940437,1.9970888280678813,1.8678323023442656,11.179872136013293,1.0447033565606996,-6.2256937941314,2.2434955522923996,-0.26020107856394,-0.32195009789717,0.19750677352739998,0.2415163489465305,-0.26768394389448996,-0.43657126598255097,10.30318919652178,2.0888672669525055,4.103554456324284,10.353773822336345,walking
1970-01-01 00:00:05.000,0.6613163354999999,-11.200204370000002,2.8362426165,-1.0247726292000001,-0.5612922905500001,0.3926220825115,2.0435826776,-1.5436601636999998,4.9074821470000005,11.572648331519327,1.2326232500906407,5.535566627212144,11.718884456621042,1.0371859639908818,-6.3232332171876475,2.2551180437474505,-0.2751926775960196,-0.3266430820668333,0.20133256389963722,0.2775576755195999,-0.2932034682906002,-0.3296901977229,10.328080552109967,2.072078168582665,4.132194699742041,10.380540697518398,walking
1970-01-01 00:00:05.100,-0.19815561175,-15.48440409,3.82507652,2.6669591665,0.236168820385,-0.8281561733,3.367310405,-6.4902276995,4.948165417,15.951089180765434,2.802550544571019,8.828713153623982,12.021050890590699,1.013429395226634,-6.499409580126346,2.2853095529061536,-0.21861283444032692,-0.3158197762504519,0.18153470356887497,0.3381410623721568,-0.4147137473339218,-0.2262028327283333,10.436215333430264,2.0861257142747487,4.224283296876982,10.412088970462095,walking
1970-01-01 00:00:05.200,-5.5896337035000005,-16.256537440000002,-2.446362257,3.6635563369999997,-0.4769189954,-0.3860554695,-4.827848196000001,-5.8698730470000005,-1.89656776215,17.36386197739141,3.7145841743157564,7.833294138990581,12.04931542813064,0.8888432990242447,-6.683506332199434,2.1960327263041504,-0.14536435950749058,-0.3188593841589339,0.17082545502040564,0.23879511509576914,-0.5196206569428848,-0.2583252352172115,10.566925647467265,2.116851345596277,4.293687351533013,10.442980035701124,walking
1970-01-01 00:00:05.300,-0.029312074199999982,-7.223632574500001,-2.0057835729,2.8060795064999997,0.23548159015000006,-0.32000761850500004,-0.22279524804,0.6277701855,-5.072826147000001,7.496992364300961,2.834067510134523,5.116375498928786,11.853518159061466,0.8718404217423142,-6.693508670019815,2.1182213133559253,-0.09070799161846299,-0.3085938105606203,0.16173595365882404,0.23008586296113198,-0.49797177312320773,-0.3491648750621698,10.510075031112333,2.1301331264210592,4.309209769408405,10.469101112059649,walking
1970-01-01 00:00:05.400,0.5295615496000001,-1.44062877465,-1.7854943572,2.1952323315,2.7111691235000004,-0.77157643435,2.7454787489999997,5.959458828000001,-7.7402520175,2.3545353683385932,3.572787874969202,10.147132815640612,11.545243934714335,0.8656171695215449,-6.598001762831273,2.0472446648003633,-0.04914544028903639,-0.2536890299413363,0.14476663751320903,0.2766672127025925,-0.37838972495425943,-0.48603685918138884,10.361792491789174,2.1563632127582983,4.417319455449742,10.488667345198825,walking
1970-01-01 00:00:05.500,-6.235994697000001,-14.609378814500001,12.252298595,-1.304846078,1.6803644298,-1.0469922124,-3.0646545885500003,0.3383839129999995,0.9571433065000003,20.060917228970677,2.3711686142143726,3.228426045130276,11.25258372062635,0.7388026719050886,-6.741062067325358,2.229477770696785,-0.07156866596244646,-0.21915236101738383,0.1234852294790446,0.21591590722527262,-0.3653574769914547,-0.4597972198053636,10.534991147810272,2.1601990234985853,4.395703211625752,10.502308709045746,walking
1970-01-01 00:00:05.600,-4.445266247,-10.4053384075,0.7954640390000001,0.43981001524999996,0.75149485485,-0.2786990628,-1.6997020244999999,-1.7760090829500002,0.8056342599999999,11.343025276294428,0.9142486171637484,2.586936759121886,11.073925686982019,0.647854094380438,-6.805347617152983,2.204319635052982,-0.06259711015170179,-0.20212346249339466,0.11642936470221925,0.1817084441587499,-0.39054768424071445,-0.43720022909455347,10.549167185152099,2.1383402444400796,4.363403810688182,10.512337077079714,walking
1970-01-01 00:00:05.700,-1.304237939645,-8.08788991,-7.123133898000001,-2.30327591295,-1.8801878095,0.28457847234999994,0.7273346184999999,-0.23346805571999996,-12.09943819,10.856059889680322,2.9868329442895067,12.123527848524155,11.046990694896632,0.6141973351731028,-6.827460415305517,2.0435014706899994,-0.10122950330339658,-0.23105560640730166,0.11932848724787064,0.1912808331822806,-0.38779190128421065,-0.6418008950753509,10.554458438678447,2.152969428920242,4.499546337667761,10.521555242904144,walking
1970-01-01 00:00:05.800,1.27178528905,-9.2514002335,2.207827628,-2.623894334,-0.38223768025,-0.252661705,2.9891304969999997,-1.202219486,1.8397764266,9.59585050617234,2.6636000182785913,3.7101226557199745,11.140779088944203,0.6253428937133892,-6.868544141037628,2.046286659796949,-0.14398653433215255,-0.23361801443853383,0.11302356873519485,0.23951962048948267,-0.40183375619310363,-0.5990150791843966,10.538210846602073,2.1616241846720783,4.485935584530731,10.532050562328552,walking
1970-01-01 00:00:05.900,-2.2594227790000003,-7.516902685,-0.7691429552999999,-1.776649177,-2.073673725,-0.09223791955,-1.1393352151,2.6435537335,0.6139697433,7.886722903444237,2.7322358700692484,2.9433688046109037,11.27132195157243,0.5772634658348328,-6.879350116770334,1.9993628328786663,-0.17119757837661667,-0.26428560961455827,0.10960254393044161,0.216149199547288,-0.3502170190796612,-0.5784560143965255,10.494019380882776,2.171134379428698,4.459790384871073,10.544371752149283,walking
1970-01-01 00:00:06.000,1.702792436,-11.2504539495,2.4797120095,-1.590417206,-0.5606814325,0.9568921926,2.7106291056,-1.75110149365,4.2860379215,11.645651025167185,1.9389257918110052,5.365071076297607,11.337448685075376,0.5957147604277044,-6.951007556651148,2.0072374095445897,-0.19446347391142624,-0.2691445575307131,0.12349253817092617,0.25772386464816655,-0.3735650936558335,-0.49738111546491676,10.512898588166127,2.167327681271031,4.474878396394848,10.557373013344794,walking
1970-01-01 00:00:06.100,-0.5525924859,-14.09940815,2.936890721,0.5854971111,-0.24349899215999998,-0.54479940235,2.5755476952,-5.588384627999999,5.3031859395000005,14.412633199483551,0.8360053917830307,8.123254876564395,11.266205178568606,0.5771936758095156,-7.066304340414839,2.0222318177938705,-0.18188346447575807,-0.26873091937957255,0.11271363590445962,0.2957209766244261,-0.4590539384811477,-0.40228985226877056,10.575797533509958,2.145854741117999,4.5346878468894305,10.56880579020324,walking
1970-01-01 00:00:06.200,-6.547361135,-15.438940525,-1.3413267134999998,3.7012763025,0.1644706279,-0.6022190377000001,-4.2564263344999995,-6.3582019805000005,-1.104203939,16.823435431532538,3.753553599491848,7.73066387218862,11.049947366669551,0.46410550420936464,-7.199203327471747,1.9688419998368252,-0.12024600785709523,-0.26185470434338887,0.10136549822819836,0.22229924579983862,-0.5542014875459679,-0.4136110472160485,10.674966389034125,2.1713737706159963,4.586235847297482,10.57644295808366,walking
1970-01-01 00:00:06.300,-1.980509335345,-7.687989712,-2.2906790375,2.859681487,-0.1223221719,0.01771456745000001,-2.18824905175,-0.30388760549999994,-4.793086648,8.262857465311166,2.8623512584462456,5.277732581752999,10.756021102831879,0.4259083973413277,-7.206840614730001,1.9022869836284373,-0.07368464074995312,-0.2596745085239609,0.100058452434789,0.18403657441015864,-0.550228251323016,-0.48312653294277785,10.637277187100954,2.182170293863344,4.597211985939634,10.57924886659535,walking
1970-01-01 00:00:06.400,1.7193925976,-2.4544378219,-1.6957634685,1.888128817,2.4063564535,-0.71942535045,3.3773573635000003,4.906751633,-6.758634329,3.443281816429501,3.142157641773726,9.008989529457404,10.501080329322198,0.44580815426838416,-7.133726725609539,1.8469323612879998,-0.04350289524610769,-0.21865864756974612,0.08745100931348455,0.2339322117396874,-0.46496294063046895,-0.581181342256172,10.52660033524447,2.1969393299850424,4.666146010057099,10.578046273714225,walking
1970-01-01 00:00:06.500,-5.2401317955,-7.659275891,7.37796957705,-1.149080038,1.62775519475,-1.107084274,-0.7548121214000001,4.183927059,0.7314558029999998,11.855712694247412,2.2793875268378123,4.313932610204653,10.400813883113468,0.3596575489688632,-7.141689591751819,1.9307359554662118,-0.06025406407571212,-0.19068268026187118,0.06935198986934085,0.21872076046061528,-0.39344155602076947,-0.5609869246368463,10.546738401289968,2.1981885450888723,4.6607273423670605,10.575360934462697,walking
1970-01-01 00:00:06.600,-5.3970116375,-10.012766361499999,5.6123657225,0.8037222621500001,0.6239804775000001,-0.2053973898,-4.470584511499999,-5.9477996845000005,3.1105055809999986,12.68392186306701,1.038031405456162,8.06459496384252,10.519128247760555,0.27373711334992495,-7.184541483837612,1.9856856534816414,-0.04735889502756716,-0.17852352865348506,0.0652512528593507,0.14767068058242416,-0.4775984973613639,-0.5053582503090153,10.578636661913507,2.180872766885399,4.712301094207598,10.574521640631323,walking
1970-01-01 00:00:06.700,-1.1965609190000002,-9.9242320045,-8.236394405,-2.5576937795,-2.2238657475,0.45737187565,-0.9409409759999999,-1.8406853675,-11.02000618,12.952232691962244,3.420024176118106,11.212226752509183,10.839443737776568,0.25211508346242606,-7.224831050317942,1.8353609467392644,-0.08427558450510295,-0.20860209069534558,0.071017732606272,0.13142274540955215,-0.49794307751268674,-0.6622932940357463,10.61354248588481,2.1990955817270565,4.8093149100031445,10.578417553824636,walking
1970-01-01 00:00:06.800,0.71276205775,-10.547861336,1.92308163645,-2.8378436564999996,-0.7137750089,-0.41270369013,2.6551499365,-2.0847420694500003,-0.17366945749999985,10.74540141152963,2.955191316634915,3.380256168088296,11.267974808797328,0.25879112656804304,-7.2729909095307255,1.8366322610828985,-0.1241823681572029,-0.21592343733599276,0.06400727720429705,0.16853638057264697,-0.5212783568058825,-0.6551076493808088,10.6154534848072,2.21005349092862,4.788299340269102,10.588411137230038,walking
1970-01-01 00:00:06.900,-2.091925144,-6.895516634,-0.05458627645,-1.710295975,-2.6208401915,-0.09017632905000006,-1.2365955115,2.9965863230000003,0.764405489,7.206058570359166,3.1308221606798257,3.3306176306904307,11.665400510648789,0.22520946555992813,-7.2675984198802865,1.809614853403857,-0.14684113396924287,-0.25027939096690716,0.06180465425780709,0.14817215025275354,-0.4702948107217393,-0.6345349952013769,10.566747843172227,2.2232073290679226,4.76717351839115,10.603796699707448,walking
1970-01-01 00:00:07.000,1.4513965396000001,-11.3546915045,2.002044797,-1.4859623315000001,-0.24533152580999995,0.8931350708000001,2.3674420715,-1.2441949845,2.798494935,11.620832777676569,1.7509888243178766,3.8709659030510486,11.895527508156595,0.24247970603936578,-7.325163111212959,1.8123251342995774,-0.16570199590629578,-0.25020970272526055,0.07351353336403517,0.17987600627057135,-0.4813505274900001,-0.5854917104842143,10.581594109855386,2.2165563642122885,4.75437055245772,10.621990091375746,walking
1970-01-01 00:00:07.100,-0.2497508525000001,-13.883904455,3.956681728,0.50265091645,-0.08788564800000001,-0.3314609984,3.0855017898000003,-4.6883735655,5.8309373854999995,14.438854133918744,0.6084802580139553,8.093268732604876,11.875662206928354,0.2356431705040968,-7.416256740987778,1.842107864767639,-0.1564193165680139,-0.2479552019651875,0.06788888708953468,0.220800313080845,-0.5406043730957748,-0.49511946969570425,10.635167165745155,2.194221973848423,4.801397287389371,10.639402204091756,walking
1970-01-01 00:00:07.200,-4.1220856905000005,-16.527076725,-2.2725832465000004,4.022658348,-0.23525255175,-0.4889068752999999,-2.03840172275,-6.7616038320000005,-1.9585299489999997,17.18430941661998,4.059082886632717,7.328724822597531,11.610832586981536,0.1759482545999311,-7.541062494193426,1.7857422331064383,-0.09917167732735616,-0.24778119305813015,0.06026154787871914,0.18942250702763883,-0.6270071433583335,-0.5154446152415972,10.7248814431544,2.2197680137495777,4.836499058711706,10.652709469610794,walking
1970-01-01 00:00:07.300,-3.6445680855,-10.569396495,-0.3729812505,3.1596074105,0.53808005875,0.09689564258499994,-1.5142908094,-2.35240268725,-2.113039374,11.186336925535006,3.206561694972183,3.5059678342062184,11.195805640066753,0.1243196554093915,-7.581985926636757,1.7565702941387837,-0.05513412208644595,-0.23716144641207432,0.0607566032125878,0.16608396844643827,-0.6506426987541097,-0.5373294749506166,10.731117328051434,2.233103063495829,4.818272603581494,10.660048607049388,walking
1970-01-01 00:00:07.400,1.00124673525,-3.1776684520000003,-2.542074978,2.0671070815,2.330305874,-0.82044422625,3.1548061375,4.031439781,-7.508214235,4.190729889823318,3.2212398049777846,9.087276240529592,10.78002998884697,0.13601201647393293,-7.523261693641601,1.6992550238436,-0.026837572705293335,-0.20292854880657998,0.0490072588197533,0.206472105866081,-0.5873713138925677,-0.6315306203566893,10.643912162208393,2.2462782200489215,4.87596184191863,10.661648358806689,walking
1970-01-01 00:00:07.500,-3.129812002,-2.9621648786000003,4.9718365645,-1.5232239965,1.2061178834000001,-1.0770000517,0.4679535627505,6.5552051065,-2.5407526495,6.579460673943858,2.221454659346558,7.045929218429308,10.508747811246895,0.09304064780980224,-7.463247261864738,1.7423153072732895,-0.04652686775522369,-0.18438846417228286,0.0341913731550197,0.2099585252912066,-0.4921369616206668,-0.6569869140786001,10.590432537362807,2.2459515942502066,4.904894740272106,10.659636509496691,walking
1970-01-01 00:00:07.600,-3.9735810760000003,-14.138889790999999,8.195567131499999,0.5380800816,0.57587623595,-0.27602660655,-3.4966976641,-8.7197816365,6.4115211956,16.81858708977994,0.8350774220813968,11.374053384084016,10.466857679427182,0.0402273786694152,-7.549943918087274,1.8261237725229873,-0.03893456971164935,-0.17451489663822725,0.03016256822378568,0.1611867333255328,-0.6003954441848686,-0.5639802284249342,10.671317661420172,2.2276285530532087,4.990015248743315,10.657132888326958,walking
1970-01-01 00:00:07.700,-3.33200562,-8.758179663,-6.2205910685,-2.8063085675000004,-2.077415168,0.24342263865,-3.4692494870000004,-1.805585861,-9.4240269675,11.247387505665499,3.5000394479587937,10.203338502110968,10.650170253646099,-0.0030063777237824304,-7.565434119945128,1.7229607617406413,-0.07441372352944874,-0.1989110539633782,0.03289667169078843,0.11403821098364277,-0.6160472677798702,-0.6790457704908441,10.67870317224383,2.2439415132443057,5.057720745540298,10.657043623779767,walking
1970-01-01 00:00:07.800,1.9613668322,-11.0780210475,2.6950660348650004,-2.0983366965,-0.09979716689999997,-0.17111359535,3.0861896275,-2.43605279935,-1.8541989922,11.568616646409813,2.1076660620016168,4.347064936343263,10.973379947122831,0.021859105946138865,-7.60989724561038,1.73526589178019,-0.10003300166831647,-0.19765644779801897,0.030314263247234144,0.15214271632359605,-0.6393806720307693,-0.6941118374358333,10.68996789976492,2.242216507532373,5.048609773627515,10.661047881037275,walking
1970-01-01 00:00:07.900,-2.2043878434999997,-7.135097980499999,0.6290132527160001,-1.5791928765,-1.7981815934999998,-0.18806459004999995,-0.2306193114999999,2.926406145,0.4678927064999999,7.494304946290757,2.400557325793579,2.972534571224764,11.307436279105017,-0.005968980921937867,-7.6039622547965,1.7214377337918876,-0.11852250010371253,-0.21766301211929373,0.02758452758101872,0.1472976273638037,-0.5942441300430381,-0.6794029191581645,10.650022112846493,2.244195767760638,5.022330340685708,10.66912773601312,walking
1970-01-01 00:00:08.000,-1.3474582732499998,-9.743423939500001,-0.3191427585000001,-1.6287478805000002,-0.39330926791649995,0.92077586055,-0.038620531550000066,0.3472218513700001,1.4565480947,9.841331513737082,1.9118943547784877,1.4978607784771638,11.530303075537123,-0.02253057712351888,-7.6303753620150605,1.6962453820351977,-0.13716725788638276,-0.2198314844130864,0.038611581074462935,0.14497365037738114,-0.5824758052753751,-0.6527035314849374,10.640038278289586,2.2400932811806116,4.978274471158101,10.679759530328234,walking
1970-01-01 00:00:08.100,2.4952653477,-13.842030045,2.778814852,0.5526640415500002,-0.11193776129999994,-0.36093437484,4.705071091500001,-4.575129986,5.6081247329999995,14.337013528061236,0.669508198731261,8.632529836945348,11.573636803624002,0.008174251227987452,-7.706127248392926,1.7094474487420857,-0.12875468106398782,-0.2185157073019512,0.03373906941696948,0.20127114965049991,-0.6317678321979013,-0.5754093553801852,10.685123342311192,2.2209398045653757,5.023388734933253,10.690660472685499,walking
1970-01-01 00:00:08.200,-3.7329529525,-16.178771495,-2.707179785,3.828103423,-0.393461981113,-0.70736116195,-1.88643723735,-6.025681496000002,0.7893171310000002,16.82309148822878,3.9127417447617137,6.363214948042192,11.449156339922382,-0.03689957050367504,-7.808207299556867,1.6562350724319401,-0.08108169185839761,-0.2206234937334096,0.024810150966765036,0.17581129127244502,-0.6975472671223172,-0.5587663494487196,10.759074765755981,2.2413229604713556,5.039728078995556,10.69979897711004,walking
1970-01-01 00:00:08.300,-3.49127772425,-12.022587777,0.811017275,2.9012954235,0.5360948146000002,-0.04230117052,-2.96009641875,-3.1120066645,-2.4795933365000002,12.545492657678393,2.9507121468707203,4.9593486873383075,11.242797506116187,-0.07802311995303605,-7.858378495716904,1.6461729557958458,-0.04557720238984526,-0.2116149424437261,0.024011206663351166,0.13802927066976498,-0.7266371393798796,-0.5819088432686146,10.780341645421725,2.249768069833253,5.0387596525900475,10.706263245312494,walking
1970-01-01 00:00:08.400,1.5973587037,-3.973581195,-1.36061879995,2.7733993530000003,1.8076497319999998,-0.4659237564,2.47684687385,4.091221094,-5.274007796999999,4.493571615132127,3.3431162814952127,7.119551862252838,11.076069452349182,-0.058312745557117976,-7.81267499806141,1.6107989351400123,-0.01241277232643531,-0.18785888745027052,0.018247265921429386,0.16587233737429158,-0.6692816842205954,-0.6377671641463691,10.706379645065377,2.2626309899704524,5.063530988419366,10.71061390657175,walking
1970-01-01 00:00:08.500,-1.257577896,-1.18923288575,2.0714366435,0.18867546345,2.5717433695,-0.8989380896000001,0.85896432415,6.6641368865,-5.6061383485,2.6993752590352464,2.7308518960223718,8.750847235250692,11.050505416994403,-0.07225768916691892,-7.735658229313604,1.6161551875628026,-0.010074537026709319,-0.15577048911363947,0.007582319926994161,0.17402636074812344,-0.5830061716238825,-0.6962185898446471,10.613274942902237,2.2680754191105907,5.1069111795585584,10.71456613343713,walking
1970-01-01 00:00:08.600,-5.91879642,-14.562718392,13.782209394,-0.5093702377,1.19336646805,-0.7293516324499999,-2.9689360857,-4.414775371499999,6.9387068749999985,20.90584161917816,1.4884674567749763,8.743596294371489,11.201736706650914,-0.13945928377419572,-7.81413018520655,1.7559948910850693,-0.015813568068931052,-0.14026316776693096,-0.0008881852727414027,0.13748028578942434,-0.6275616274363954,-0.6074403867650582,10.731580306997362,2.259114408049262,5.149198215777314,10.720165795198206,walking
1970-01-01 00:00:08.700,-5.329862833,-10.906934261499998,-6.0397834775,-0.3089360148,-1.0355388225,-0.11102148895,-2.95774549235,-0.651124716,-8.155783295500001,13.559042637972613,1.0863277061521848,8.699943847891186,11.48436766680261,-0.19844114228812532,-7.84927568607352,1.6674065005329661,-0.01914450496360229,-0.150436754752534,-0.002139700087255705,0.10190297799471831,-0.6278324675348277,-0.6942029489344254,10.763710560758446,2.245787286436795,5.19001138396253,10.72884990737553,walking
1970-01-01 00:00:08.800,1.84292214345,-12.603146555,-2.1744775769999998,-3.3686698675,-1.69166514275,0.5153260231,2.8049767015,-4.1231093405,-4.49817014,12.921455717004276,3.804632510700857,6.715762022143412,11.790783111779787,-0.17550447615623627,-7.90268996549966,1.624239263706753,-0.05677962139659552,-0.16775392765138197,0.0036745215215898647,0.13261972485273288,-0.6675515229094319,-0.7374298488328979,10.787954888356714,2.263302401316167,5.207349459396404,10.74078174113288,walking
1970-01-01 00:00:08.900,-1.3879866636000002,-6.13908577,0.4458127618,-2.3366434575,-1.21047022955,-0.7961630225,0.7135176659999999,3.426732063,0.90365052245,6.309804282886411,2.749366542042134,3.6149943786969407,11.991057977390282,-0.18897650046116696,-7.883094363327441,1.6111456359077891,-0.08211144179774446,-0.1793396643391444,-0.005212562300872245,0.13914666801169093,-0.6215483365508989,-0.7189907435375844,10.738197659407042,2.2687031139908997,5.1894578292761855,10.754673699313518,walking
1970-01-01 00:00:09.000,-0.8279166072,-9.472885847999999,0.280708015,-1.5218495725,-1.6994534286,0.6310815811,0.08154559150000007,0.8053002359500001,2.2838578225,9.513138766327414,2.366945719551339,2.4230486389894557,11.977547596694995,-0.19599782031543983,-7.9005645994227445,1.5965254422714397,-0.09793273993732969,-0.19604421119915383,0.001779681033203274,0.1385066560504499,-0.6056944635231112,-0.6856257594705001,10.724735473768805,2.2697827030629925,5.1587199493841105,10.768111874010017,walking
1970-01-01 00:00:09.100,2.995664358,-13.53335619,2.9584261175,-0.6828508636999999,-0.38468106090000004,0.30252210795,5.957294941000001,-4.155119896,4.9982167485,14.173144316061592,0.840109782391264,8.816833616961656,11.702444448491653,-0.16130584011635898,-7.961790594972497,1.611328710480446,-0.1042905456304022,-0.19809461173938042,0.005048620456211934,0.2024493844564889,-0.6446991386052748,-0.6231659516906045,10.762218178576335,2.254242780012213,5.198919000676172,10.778267662863078,walking
1970-01-01 00:00:09.200,-3.6312577725,-15.74776459,-1.2025427820000003,2.9214533565,0.17241163550000002,-0.9641460479,-1.7453639505499998,-5.751032829,3.73427817215,16.205685167093055,3.081264851962922,7.0756983674483465,11.199688718034183,-0.19861715121725834,-8.045510745456664,1.5810720277656025,-0.07175566496233336,-0.19411067359702147,-0.0053728275906290545,0.1812775003803314,-0.7002027656747828,-0.5758024286053806,10.820750081678666,2.263135490463296,5.219318776401956,10.782799072058467,walking
1970-01-01 00:00:09.300,-4.019044738490001,-13.134502415,0.19217371949999995,3.2087806464999997,0.27029994144999997,-0.10918894034999996,-4.044280410000002,-5.2953066825,-4.8035883905,13.736986752490207,3.221995890809854,8.214069534754701,10.582536729502172,-0.2392599978903726,-8.099648954707124,1.5662965138478833,-0.036856342499968116,-0.18917013513907444,-0.006477254322111724,0.135841393817102,-0.7496124852105377,-0.6212624927117743,10.851773876049002,2.273336133020174,5.251520397459513,10.78066862160574,walking
1970-01-01 00:00:09.400,1.4765211048,-3.815654755,-0.5261218539965001,3.0810371635000005,1.158013668145,-0.34726665915,1.7900257109500002,3.4781320095000003,-6.318070411500001,4.125062422258194,3.3097401395027934,7.430989708379521,10.012282903309382,-0.22119914417784237,-8.054554278920733,1.5442710573442582,-0.0040364108578631805,-0.1749892529992421,-0.010064511215036863,0.15343909931851582,-0.7046364799476597,-0.6818668322733512,10.78096638706173,2.284245648877886,5.274706241192704,10.77258035088683,walking
1970-01-01 00:00:09.500,-1.5877873895,-0.5667998867,-0.45194441049999995,-0.056579708999999874,2.6656610965,-0.937879622,0.8185027242849999,6.4960567949999986,-6.494105338999999,1.7454468356270694,2.8264055848775436,9.221827625127023,9.646053023706555,-0.23543443839994818,-7.9765568373351,1.5234771462208805,-0.004583736880177104,-0.14539914519195832,-0.01972925195238023,0.16043976905500515,-0.6288397086324211,-0.7430482902388948,10.686846391734285,2.2898931482112155,5.316254887339381,10.760845691228702,walking
1970-01-01 00:00:09.600,-6.069693684500001,-12.0152597435,10.064212086,-0.3923929930000001,0.8854994328299999,-0.4301891923,-2.2444648744999998,-3.867503645,5.911961079,16.807617708629007,1.0597850006814948,7.412590020806725,9.584399837180388,-0.2955814409370622,-8.01819294976979,1.6115259600330363,-0.008581770448422702,-0.13477132479997936,-0.02396079772915981,0.13538867901797383,-0.6625757913029168,-0.6737252759759897,10.749947126960004,2.277211620917095,5.3380917116463324,10.74871738345501,walking
1970-01-01 00:00:09.700,-4.931158781000001,-9.623633623,-4.7470608950000015,-0.645131092295,-1.00461468095,0.12591089309999998,-2.6267050505,-0.7063641549999999,-5.3858486391,11.809540133892078,1.2005408516278193,6.03372980047055,9.840610157941217,-0.3428832505295411,-8.034574997455813,1.5466424206959646,-0.015077171691755124,-0.1436472774137551,-0.022431494761515326,0.10691348593015967,-0.6630272177327836,-0.7223038673484022,10.760759300500128,2.2662251844957755,5.345263238335241,10.739450983194663,walking
1970-01-01 00:00:09.800,1.9637596609999999,-11.86092281,-1.6096220015,-3.207253456,-1.62332653985,0.33581327650000004,2.621193051,-2.064718723045,-4.98605287,12.129663016698442,3.610323301683519,5.999536618634685,10.341363040642287,-0.31958382718075784,-8.0732249753603,1.5147609618859044,-0.0473213765837576,-0.15859353258987877,-0.018812860708368705,0.13256939985944377,-0.6773301922767858,-0.7658115102326022,10.774586610764759,2.2798019331542374,5.351939497317889,10.735429892865852,walking
1970-01-01 00:00:09.900,-0.5057829025000001,-6.489783525499999,0.6457629877000001,-2.1179602145,-0.9278769714,-0.735078305,1.6720716354999998,2.10550737365,0.0035178661000000444,6.541415472861798,2.4263246400143976,2.6886794584182145,10.953544316470104,-0.3214458179339503,-8.057390560861698,1.5060709821440454,-0.06802776496292003,-0.16628636697798002,-0.025975515151285017,0.14811992749217665,-0.649220721913889,-0.7580405064312628,10.73225489938573,2.281267160222839,5.325037880763347,10.737611037101894,walking
1970-01-01 00:00:10.000,-1.583151281,-8.5498542785,-0.6889833509000001,-1.51574111,-1.7505355480000002,0.5760289653999999,-0.70782965435,0.99547505405,1.0182588101999999,8.722446573062749,2.3861381322831012,1.5902340731360936,11.525306189864216,-0.35904603420395026,-8.190356721636697,1.4182798119650455,-0.07964226196992003,-0.18691162477098003,-0.01622028438228502,0.1395604316737549,-0.6327737641542501,-0.7402775132649502,10.72318773784292,2.2989442400309184,5.287689842687074,10.756706559672477,walking
1970-01-01 00:00:10.100,2.9751758575,-12.519397255,2.07741867025,-0.94734773035,-0.3055763247000001,0.48554720362,4.880130291,-2.4590516090000003,4.744913101,13.034670971798853,1.1075200672491934,7.237182242344231,11.930183108868803,-0.3481527095939503,-8.361498870566697,1.3627005226225455,-0.08644862751942003,-0.18813102851003002,-0.00818000742958502,0.1894496939923549,-0.6567334604469002,-0.6903930342214503,10.762448066864264,2.3054775596275867,5.357320769392734,10.781346005882174,walking
1970-01-01 00:00:10.200,-2.841177881,-15.65922976,3.756880999,2.1479680241,0.53197161855,-0.7831825614000001,0.8385352492500001,-6.5522003175000005,5.075078726,16.352306359306034,2.3473677513290987,8.33011971342427,12.103737060085406,-0.40288254617895025,-8.562627579926696,1.3201800639275456,-0.06017455990792004,-0.17543914938653005,-0.010392801853085021,0.19290602488785488,-0.7236767816759001,-0.6427940976604503,10.83062742014562,2.318515316090839,5.434601205632945,10.808944553106544,walking
1970-01-01 00:00:10.300,-5.064259529,-15.95952845,-3.4781172873500004,3.492137432,0.44515493535,0.031153209500000043,-4.414032936,-6.2303118705,-3.4461919665000003,17.10118629768092,3.520533664503745,8.377154160796799,12.060787049642737,-0.4726961380139503,-8.760762263336696,1.1938435150040456,-0.02274031262392004,-0.16211886162053002,-0.00880612609768502,0.1587086699768549,-0.7824098420352502,-0.6836986976849502,10.900470121514113,2.3444150069808942,5.505998734645982,10.836685106139305,walking
1970-01-01 00:00:10.400,0.5392824114500001,-6.677769661000001,-2.8088747260000004,2.8456319569999997,0.50944662095,-0.1889808766442,1.717499256,1.81720376,-5.3202984330000005,7.264517216651976,2.8970451957182566,5.878571987813108,11.884060552499243,-0.5063093146594503,-8.876518047851697,1.0795249188840457,0.0017577168015799566,-0.14420729334103002,-0.011060916120627023,0.1741741989405049,-0.7660234856832502,-0.7441737586214502,10.86655119079163,2.359966093168472,5.557103697954769,10.86204015096703,walking
1970-01-01 00:00:10.500,-0.21849462405000006,-1.189232900625,-1.7183458210000002,0.5828246175999999,2.6006058455,-0.941010207,2.9142406585000002,6.250380516,-7.2315354345000005,2.1011252112179957,2.826364362251891,9.99275537331301,11.686712497699105,-0.5515575915499502,-8.931724954197946,0.9829117149990456,0.008607605054949957,-0.11387796337303001,-0.022697556402127023,0.2005057696875049,-0.7075636887782503,-0.8172061115444502,10.787364201627783,2.38326064215347,5.6520544165655,10.883084839697908,walking
1970-01-01 00:00:10.600,-4.763810754,-14.222638609,10.437641857000001,-0.5769452155499999,1.2962178585,-0.8580113348999999,-2.3062678575999995,-1.2047467235,2.484373331,18.273524822462193,1.6580802059180495,3.5975543007113755,11.56545637987431,-0.6512246364299503,-9.120953854887945,1.0173758406090456,-0.005252518997550043,-0.08769628669203001,-0.025958717287627026,0.17494295640450488,-0.7215879035237502,-0.7906635194969502,10.871084423687797,2.3834553111433743,5.684418266716985,10.898641990065789,walking
1970-01-01 00:00:10.700,-6.5208902360000005,-11.606087445999998,3.792773485,0.4333197919500001,0.4115583448,-0.0410031229,-3.356410265,-2.0647540095,5.3017416,13.842268816298791,0.5990221776843154,6.605843093800688,11.565849695395936,-0.7676728433349502,-9.225409539902945,1.0469421557225456,0.028951109151949955,-0.06050213049403002,-0.022799873434727023,0.14325430198150488,-0.6949303245787504,-0.6939223629169501,10.956308802739319,2.351529837072026,5.686032480817887,10.908364335874847,walking
1970-01-01 00:00:10.800,-0.10603195449999993,-7.281060097999999,-10.0402836795,-3.2469586135000004,-2.7788968085000003,0.3694862276,0.19074869155,0.3209614755,-13.24583006,12.402918015164692,4.2897001972701325,13.251091098867397,11.672225333124182,-0.8608403825799502,-9.285274969996745,0.8849211458025457,0.050462858176949954,-0.05603149126403002,-0.016766993300327028,0.12268827481700488,-0.6555814242587503,-0.8269433742819501,10.968766854773518,2.331497250318275,5.77598257132977,10.912795659093286,walking
1970-01-01 00:00:10.900,1.9422242044999998,-10.671091555,2.884248525,-2.3996369840000003,-0.23792502280000005,-0.58641339079,3.923767567,-2.80670881295,0.28653988245,11.223338157148374,2.481682219050784,4.8327705702595445,11.820745852366255,-0.9476863843499502,-9.385217188420246,0.8046479255575457,0.06230184266694996,-0.03909804205203002,-0.027578226372227024,0.14971415086500486,-0.6775005865357504,-0.8905817243474502,10.92853715199346,2.315306429687537,5.756415699496896,10.913322444658196,walking
1970-01-01 00:00:11.000,-2.5455147030000003,-7.254739046000002,1.4262718555,-1.5991981625,-1.9966306685,-0.03863608835000002,-1.179326117,2.4057831766,1.550056219,7.819535480739097,2.5584099625863566,3.0953638017380865,11.926576882960608,-1.0681679958449501,-9.440246126178245,0.7891095328925458,0.05249698046824996,-0.04285398999703001,-0.04546765153072703,0.13711380227500483,-0.6509484791997504,-0.9137388464724502,10.90561360963649,2.316244770321445,5.748622862096237,10.911890586537035,walking
1970-01-01 00:00:11.100,0.2866900565,-10.2352991105,0.6206383109999999,-1.5491086244999999,-0.5452575236499999,0.8927533032999999,1.45536941285,-0.7309107779,2.56417316185,10.258105623504711,1.8692382828709326,3.0376495349301837,11.916676507502265,-1.2108804238299502,-9.551594635368245,0.6914315242275457,0.045521868955749965,-0.04167429114253001,-0.04779497940322702,0.12783892317350484,-0.6799131918137503,-0.8657734116839503,10.829124212973387,2.319342898462453,5.739818828529131,10.910497580664163,walking
1970-01-01 00:00:11.200,0.9163016080000004,-14.207234855,4.6187458635,1.01255569245,-0.05169294775000001,-0.46439662575,3.8320161106000006,-4.5715999605,6.7049827575,14.967229009190332,1.115170577610425,8.97444524464403,11.760803494926815,-1.3000115704999502,-9.664117119388246,0.7324295486075456,0.05707222715524996,-0.03849024961153002,-0.05876732338472703,0.14673826022950487,-0.7500359630787503,-0.8067537569959502,10.876025557986672,2.3230262972217957,5.797355477786911,10.910673077261356,walking
1970-01-01 00:00:11.300,-2.9585755467,-16.740187645,-3.983152394585,3.7731270789999996,0.37429664655999995,-0.69041010735,-0.3299355504999999,-7.283079624000001,-2.346721649,17.460027338289883,3.8539917034472415,7.6589300019580415,11.490603016368123,-1.41176834886195,-9.792453174668246,0.6916468776379956,0.09950549483774995,-0.03722274182743002,-0.08205434817822703,0.14445726676950485,-0.8397983694242502,-0.8280671161359503,10.959636161252806,2.34434306529691,5.856846369006153,10.913230974369103,walking
1970-01-01 00:00:11.400,-2.7442684325,-11.357083799000002,-0.5047360659999999,2.9168719055000003,0.36658471078500005,-0.23693237825,-2.34006315489,-2.40862083425,-2.1741740105000003,11.694833053252427,2.9493495918828825,4.000547777491298,11.195011922951815,-1.51601914247195,-9.842849009128246,0.6878991187714955,0.13322731666924997,-0.029228278309080015,-0.10691506862572701,0.11827562554660485,-0.8642283725897503,-0.8479169368664502,10.977124672321523,2.3504842467937164,5.893470786502571,10.918422229170849,walking
1970-01-01 00:00:11.500,1.8774684665,-4.270440578500001,-1.8895820975,2.0710777045,2.7670617105,-0.7597412764999999,3.121294737,4.0574920180000005,-5.3250823025,5.033097563170595,3.5388133851631713,7.3866246581071335,10.987719416551636,-1.54605355223195,-9.800976109613245,0.6809449778089955,0.15102740653624996,0.001841703818419988,-0.137200874985727,0.16113017066565483,-0.8271766853472502,-0.9044068610614502,10.929077540673616,2.3627468322988547,5.954750065820951,10.926350090969969,walking
1970-01-01 00:00:11.600,-1.8403796555,-0.962961532,1.6549358369999998,-1.155112147,2.66833353,-1.21802938,0.7865219711999999,7.147149324500001,-5.6843354700000015,2.6557682152396085,3.1524408749431596,9.165807657450667,10.958307595914158,-1.60625248333195,-9.749681469083246,0.7010686149064955,0.13793389567374997,0.05413022951341999,-0.16343905479222698,0.1589538054076548,-0.77272738934975,-0.9687682306686003,10.88166648827598,2.365020106041691,6.025263186117738,10.937339956231394,walking
1970-01-01 00:00:11.700,-6.7304116475,-15.717853964000001,10.594371555,-0.21089506150000004,1.0195803943,-0.5616740659,-4.87898087485,-4.3144042495,7.728285549500001,20.114424745038754,1.1830040844015162,10.10667778945516,11.130899483598853,-1.71653618235695,-9.786969123373247,0.8157820250214955,0.13284935544454995,0.06333111630141999,-0.183702385206227,0.08959985180915483,-0.7880001235197501,-0.8906511604886002,10.955147207461861,2.3618712755948272,6.0916833221071975,10.952001521462906,walking
1970-01-01 00:00:11.800,-4.936093807500002,-12.384053231,-5.344369411500001,-0.8379297554999999,-1.3734136818,0.14858859035,-3.8705331085,-2.7269363405,-8.803799627,14.362871610902127,1.6156948925121728,9.99620409062858,11.450881415169587,-1.78488715936345,-9.828158572238246,0.7480053229749956,0.11834631404904997,0.03614459545691999,-0.20317085132272703,0.03960156395365483,-0.8266826796752003,-0.9985622572786003,11.012768608244706,2.3523854527665176,6.166096743370588,10.970918389605147,walking
1970-01-01 00:00:11.900,2.0546869041,-11.787941455,-1.2599705454999999,-3.3031566139999997,-1.939287305,0.25350161644,3.0293625595,-2.42894077315,-3.9594128135,12.031825621904398,3.838742233790099,5.545605523662759,11.80370822776347,-1.7352689908874501,-9.822125671413247,0.7347655375449956,0.08934710345604997,0.0032283279399199947,-0.215552726018327,0.06318024098165483,-0.8555710339782003,-1.0309659144226002,11.005808382170757,2.370238617823069,6.210692609064791,10.994103740346205,walking
1970-01-01 00:00:12.000,-1.343719506825,-6.5496041775,0.3955635280500001,-2.218597293,-1.5335320086000002,-0.7860840559000001,1.271898806,2.65656662,0.82638674955,6.6977136023923,2.8092387781831354,3.059082842787077,12.054280853193658,-1.7198397709357003,-9.801846499948248,0.7553423166454957,0.05533741853304997,-0.019088212840580005,-0.22587833531482704,0.09412120460665484,-0.8264633345829502,-0.9965143862321003,10.980769652473818,2.3843806402832293,6.209278814405776,11.02048025575733,walking
1970-01-01 00:00:12.100,-0.5476572809,-9.8187980675,1.1389835776,-1.620195985,-1.3768496663999998,0.74309566625,0.10744255800000012,0.5877499580500001,2.38915506025,9.899798360456995,2.2523190721732664,2.4627334038371957,12.09130952600146,-1.7004474381997001,-9.822722380688246,0.7615083216319957,0.01646386168304997,-0.038749858284580004,-0.22242399431932702,0.09734642922265485,-0.8394342971074502,-0.9738761749801002,10.998386362633678,2.383143696635883,6.2148940123268055,11.047664945124843,walking
1970-01-01 00:00:12.200,2.97771815673,-13.392030235,2.8914270405,-0.557321783325,-0.468214415,0.13934952020000008,5.6733272075,-5.0195732115,4.7813796994999995,14.020471802568139,0.7411144293308023,8.957921000977787,11.864910840484459,-1.6570775284054002,-9.890536470903246,0.7634599672469957,-0.006077165945200029,-0.045510410251330013,-0.22176580652782704,0.14810988664115485,-0.9061359715674503,-0.9246694758490003,11.065915247818882,2.373444404778118,6.286865695647971,11.072259504517351,walking
1970-01-01 00:00:12.300,-3.0411280394999998,-16.88151312,-3.0279676915,3.357980132,0.16309621935000002,-0.74676078555,-1.45838534845,-6.362441539500001,0.7424640655000001,17.418453815253898,3.4438761032459126,6.569535984884134,11.408238164912557,-1.6835556065857002,-9.984601319338246,0.6762311111619959,0.02167438904979997,-0.049959668995830014,-0.22613718241632705,0.11486104547665485,-0.9879828119474503,-0.9361867454615002,11.146045100488742,2.3989096383952715,6.320323895230894,11.090654550429315,walking
1970-01-01 00:00:12.400,-3.5929726960000004,-12.3792681685,0.6110670570000001,3.0546181205000003,0.5645755678500001,-0.20784077421499994,-3.5888620615,-4.087767124,-2.8928601144,12.904616853281212,3.1132997320088527,6.16103973352028,10.834088794786364,-1.7034982874837004,-10.024702039263246,0.6213950930819958,0.04660153906379997,-0.05618878397533001,-0.22233160410247707,0.07003383338015486,-1.0288496637524502,-1.0068360540205001,11.170332360271862,2.4156479368099686,6.339266787811994,11.10010679754198,walking
1970-01-01 00:00:12.500,1.8212370875,-3.8611184355000003,-0.88773719975,2.7601896525,1.217342213,-0.54281415045,2.2407946587,3.9451041225,-6.566481352,4.360414824034913,3.065161689576679,7.98145880061964,10.302427506053217,-1.6163771131437001,-9.955882965838248,0.6384992891844958,0.07846791308029998,-0.03482134717483001,-0.22605777237697705,0.13807799994715486,-0.9611711788324503,-1.041950375732,11.083687802712152,2.436022764960582,6.357333617143413,11.099684572276542,walking
1970-01-01 00:00:12.600,-1.1606685521,0.2856431901,-0.7751250265000001,-0.4424061179,2.643823266,-0.99613919855,0.8128896357000001,7.772691965,-6.87485075,1.424627083341827,2.859688433708486,10.408607148767773,9.967737338912992,-1.6393855980617003,-9.831124187322247,0.6571977025544957,0.09608551125629998,0.003568875612669997,-0.24149541009347705,0.12630552411415485,-0.8671204114074504,-1.060714645072,10.972675270077959,2.438955002749623,6.405197302647732,11.090720895892039,walking
1970-01-01 00:00:12.700,-7.251299500499999,-15.060725211500001,9.6535439485,0.21868330255,1.5171918869999999,-0.59443074465,-2.1681654450000005,-5.783131599500001,8.172980545,19.302789930678006,1.6440929167714178,10.24417705250041,9.927454800589786,-1.6946074581912505,-9.916331110802247,0.7556189854654957,0.11809357505179996,0.016958647790669995,-0.24035694379497705,0.09337333739415486,-0.9474360966784503,-0.9710660150679999,11.098029372858505,2.4342719427109336,6.481279461635104,11.076633048167382,walking
1970-01-01 00:00:12.800,-4.2945185305,-9.3987081075,-2.3576781760000003,-0.58549709599,-1.21558602145,0.0671931952,-2.44809055305,0.392177105,-5.1264777200000005,10.598926826824535,1.3509149308666881,5.694534577230631,10.192666280909885,-1.7150182367162503,-9.921095817917248,0.7370043195879957,0.12573374714689994,0.020061751876169997,-0.24301412951352702,0.07711228013765486,-0.9481654334164503,-1.0275750088884998,11.111860873694939,2.4271404064193605,6.5274220060454535,11.062194327614009,walking
1970-01-01 00:00:12.900,0.9103194476,-12.659377575,-2.216501474,-3.2571902275,-1.52513286475,0.45324866475,1.08799684045,-2.354511738055,-2.8302376269,12.88415309080639,3.625017625524006,3.838972215865661,10.689134908689425,-1.7183218280252504,-9.925416358317248,0.7008756886539957,0.10497410353089995,0.008025770459169997,-0.244344249481027,0.05480360270465487,-0.9485292458670003,-1.0920946955875,11.117010630447707,2.4498171502140162,6.511492738103339,11.052446982840095,walking
1970-01-01 00:00:13.000,-0.6542874575,-7.0595748425,0.5177469849,-2.2621964815,-1.39471706025,-0.9228374958,1.7510043975,1.48215627685,-0.059513717849999974,7.1087095153954465,2.813253924322829,2.2948519585547387,11.282455646356224,-1.7138203305782505,-9.858178044142248,0.6722186474629958,0.07034135423214995,-0.003962871088330005,-0.24828497778802702,0.05835787833465487,-0.8903535056235001,-1.147912158091,11.0457426023939,2.464681155737191,6.462860161099541,11.051461750349198,walking
1970-01-01 00:00:13.100,-1.2468101681,-8.6732344625,-0.6985546881695499,-1.4968048930000002,-1.9482973815,0.5970268324,-0.7134355307500001,0.98489499095,-0.013344109049999995,8.790193984727463,2.528384585674038,1.2162180992656182,11.816072476800949,-1.6658562008342506,-9.788748803917247,0.6781438731413002,0.02033587000714994,-0.024666012480330006,-0.236152024159027,0.09525083721215488,-0.8205862045390002,-1.1271161470014999,10.965700553882066,2.4543688027640598,6.3977782149987386,11.061198362469613,walking
1970-01-01 00:00:13.200,2.8171000480000004,-13.18968725,2.2162024375,-1.03133925805,-0.52021279935,0.40422817322,4.6193556785,-2.9040188789999997,4.3359813695,13.668045056892193,1.2237983648573265,6.969397891549147,12.153158676811216,-1.6247385344692507,-9.843263285917248,0.7127739988983002,-0.018263568363350063,-0.03183812293383001,-0.229914510009377,0.15139541507115487,-0.8537896609440003,-1.0282001981264997,11.022938546853654,2.4381673725175945,6.410878556694241,11.080811994581486,walking
1970-01-01 00:00:13.300,-1.2623634787500002,-14.630914215,4.3290647264999995,2.1985156238999997,0.335965991,-0.8200624584999999,1.4519292115,-5.7888154985,6.299483061,15.310062499068952,2.370410625077875,8.677670778884547,12.21446714263965,-1.6420251818817504,-9.966822667317247,0.7598303507963001,-0.014926051874350066,-0.052894028158830014,-0.23103999620437699,0.14524832547115488,-0.9655237007290003,-0.8936292514314996,11.152513104763207,2.430345110878227,6.4057334551182885,11.10673964791401,walking
1970-01-01 00:00:13.400,-5.2329535485,-15.97508192,-2.73948276,3.5754417185,0.96758205435,-0.021685078700000002,-4.136920452,-6.4634442325,-3.834234059,17.032081815908672,3.7041151111876407,8.578553082659628,12.001759596167593,-1.6382789179017505,-10.057534572077246,0.6690346967578001,0.034386883600649926,-0.05260540287483001,-0.223164648023377,0.11406140626065486,-1.0692073941340003,-0.9388795128614995,11.213606949212604,2.4490168162391304,6.450577047613088,11.133668065152984,walking
1970-01-01 00:00:13.500,-0.03050851799999998,-6.6562342645,-2.0979071855,2.8369274135,0.0850604774999999,0.046118963490000005,0.33923798800000005,1.6785233019999999,-5.769645691,6.979083028059413,2.8385770014381717,6.018416260739543,11.596619259660967,-1.6155829950467506,-10.036094879122246,0.5953925913028001,0.05826719402739993,-0.05903609746453001,-0.22000733131647698,0.12799816430065486,-1.0213897800740002,-1.0327889767429996,11.17829402243226,2.468433906484408,6.46191886734352,11.156113239111164,walking
1970-01-01 00:00:13.600,0.4529911875000001,-1.4896816873700003,-1.25264266145,0.5733565242,2.6068670750000003,-0.8108233809000001,3.2792622446500004,5.9045538905,-6.5927636625,1.998365878142121,2.7896107623781257,9.438318188352524,11.132737463504947,-1.5748960384017505,-9.944077390295947,0.6249260046533002,0.08377083136939995,-0.01712739401953001,-0.228546212408977,0.18516678155115485,-0.9319721746740004,-1.0024701705729995,11.07783254520689,2.4709933244329245,6.452475129324004,11.170068561623365,walking
1970-01-01 00:00:13.700,-5.146812081499999,-15.1085813025,11.686097383499998,-0.7411104739000001,1.254756659,-0.7934905776000001,-4.166858077,-2.9057092680000003,4.85394144,19.781905257916197,1.659302957439993,7.026136924864936,10.751926977619375,-1.6239518948717506,-9.986741419885947,0.7382500875958001,0.10156862899039995,0.004600443192419993,-0.236946125757977,0.12749467910065485,-0.9423739624490003,-0.9233156907749995,11.167145322669441,2.4607538670012494,6.483475635915286,11.174169779613216,walking
1970-01-01 00:00:13.800,-6.896862745499999,-9.494421484,-1.0683951374999996,0.34176905444999994,-0.24991288765000005,-0.06390988825000002,-1.6299985645,-4.67749738695,-3.2229132655,11.783557324337172,0.4281903920096013,5.90957249233242,10.560286241072731,-1.6784409543267502,-10.009114316575946,0.7221030228068002,0.12147079645989994,0.02120937968091999,-0.235129618738677,0.10652465821265485,-1.0129221535185002,-0.9628614117444996,11.210777798162992,2.4396805714185037,6.517263110212123,11.170032591933186,walking
1970-01-01 00:00:13.900,-0.7715357689,-10.3646607425,-1.840529263,-3.1722825765,-1.8485001625,0.50631603595,1.9149711130000002,0.5624513625000005,-11.49827194,10.555046552136664,3.7063034851706527,11.670206660766292,10.597492510951337,-1.6772071556132504,-10.019804252285946,0.6996822743368001,0.10603774010489994,0.010611943301554991,-0.23814109543467699,0.11876239300465485,-1.0135315037240002,-1.0937158115234995,11.222855518446776,2.4569251795790428,6.615565537877475,11.161682090093135,walking
1970-01-01 00:00:14.000,0.8062317370000001,-8.0721874235,0.76420770213,-2.239976883,-0.33268269915,-0.79387238625,3.6905990245,0.014664888500000028,0.7372395695,8.148265632995308,2.399668222971333,3.7635433306169883,10.825495218909058,-1.6871553146222507,-9.969071925770947,0.6793552449231001,0.08728931083589993,0.01051420762655499,-0.24496578673067698,0.11075820983465484,-0.9707331967840003,-1.1304191027584993,11.168740036629513,2.4759218238209764,6.577182856307272,11.154226392818527,walking
1970-01-01 00:00:14.100,-1.9998015765000001,-7.728667497999999,0.76420775045,-1.50321877,-1.6885345580000002,0.33848574477,-1.1443684695999998,2.10492515585,1.9316570165,8.019695825021127,2.2859108082891315,3.077594504696562,11.13953902435326,-1.6759987788822508,-9.886942769200948,0.6937675136176,0.03738767161589993,-0.003571930422445012,-0.234763873640477,0.10827642620815484,-0.8960896039455002,-1.1523622153669995,11.086364399043264,2.4631412565442328,6.539731017346647,11.152147595425092,walking
1970-01-01 00:00:14.200,0.84571331745,-10.665258885,1.7098214030000003,-1.4423630834999999,-0.34589225054999995,0.7570688128499999,1.789616406,-0.9145960808,2.0311837195000004,10.8345035571336,1.6652945388201692,2.857432444345961,11.40234958854561,-1.617557074967751,-9.864930292250948,0.7142470848426001,-0.006431456064100068,-0.011746593904945011,-0.224761249843977,0.16711547852815486,-0.8538408065285001,-1.0817497442619994,11.056634853152765,2.4499236853848445,6.485553332486254,11.15777436303324,walking
1970-01-01 00:00:14.300,1.1053345351000001,-14.13186121,2.777618468,1.69242870815,0.34314344449499995,-0.7040014714,4.297470689,-4.8329834935000004,6.1758410935,14.444598646101666,1.864853996269825,8.942426794971311,11.49515915167515,-1.6145421181067507,-9.961915882710947,0.7557954591376002,-0.016644058677600063,-0.02401622422449501,-0.226992369416977,0.20005369843315485,-0.9329380607985002,-0.9483168814969994,11.153967086801675,2.4368537813514264,6.496335422130259,11.170528797494033,walking
1970-01-01 00:00:14.400,-5.8721363545,-16.760526655,-1.6274184584999998,3.5978139639999998,0.6914790867499999,-0.43393061683999995,-2.3976384402,-7.70533371,-2.4882521625,17.833836658382644,3.6892688201318626,8.444657275258303,11.367670896582238,-1.659479327591751,-10.124403499824949,0.7439689338071002,0.027046027777399933,-0.03949127681699501,-0.22263092005037702,0.16630894423615483,-1.0786450791785003,-0.9074783514269994,11.316943978464655,2.4485178675161574,6.485241398078947,11.187276459948848,walking
1970-01-01 00:00:14.500,-2.9238796235000004,-9.7061858185,-1.7003996375,3.127690673,0.53586574666,-0.05642701501000001,-1.2827276587,-1.9738945960000005,-3.4319024085000005,10.278641647765484,3.173765122443312,4.16168286441676,11.06293757670775,-1.6327978591067511,-10.091364597539949,0.6262764561071001,0.054059220625899934,-0.046441954820395016,-0.21912618398097702,0.16025317133615485,-1.0641859078835,-1.0092114256169993,11.245973512624623,2.4666079619119627,6.450963440093668,11.203620574670031,walking
1970-01-01 00:00:14.600,1.4609678239,-2.4163022635,-2.9071300030000002,1.3749408723999998,2.8333386185,-0.7508839965,3.789129496,4.6207726,-7.6188049315,4.052696443777785,3.2376066632436027,9.682728455482819,10.701721685932513,-1.5744414007127512,-10.029825684894949,0.6115890085621001,0.08031419925589994,-0.005725931371895015,-0.22829652853707702,0.22807234587115485,-1.0230845833245001,-1.0342664144869993,11.1892096876886,2.4813069365386555,6.488323564114262,11.21555160143702,walking
1970-01-01 00:00:14.700,-4.9660043714999995,-5.0676993684900005,4.834249290050001,-2.19324708,1.1606098409999999,-1.5387243030000002,-0.22595369815000005,6.076060533500001,-1.2367241384999996,8.585612529429685,2.9197637640051304,6.204760533268995,10.43169990271051,-1.6411293684877508,-9.959953767479849,0.6789469662476,0.08711827449589993,0.014177000373104981,-0.24553387515407704,0.20490871967465485,-0.9353650021985002,-0.9976933704374993,11.151844150657725,2.480537101729726,6.490714494547836,11.220763688545865,walking
1970-01-01 00:00:14.800,-2.6149064305,-11.3282206065,7.620990514500001,0.509370259945,0.98628926285,-0.4412607997499999,-3.1428666116,-6.0299148555,4.953453064,13.901288219870144,1.194544124394592,8.412739206711489,10.365714937831271,-1.649770448155251,-10.00532019061485,0.7477062198650999,0.11112304434534993,0.03747853294110498,-0.24453895762707703,0.16503725530365487,-1.0151110530285001,-0.9466144934349993,11.22032622182149,2.4686609804670754,6.553585173412873,11.219200494018798,walking
1970-01-01 00:00:14.900,-3.0987052619999997,-9.51834917,-6.306732654499999,-1.1764917969500002,-1.2119209471,0.10506572948,-2.6965759394999997,-2.527534008,-7.756301163,11.831137815025349,1.6923132505010905,8.591865786326156,10.53698950776292,-1.6739289831592512,-10.014608825859849,0.6898642197351,0.11420247838084993,0.03727466270210498,-0.249530343302777,0.13051757814105486,-1.0549203324685001,-1.0331542909044993,11.252313448922338,2.4656132246914075,6.620825508252692,11.212771667736295,walking
1970-01-01 00:00:15.000,2.1049362125,-11.852548121500002,1.9157536329499998,-2.8488389255,-1.25185504535,0.17867282870999995,4.1003756525,-2.744110107,-3.38680005055,12.189494058956187,3.116881174785378,5.984449461175175,10.887665195345663,-1.6594927843892513,-10.021132263374849,0.6806593298996,0.09596181541784993,0.03036903515410498,-0.25166983584079206,0.15108550789005484,-1.0669248319015001,-1.1160971128799992,11.258481906196707,2.4844558039383546,6.625314336592322,11.20445947512354,walking
1970-01-01 00:00:15.100,-2.664108872,-6.803542614,0.59431731695,-2.11246258,-1.30392983565,-0.79013089845,-0.8247349558,3.142242432,1.06663697945,7.330680818014772,2.6051944274629286,3.4192966666713676,11.291184012997793,-1.6841523169917514,-9.934323648614848,0.6483517378691,0.04816759795284994,0.014968048593754979,-0.25128958309229205,0.10916505428205485,-0.9706001305865002,-1.154912397255499,11.172277822569201,2.482482242767274,6.571220171722796,11.197160806347611,walking
1970-01-01 00:00:15.200,-0.43040901415,-9.179615496,0.459122896,-1.5668231844999998,-1.22375616435,0.81983339765,0.4206528664500001,0.8668570518500001,1.9531434776000005,9.201162231343186,2.150497812408487,2.1778795711623036,11.59835317938719,-1.6325600700982514,-9.86355442917485,0.6774065893991,-0.004136197262150056,0.007499676904254979,-0.23923069442079203,0.16165006490655487,-0.9032328295980001,-1.1164152848579993,11.09065082510872,2.4668413791482013,6.514666026044512,11.192651183860175,walking
1970-01-01 00:00:15.300,3.1031918525,-13.35374498,2.7094230355,-0.76409357765,-0.2549523860100001,0.21486550570000007,5.2009990215,-4.274430752,4.5080227850000005,13.974737129892484,0.8336707384080871,8.102062608087301,11.691872486302742,-1.6012350308312515,-9.924855553229849,0.7245586554831001,-0.039837928103650055,0.0025953371426549778,-0.23388196317874205,0.21588800760195487,-0.9522548389730001,-1.0206067955379994,11.155428272764635,2.446837411430937,6.5445228971360985,11.191034727132589,walking
1970-01-01 00:00:15.400,-3.798905075,-16.81077576,-3.0770204064999986,2.9484832880000003,0.06368082762,-0.99598646165,-1.89728623645,-6.029529095,2.3863359390000003,17.50719612056373,3.112811908742921,6.756442509504328,11.531176212588695,-1.6445196970772513,-10.078557023083349,0.7116433949901,-0.03230541853865006,-0.023879545816145025,-0.23612606345174203,0.16946035774745485,-1.072144718203,-0.9193409159729993,11.306954880286884,2.4422376517686737,6.510615994074737,11.190894049911332,walking
1970-01-01 00:00:15.500,-4.16994199165,-11.697014334,1.2610174714,3.12784338,0.046271681785000005,-0.02038702365,-4.372209668,-3.35418129,-2.0957515238,12.481935971903697,3.128252053316411,5.895669932810754,11.169720819741862,-1.6238591700237515,-10.049433378278348,0.6017305837540999,0.012021476041349944,-0.04022047329629503,-0.22586001156424204,0.15638480695295487,-1.109070370233,-0.9498698642759993,11.231165067716216,2.449808486159694,6.537288432951541,11.190065420902489,walking
1970-01-01 00:00:15.600,2.332403779,-4.912016153500001,-0.13713866500000005,2.7786679265,1.37303191435,-0.405526224545,3.3972542285,4.008742571,-5.620413065,5.43937653541069,3.125806072419906,7.6941793789091975,10.735425391249155,-1.5560824697637514,-9.994500155738347,0.5924045567140999,0.03541005515384994,-0.034005102701295024,-0.227128283181692,0.20735436948295485,-1.0512228536935,-1.0141303375259993,11.172128580307378,2.4719240607122557,6.5883608591494145,11.18668041794516,walking
1970-01-01 00:00:15.700,-1.4262718262,-1.5171990990000002,-0.3430709840000001,-0.06742227050000005,2.7698868515,-0.9906415342,0.5334732533000001,5.8221890925,-6.1137208935,2.110412786229515,2.9424801752865024,8.459318099257818,10.381758580428237,-1.5573028086293015,-9.928793247628347,0.6602051858540999,0.057768591578349945,0.012495643908704975,-0.23988048324719202,0.20541575583095487,-0.9906662822113002,-0.9542731645609993,11.08467210927287,2.4714805330222256,6.551718761656751,11.180028096800477,walking
1970-01-01 00:00:15.800,-7.3230842345000005,-13.101152418999998,11.2372932445,-0.4435514509500001,0.5185329465499999,-0.4905867111150001,-3.2321956155,-3.8335890771499996,6.795486927000001,18.749520443849686,0.840410392261012,8.445243411786846,10.231844585545346,-1.6432515038648015,-9.967290769483347,0.7504998420190998,0.07957202040884995,0.02150335017670497,-0.242259733308342,0.14320249470595486,-1.0169799781228002,-0.9047160595569993,11.176208808649642,2.4532486367620496,6.59906996921742,11.170938751766489,walking
1970-01-01 00:00:15.900,-5.0581279995,-10.3838033685,-2.8902305959999994,-0.582900995625,-1.35127052655,0.18775917964000002,-3.4814308880000002,-1.2238337995,-4.671916723,11.90636233923075,1.4835629801806247,5.953564987750291,10.339280772419873,-1.6712385560698013,-9.995959776318347,0.7292889656120998,0.09150950222259996,0.028727382161204972,-0.23945976231644198,0.11978153797695487,-1.0556538534528002,-0.9575749242199992,11.216405203007508,2.440761907863164,6.6291719310488135,11.161618339974964,walking
1970-01-01 00:00:16.000,1.02397853125,-11.2506036765,-2.751446962,-3.1667848825,-2.4284996985,0.2355579808250001,1.6197407842000002,-0.7165975569999998,-5.712362051,11.627341721254917,3.99770244515215,5.980648164572477,10.677008303122012,-1.6780266951173013,-9.995961273588346,0.6769773758970997,0.07574582545759995,0.01004919950120497,-0.246673104434192,0.10887265476295489,-1.0453088140863,-1.0575589239449992,11.216222109968385,2.4613496743965753,6.635327701931562,11.15501393615543,walking
1970-01-01 00:00:16.100,0.6206383109999999,-7.376773119,-0.6542874682100001,-2.2247056965,-1.33508308975,-0.7199598253,2.374028235665,1.25074696525,-0.04776370525000001,7.431693323418195,2.6926017980054096,2.6837770783647374,11.151432274948286,-1.6662943871483014,-9.928734923278347,0.6410655940049997,0.047643797381599955,-0.0008666414746950285,-0.24842470866369198,0.1068574601676049,-0.9769174981538,-1.1110684203924992,11.14641271120773,2.479915638458799,6.580932923949566,11.15386620711923,walking
1970-01-01 00:00:16.200,-1.2994522899,-8.354839325,0.5835496335,-1.5132976775,-1.8491873294499999,0.6383353771,-0.7976025345000001,1.2782654761,1.8756295440000001,8.475402443250161,2.4732641779200852,2.405850913243718,11.633155132384722,-1.6138152986973013,-9.857893911278346,0.6603143574749997,-0.0045019424184000465,-0.021003221048195027,-0.236019164515692,0.1414456981676049,-0.9005528235878001,-1.0812700855624993,11.062932381324908,2.467112744243081,6.527684794360117,11.159698284776379,walking
1970-01-01 00:00:16.300,3.871886134,-12.934701919999998,1.924128473,-0.8586985169000001,-0.34505235218,0.39659259465,5.978737831,-2.62128973,4.702716589,13.638192195981198,1.0068316417368048,8.045620499184004,11.99631937947956,-1.5552913440038514,-9.910361033358345,0.7024624325799996,-0.041685742457400046,-0.023230522850995028,-0.232230384243692,0.2231155669951049,-0.9237268448328001,-0.9863120531924991,11.11668572863161,2.4485575480759865,6.555363673534427,11.172101267542855,walking
1970-01-01 00:00:16.400,-1.05164554695,-14.53400469,3.779612899,2.3084681036,0.1928750201915,-0.70759019255,0.4171081781499999,-5.0222234725,6.813187837999999,15.054192915983537,2.422170439780281,8.47444607959014,12.157754544382138,-1.5830017254493516,-10.031156702039345,0.7572161962549997,-0.037482349591400045,-0.04536533718408003,-0.23211203266469202,0.19351307514160487,-1.0230165958878001,-0.8505938315224991,11.23279483962715,2.441357676056052,6.550018239035755,11.188668009693457,walking
1970-01-01 00:00:16.500,-5.5369915965,-16.756937025,-3.3403804305,3.549633503,0.6197045595,-0.08689302210000001,-4.4023087025,-6.784219264999999,-2.3508739469999997,17.961385130885503,3.604369867809741,8.422147069624689,12.103374641273502,-1.5859703234593516,-10.122133313379345,0.6500326961794997,0.00950478581859995,-0.055445843536580025,-0.22191012014569203,0.15703810933060489,-1.1326980591278002,-0.881417129022499,11.293851563993531,2.454607499465771,6.591100383629955,11.205693617275058,walking
1970-01-01 00:00:16.600,0.98449698075,-6.985397100499999,-2.2224835155,2.9400078055,0.4127037077499999,-0.02909160405,0.7470270400000001,1.05644011505,-4.767625332,7.396244988739144,2.96897567659584,4.940077572417879,11.889607455863631,-1.5221552372768514,-10.091859620769345,0.5716842037994997,0.03086764125209995,-0.057558611234080036,-0.220147062288192,0.20921422484560487,-1.0626556611323001,-0.960198438152499,11.240974795250251,2.473916942177168,6.559855209715709,11.219398409356089,walking
1970-01-01 00:00:16.700,-0.07731807240000005,-1.7099708913,-0.5763711330000001,0.816015593565,2.772177577,-0.9442935288,2.9568836685,6.204024315,-8.069176197,1.8061512163627584,3.040154640128753,10.59927748614898,11.61748802715859,-1.5109628088108513,-10.009717009637345,0.6482844365194996,0.06460473498274995,-0.0075981779890800325,-0.234163716332692,0.2481924712906049,-0.9822085643073002,-0.930690138322499,11.129513980494256,2.4701182468172744,6.553725717052106,11.227178852249908,walking
1970-01-01 00:00:16.800,-5.9582780585,-14.505141079500001,12.801750419500001,-0.9601755066,0.8241856693999999,-0.94795856265,-3.4664186239999992,-1.2960505484999998,4.7090297935,20.243147209902155,1.5810896424998635,5.989220875635816,11.391288373746855,-1.5776732099733517,-10.049289807072347,0.7570711243499997,0.08338141648174995,0.007781428793919967,-0.239516265057892,0.1869767856856049,-0.9743216490978003,-0.8818631458124991,11.22449143847798,2.456377230075924,6.579815364127581,11.228411987899403,walking
1970-01-01 00:00:16.900,-4.0897825365,-10.474731206,1.9817057845,-0.02641913295000004,-0.46393850454999996,-0.1308740228,-0.9912714959000002,-1.6073670384999998,1.4880334139999998,11.418120372904262,0.48276797370349145,2.404265254962642,11.280674667812473,-1.5976517838983517,-10.085081952792345,0.7774340449594996,0.10022018490224995,0.029350445663419968,-0.239923241995392,0.1894300258416049,-1.0203611827128003,-0.8746268665624991,11.266612056503432,2.429896688206161,6.570551840370303,11.22456472947104,walking
1970-01-01 00:00:17.000,-0.9990034401000001,-8.1873419275,-7.9574813845,-2.9400842189999996,-2.6023619769999997,0.433777906,-0.18461477744999996,-0.22210311888,-11.93545771,11.460893756413375,3.950259022631545,11.938951510022461,11.300371178919244,-1.622155783695352,-10.053408457022346,0.6778387831444996,0.08567896602724995,0.005780141151519971,-0.244516813643392,0.16390945735210485,-1.0101402640566004,-1.021966393012499,11.265012666290799,2.4518893901892973,6.651231696440018,11.218613166178665,walking
1970-01-01 00:00:17.100,2.500050962,-10.5070335885,1.8774684669,-2.2405114175,-0.1879882216,-0.3618506489,3.33421149835,-1.6885929106499995,0.750723362,10.962339964016266,2.277315717136634,3.812072651442962,11.410813971436015,-1.594657765550352,-10.019639748357346,0.6570466505334995,0.058247342687749934,0.004779115415519971,-0.244820710148392,0.1663965544376049,-0.9801424575081004,-1.072768533247499,11.230247524591775,2.4685777447805237,6.608419735628399,11.213964683823741,walking
1970-01-01 00:00:17.200,-2.4294627905,-7.685746193,0.6744768917499999,-1.4742798209999999,-2.46156168,0.02771720289999996,-1.1908723416,2.071709633,1.6251437665000001,8.088751638611658,2.8694172123253208,2.8898529373043655,11.536409022297574,-1.577731536550352,-9.931226443037346,0.6865172519159997,0.003277960997749938,-0.017483975866980028,-0.239654469366392,0.1748718482491049,-0.8918093228581003,-1.0369317960924989,11.139291946811692,2.45668108803745,6.564031016775466,11.213220448176903,walking
1970-01-01 00:00:17.300,1.70144645855,-10.079765318,1.90618230405,-1.23597306015,-0.432556225914,0.8783220053499999,1.848417341945,-0.384542942,2.9751198293,10.398563357192248,1.5767637232875331,3.5236143294831654,11.595850152555508,-1.524271391109852,-9.926330131267346,0.7093088874614998,-0.04067784370875007,-0.027190338713620026,-0.231840205738742,0.2084989297625549,-0.8721307254056002,-0.9860502040594991,11.131414211128265,2.4403831083206033,6.564207481728236,11.217220893301793,walking
1970-01-01 00:00:17.400,0.029312133999999986,-14.17612791,3.47916406395,1.1218209713500005,0.09811733660000001,-0.5196019560499999,3.0564827918,-4.744564056000001,6.501338961,14.596850492683744,1.2401997807745018,8.609319567995676,11.536370427507967,-1.5339907371223518,-10.036314725847346,0.7695212778809997,-0.05013070481025007,-0.04951222408762002,-0.228831783036742,0.20751569630555491,-0.9598907637756002,-0.845954672099499,11.235475417156868,2.420572708078571,6.559427915002897,11.224784297688402,walking
1970-01-01 00:00:17.500,-3.4960633514999997,-16.52229071,-3.0424739417999995,3.6243858335000003,0.20180866125,-0.53074992445,-1.30029290925,-7.0781927105,-2.887574196,17.159988256114445,3.668595765157929,7.754331591712222,11.359149499702822,-1.537653250617352,-10.171915984161345,0.6893781728179998,0.0013453934897499397,-0.059555316309120025,-0.22336928176424198,0.1898332315855499,-1.0962247419456004,-0.849422887564499,11.341280692978573,2.4350441191366845,6.566511938735726,11.233288314572963,walking
1970-01-01 00:00:17.600,-2.3588744405,-11.3497557635,-0.542871654,2.6963561775,0.3896442056,-0.27075804024999994,-1.3597451449000002,-2.26506328585,-2.775659263,11.604996947430118,2.7377854479962607,3.83193200517212,11.122130289755889,-1.5215061842623518,-10.144024643886345,0.6019937849629998,0.02292815444874994,-0.06141763661262003,-0.223316596101242,0.21120275677754993,-1.0316775584391003,-0.941294692150499,11.289144791555078,2.454071199395833,6.491090724946606,11.239841040676248,walking
1970-01-01 00:00:17.700,1.6452150938999999,-3.3007491825,-1.274327641085,1.70640179495,2.8138678075000003,-0.7879929542499999,3.2316086295,5.063765763999999,-6.2131664755000005,3.9019980532804044,3.3838723409492095,8.642248301176869,10.91556098520868,-1.471733977123352,-10.089450339081345,0.6514564192371499,0.06805525807324994,-0.012504806857620024,-0.23363075203024197,0.27821133794254993,-0.9629840421891004,-0.909186087230499,11.215690897031225,2.4529095283257374,6.475479822937265,11.242494947991874,walking
1970-01-01 00:00:17.800,-0.8624630270999999,-1.7650057972500002,1.6824535134999998,-1.4825263025,1.3894483896,-1.070204377,1.1252570154000001,6.560652733,-5.7257087229999994,2.5864527373468666,2.2964730509013846,8.780211160010081,10.821786446620628,-1.4999722757163523,-9.996320186578846,0.6413302940235,0.07421336201324995,0.0023876487073799767,-0.24262165984674197,0.2586020118215499,-0.8730169868656005,-0.947901184538499,11.125869257940597,2.454797598214735,6.519811285173932,11.240979012986852,walking
1970-01-01 00:00:17.900,-5.125126839,-17.071742537000002,11.5568850055,1.293163657,2.290677309,-0.3695625961,-4.9044822439999995,-7.302268983999999,7.254682542999999,21.2431850106288,2.656322888917924,11.402083020049826,10.88136448676914,-1.529179665671352,-10.095686632143845,0.7506090115513397,0.10293692734824995,0.04327623773237997,-0.24443663990724196,0.21186338249654987,-0.9753037381556005,-0.880033286173499,11.263358058583977,2.4573552538459786,6.604106769662184,11.236718295063492,walking
1970-01-01 00:00:18.000,-5.533402443,-11.275578975,-4.6607698205000005,-0.3761291951,-1.2983558776000002,-0.08536590635000002,-3.0624433160000004,-0.6434526439999999,-6.89204383,13.39701456061551,1.35443290504624,7.569204616300497,11.08203140192606,-1.571039107368852,-10.111008182498846,0.7071927409313399,0.11546311420224996,0.03422577163554497,-0.254498057576242,0.18162515465204987,-0.9852104831093004,-0.963519205420499,11.298914889052762,2.451780639348656,6.664820208040417,11.232235578327382,walking
1970-01-01 00:00:18.100,2.733500719,-11.96979618,-2.6676981445,-2.9193918705,-1.984108269,0.6025244593500001,2.7289574145,-2.70857095702,-5.328204394499999,12.564420406914314,3.580861661775092,6.57064131336781,11.370005932408297,-1.5686567536558522,-10.092285843848845,0.65272761096634,0.08074255508174995,0.01550406655854497,-0.244863469234342,0.16186401788204982,-0.9665448928195005,-1.072882496695499,11.281188957841291,2.4808941739790944,6.6442013228046415,11.230199269615225,walking
1970-01-01 00:00:18.200,-0.613459945,-6.591628312999999,0.9378369154,-2.3128967885,-0.58862769595,-0.79058906435,0.9297454355,2.3398649695,0.235161677,6.686212305988317,2.514160931078762,2.5287735495009773,11.670634069559055,-1.5374618235808521,-9.996414412028846,0.68917777797034,0.019332552966749947,0.01355240941017497,-0.24569574825834198,0.1900258446105498,-0.8828894281645004,-1.078424051235499,11.179820166018887,2.4669083658422646,6.605856908819229,11.232414046911593,walking
1970-01-01 00:00:18.300,-0.8147561548500002,-8.657680988500001,0.8792127780000001,-1.4634373185,-1.97051692,0.55312220005,-0.26141136899999995,1.2489950655,1.4042825105,8.740267890602597,2.5160544281419885,1.8974545967643037,11.90721252178851,-1.5106966078868518,-9.962765344143847,0.6898597330003399,-0.024314774453250053,-0.01151370793582503,-0.23974151455264198,0.21701269510804977,-0.8392794108645005,-1.0395852927654992,11.14176791834813,2.4625617886549773,6.575237967913489,11.239058197068315,walking
1970-01-01 00:00:18.400,2.5622644425,-13.39681578,2.2030419115,-1.03195008625,-0.27175065880000004,0.473253909495,4.9866912365000005,-3.1024236675,4.944352626500001,13.816412912922893,1.1673639809082332,7.677157351261436,12.016451947396288,-1.5010475504988516,-10.056997689993846,0.7254963401148399,-0.06236826884575006,-0.03230771184382503,-0.230349737893692,0.24211113873454976,-0.9112158584795006,-0.9374016885304991,11.234996331326037,2.4408042656491076,6.580814022803576,11.248462022018787,walking
1970-01-01 00:00:18.500,-1.6550854591,-14.56511164,2.8052853344999997,2.018086642,0.32565794139999993,-0.7136223316,0.52771919967,-5.791487694,5.705439806,14.924858819116128,2.1651751941988304,8.146892698651621,11.963373138641895,-1.5050226261298518,-10.190756477536347,0.7328348270248399,-0.04407415706025006,-0.05476856612482504,-0.228496580313692,0.23879868748974975,-1.0357721042845005,-0.8242859069854991,11.357251166926847,2.4351474986308723,6.574774477437585,11.25759069923526,walking
1970-01-01 00:00:18.600,-4.357928276,-15.284603115,-2.296511434255,3.500612855,0.3921639320000001,-0.24739314521400002,-3.2554793355,-7.306828499,-4.658775985399999,16.058785633088572,3.5311876583455355,9.257001787825573,11.753818122736421,-1.4894139446898518,-10.197975324766347,0.57204761874229,-0.003974326133250059,-0.06278059148532504,-0.223676995441332,0.23593325499174977,-1.0646926355595006,-0.9402607355894991,11.30878060706595,2.455574700646578,6.579908532372125,11.263111513396115,walking
1970-01-01 00:00:18.700,1.30423793575,-6.555586338,-2.278714895,2.8524276019999997,0.8518264889499999,-0.30206397175,2.361631632,1.7090907096999999,-5.6290142535,7.0618191990956936,2.9921888702015016,6.3390927178384135,11.43743519465949,-1.4230729370023518,-10.154461845531346,0.60965830456729,0.027639310034749936,-0.04390693837082504,-0.22558742026933196,0.2891270262352498,-1.0410904813025008,-0.9149930451694991,11.243808372677181,2.4746333122870707,6.556300021071597,11.262642188674683,walking
1970-01-01 00:00:18.800,-0.8134101333499999,-1.3028918727,-2.0235801935,1.21390625845,3.1045548915,-0.8191461861,1.7518576982,6.026861428999999,-7.4672696589999985,2.5404802846134578,3.4326127006760943,9.754597902493597,11.096186874262134,-1.449636259770352,-10.041459298708347,0.61116727840229,0.07346507129424994,0.004055261971674964,-0.23893214236133192,0.27859583620224976,-0.9395907736075009,-0.944684040359499,11.139998618353275,2.470913114186823,6.5866883798751,11.255696226299508,walking
1970-01-01 00:00:18.900,-5.720042467000001,-16.0912833235,12.315708635,-0.97689747835,1.1318235995,-0.8614473718000001,-4.98111790185,-6.5504031175,6.7421543580000005,21.0552835175318,1.725527431822761,10.638419146705147,10.821244897054044,-1.4929568178043522,-10.140981274243346,0.72986623713429,0.08706253108574995,0.027478200262174967,-0.23958498585433194,0.22164948052374975,-1.039362125412501,-0.886299002003999,11.287453410699728,2.4606747230846295,6.656922627555182,11.243998095496147,walking
1970-01-01 00:00:19.000,-4.292125463500001,-10.179216625499999,-1.7566308975,0.20043425260000008,0.04573714699999998,-0.19936528805,-0.92332518125,-2.2310059069999997,0.5495756860000002,11.185908287364613,0.2863778872578673,2.4762774848634406,10.686300987594112,-1.5275989063673523,-10.148044582018347,0.7094928480092899,0.10428536933674996,0.04493010601817497,-0.24788945454583192,0.21160077279624975,-1.0697251868420008,-0.903641823368999,11.3041811059101,2.4398690447616946,6.657454916013921,11.231085629405138,walking
1970-01-01 00:00:19.100,-1.36046925925,-8.0220874565,-3.9281173945,-2.828757346,-2.4489629865,0.32451261581,0.7484224435,1.9889643195,-13.041615005,9.035201714963112,3.755608641700545,13.213623165385782,10.724559326538133,-1.5711602425398525,-10.092931894683348,0.6406274128892899,0.08282630451374998,0.02428728676217497,-0.24766954946723194,0.15951204782124975,-1.008284344687001,-1.084040140903999,11.252801679899115,2.4690240333547875,6.701422811498163,11.221306778185603,walking
1970-01-01 00:00:19.200,1.9517955779,-9.432058335499999,1.504038632,-2.169500351,-0.06322267655000002,-0.42018653475,3.4116787910000004,-1.6197814940000002,1.54458668825,9.74860824060201,2.210720607359619,4.08031767130737,10.91474802162001,-1.5153297090358526,-10.029774832138347,0.6676932270292899,0.03191676743874997,0.021930943641674968,-0.24222995433573188,0.21108247523674975,-0.9669718313370008,-1.1059370557429988,11.188230910634203,2.4603185909087544,6.671469004536753,11.218457371221461,walking
1970-01-01 00:00:19.300,-1.8142082095000005,-7.7862446310000015,0.28773695219999995,-1.500546277,-1.9608960745,-0.13835689424999995,-1.27967834475,2.19934368115,1.472263336,7.9999843396631025,2.47303359754666,2.939770165228292,11.182221849760378,-1.4932813437459527,-9.976292254298347,0.6686488593562899,-0.015176501796250024,-0.0003810165178250297,-0.24252163387473188,0.2387284958892498,-0.8920253277005008,-1.043178538477999,11.130860886505934,2.4528289679761226,6.61872601084149,11.224454222424045,walking
1970-01-01 00:00:19.400,0.8181958199999999,-10.3106727605,1.7793627975500004,-1.6703618765000001,-0.5008183718,0.92642623185,1.43312174085,-0.6116490363500001,2.05279851,10.495024970874873,1.9746375371335354,2.577195023746367,11.42070161967129,-1.4998645965939528,-10.041242434353347,0.691703705871755,-0.06269049219625003,-0.01696933691727503,-0.22978470496473186,0.2351594561882498,-0.9329231381590009,-0.9594698492629989,11.194560511992101,2.43947794195243,6.570188063995158,11.238538409587663,walking
1970-01-01 00:00:19.500,0.935444117,-13.706686499999998,3.979563236,0.6839962003,-0.16416519885000005,-0.40102121235,4.094188094100001,-4.5048394205,7.820658206,14.30332947444877,0.809703048835165,9.910532232399838,11.532464618881209,-1.4746322815289528,-10.172641300486347,0.7360187823367551,-0.05528473310325003,-0.04526759987077503,-0.22441612086823184,0.2679163098863998,-1.0429321003140009,-0.8163222138129989,11.320139338380319,2.419310916592006,6.577075110067886,11.25740252553941,walking
1970-01-01 00:00:19.600,-4.0166518689999995,-17.25359726,-2.27856542524,3.8768947125,-0.06039752627000005,-0.6507050543999999,-0.983918905,-7.679746151,-2.8247125145,17.860906221245322,3.9315871528953417,8.24169874146032,11.471852505198083,-1.4541018633739526,-10.22502467565135,0.612591007224355,-0.01259185604825003,-0.054726569461775024,-0.22662127948923186,0.2805217695813998,-1.081054525374001,-0.9036889497479988,11.33067222350648,2.4480289381141445,6.585366197274422,11.276277052219587,walking
1970-01-01 00:00:19.700,-2.840130925,-11.2408823955,-1.3664512635,2.7634730339999996,0.6356629094000001,-0.20440475644,-1.5326312185500002,-2.4547653197,-3.0726058485000003,11.67437234955798,2.8429969835522746,4.22086933310098,11.269400270070074,-1.4331915848139527,-10.24119716337635,0.6463971035393551,0.02149418521469997,-0.038323793558275025,-0.22992443598463183,0.2914625079008998,-1.098538537021001,-0.8805565218419988,11.329320545663139,2.464453499433389,6.567237592600727,11.290564953340875,walking
1970-01-01 00:00:19.800,1.6033406556499998,-2.9908787610000003,-2.3564816715,1.991820216,2.6996395590000004,-0.6913263798,2.8981298205000003,4.306277275,-5.9330775735,4.131472242334021,3.4253954056125226,7.883183996255665,11.021030444716287,-1.436795774867453,-10.15249672288635,0.6389285068393551,0.07348492193469996,0.004905867430224979,-0.24019583254763183,0.29423187559589986,-1.034828577040551,-0.8900267688769989,11.249338637919493,2.462604220472679,6.586074066376937,11.297361627381612,walking
1970-01-01 00:00:19.900,-1.802094519,-1.82497586329,3.3930227760000005,-1.4319786726,1.5568969846,-1.1370921431499998,0.8393282294,7.135314465,-4.6120141745,4.253314603395294,2.4015556794401602,8.537438675439777,10.84612138682807,-1.4497588910324533,-10.10584864626425,0.6664011047223553,0.08034473735369996,0.02975360699022498,-0.2442159709291318,0.28590444153489986,-0.9845305061270508,-0.936182089282999,11.226457629224827,2.462356530866937,6.644561658547153,11.296287398085195,walking
1970-01-01 00:00:20.000,-6.596413612,-17.437993765999998,9.8810112495,0.6317687780000001,0.67376453439,-0.2745758444,-5.72791921935,-9.539373877000001,9.401940347,21.10049009943559,0.9635778800830579,14.567264493965077,10.835713083476307,-1.4998915143424532,-10.19473004113925,0.7721010507263553,0.10181983623369996,0.053996607814124985,-0.2527220190271318,0.23570354588489983,-1.089878995437551,-0.8523452739149988,11.350238064488554,2.4481309283449364,6.7743319627554435,11.289391467021314,walking
1970-01-01 00:00:20.100,-3.9665521385000004,-9.099306586,-3.5223845835000005,-2.32496106615,-2.0789422985,0.3733803853500001,-2.445498109,-1.736824751,-9.641124722999999,10.532716143879526,3.1411555121913213,10.096945436182697,11.014700038806254,-1.569308794302453,-10.160529134449249,0.7161030181888554,0.08804370287569997,0.036262948076124984,-0.2538436872098318,0.16244726188489986,-1.0826567268575509,-0.9962056521549988,11.32521851620936,2.4684672827943577,6.802929594693828,11.280236636320689,walking
1970-01-01 00:00:20.200,2.7106194199,-12.01062393,-0.16106688950000006,-2.3703927995000003,-0.7272136359999999,0.09269607069999997,4.2274222375,-3.446156979,-3.7372624885,12.31375196153962,2.4811679221344547,6.611673585860778,11.330604735507738,-1.513790821293453,-10.124043076149249,0.6769235393038552,0.04286009463969997,0.02367109553062498,-0.2450849008888318,0.19633613176739984,-1.051596293472551,-1.0843290642999988,11.284832972231692,2.469805284502411,6.785745133418192,11.272505313074912,walking
1970-01-01 00:00:20.300,-1.34132662405,-6.972236395,1.194018483,-1.6137057540000002,-2.095435262,-0.47814070061,-0.023479461500000017,2.7150449755,1.1326915620000002,7.199785941116138,2.687659525926887,2.94193995158401,11.66877088850625,-1.4765614922439532,-10.034170155599249,0.7236448970073552,-0.008198337220300033,-0.0017348064428750192,-0.25017783998993187,0.24024166651239987,-0.9621427250125508,-1.0385402290149988,11.185818968666045,2.4614765431166425,6.731392991326065,11.268585151463547,walking
1970-01-01 00:00:20.400,-0.650698199895,-9.049057007,0.4673482179999999,-1.678761005,-0.6232932805500001,0.8381587863,0.18561342365000005,1.0260996817,1.6762819290000002,9.084451288886422,1.9771806130293914,1.9741463991598693,11.888098259086993,-1.488461298357403,-10.057883029059248,0.7564071264473552,-0.05344226684030003,-0.01306220545787502,-0.23990644336048983,0.22492280818889987,-0.9700537657955508,-0.9685744253949987,11.204018309388388,2.4522778972897536,6.692348735439533,11.268625528529423,walking
1970-01-01 00:00:20.500,3.1691441539999996,-13.236496445,3.2385360005,-0.0374907404,-0.26862008125000003,-0.15126106144999996,5.0939431189999995,-4.164502144,5.485351324,13.99058355587302,0.3105514649417669,8.566236849089371,11.869479983612264,-1.4545849105769029,-10.178355664502998,0.8059759446623552,-0.059645420420300035,-0.041754464725375015,-0.23200895190498982,0.24671983279389986,-1.0742025923955507,-0.8414055578099986,11.322912892834939,2.4271197683166523,6.678083550197297,11.270453203388556,walking
1970-01-01 00:00:20.600,-1.4346467255000002,-15.127573965,-1.5484552385000003,3.6986801625,0.03642177584999995,-0.6934643685999999,0.02587383984999997,-5.0895733835,4.570365041700001,15.27414216639258,3.7633036445050365,6.84051630332197,11.56417978385313,-1.4212932702919028,-10.187405018062998,0.6861149737073552,-0.016889166639800033,-0.05435242555187502,-0.23036348224198985,0.2700412497683999,-1.1130508589955506,-0.8205456407029986,11.292919066274242,2.448172002702522,6.710513170223402,11.270440437428345,walking
1970-01-01 00:00:20.700,-5.776423335,-15.002100945,-0.04022932050000005,2.6617668865,0.65788251155,-0.15110833939999999,-4.934909463,-6.6644854545,-3.644359708,16.07581157227623,2.7460236865889316,9.058148567038568,11.023128652809094,-1.4138486012819027,-10.221365153053,0.6477849456523552,0.005395304305699968,-0.051889183884375016,-0.23146453440698983,0.2542562577883999,-1.1590481734455507,-0.9100066537829986,11.315254493834015,2.4696420177915686,6.73503622495578,11.265013227002477,walking
1970-01-01 00:00:20.800,0.81565347305,-5.6877393724999985,-2.610270381,2.4417091605000003,1.9813594225,-0.5567109138,1.3282862005,1.72801613805,-6.4000344275000005,6.311036461589419,3.1933768689497297,6.7609780858234725,10.389830965376108,-1.4046317470064027,-10.205431945797999,0.7220850786373552,0.06228198204569997,-0.004286621574375018,-0.24072650582098984,0.26563163287789987,-1.1449776268200507,-0.8415486974579985,11.254335678298261,2.458678784508365,6.6701350948253415,11.252189283324997,walking
1970-01-01 00:00:20.900,-0.80742809185,-0.14656037094999996,-1.2468101383,-0.5647282897,2.411701262,-0.9071845414,1.1972233654,7.305468320499999,-7.0138967035,1.4926337751803687,2.6378409372960694,10.197938916068138,9.854282078194547,-1.432128269969903,-10.100186633957499,0.6807744920043551,0.08063106898869998,0.02220964127362498,-0.24393421732708984,0.23836619086189986,-1.0438558554855506,-0.9145530633174985,11.157028634478582,2.4602403716908174,6.723786778283427,11.23252464558328,walking
1970-01-01 00:00:21.000,-4.5349969864999995,-11.221740245,8.309226035999997,0.26701659710000003,1.03095749015,-0.36009445039999993,-3.7229824664,-6.678885937,8.3161373135,14.681174650250467,1.1242060410939487,11.297179100180948,9.585373901270364,-1.452023092804903,-10.139856645947498,0.749604033809355,0.09929321658469999,0.05248552286012497,-0.24714880094758981,0.21292962736789986,-1.1347025466215506,-0.8468922523724984,11.225645026173694,2.4458983324758936,6.805804931267855,11.209112615766376,walking
1970-01-01 00:00:21.100,-5.0533424615,-11.389237256400001,-0.11904299250000006,-1.367686987,-1.7028894419999998,-0.0366508364699999,-2.8492047787,-1.7170176494999998,-1.8477945329499998,12.460544392193787,2.184432061177037,3.8053202382534543,9.67025925097798,-1.5054234179849026,-10.151396027406498,0.7422072207743551,0.1011074329597,0.040909203676624976,-0.2564428423452898,0.16988388545239985,-1.1445636153375505,-0.8910119293204984,11.247669413860585,2.4490502702589545,6.813481638301088,11.186648443201134,walking
1970-01-01 00:00:21.200,0.24720850217,-8.581110956,-3.1118657589999996,-2.15041139745,-2.2928915620000003,0.25815930963000006,2.0958564877000003,1.0847024916,-10.149446964500001,9.131280621291026,3.154087367610844,10.42019518039445,10.084065320921013,-1.5121143490432027,-10.095134788416498,0.6649011045493551,0.0694777620607,0.018497217534124973,-0.24921728299148985,0.15252228922339983,-1.0880005908165507,-1.0595562265404985,11.189309929981594,2.469439438158959,6.827939137658592,11.169881061461076,walking
1970-01-01 00:00:21.300,1.5913766025,-9.426225664,1.810469449,-2.494929314,-0.36521029475,-0.2531198263,3.2761378289999996,-0.9389824865000004,1.634529233,9.729543123158408,2.5341903021900376,3.779742451290845,10.698591825522687,-1.466614827551203,-10.021995168606498,0.7228373229852052,0.006797198130699998,0.011102148121024972,-0.24484438018098983,0.18858302301839985,-1.0245596194415507,-1.0197437177204984,11.11200508783028,2.456241424146387,6.7891472621519195,11.161960949552622,walking
1970-01-01 00:00:21.400,-1.9686948655000005,-7.808976889,-0.6136094335000001,-1.4707674385000002,-2.8079121115000003,-0.31985488535,-1.5819675925,2.054102898,0.7938902378949999,8.076657480868084,3.1858804798269666,2.7114980894548357,11.324991976523746,-1.4588590918812028,-9.986514099506497,0.7217485893102052,-0.03707919530930001,-0.020642820101825034,-0.24567360525198986,0.19616397864229984,-0.9799323821190506,-0.9900630752365486,11.075823332106436,2.458606733025828,6.7762567652715555,11.163260750088341,walking
1970-01-01 00:00:21.500,2.7273691894,-11.141580581500001,3.3151061535000004,-1.715411782,-0.4330143481500001,0.9047411382,3.1521493200000004,-1.2169761655,4.99159956,11.939986991547347,1.987132490469525,6.02769794286042,11.776835363687178,-1.4503600846522027,-10.055225499536498,0.7737954718202051,-0.07494409017430001,-0.05264358068832504,-0.22902878110498986,0.19647252447229985,-1.0326770639540508,-0.8868962566115485,11.144892226390205,2.4430899240788917,6.762667498119088,11.171151909559697,walking
1970-01-01 00:00:21.600,0.309272349,-15.08704567,3.820290923,0.8470924532499999,-0.21364383399999998,-0.5576272011,2.425800561885,-5.0805478095000005,6.6409893035000005,15.56628469387856,1.0364156538599476,8.706274366217633,11.93398733635152,-1.428863564607203,-10.196466340916496,0.7954490226802052,-0.054922044171800015,-0.08146335432832505,-0.22242475931598985,0.21286531037914988,-1.1549540352940508,-0.7636430088765483,11.273997391176595,2.4219296718680594,6.758072165206758,11.180908706964068,walking
1970-01-01 00:00:21.700,-4.7660539150000005,-17.375780105,-2.43185544,3.806494713,0.14805410428000002,-0.476308167,-4.431907177,-7.231374263500001,-1.6352905631999999,18.180949509281913,3.83903522878366,8.637635682896406,11.784382005146947,-1.409219987282203,-10.213045602326495,0.6651867527302052,-0.014748146426800016,-0.09017861722852505,-0.22157110032698984,0.2173360473576499,-1.1841237354340508,-0.8572787700035484,11.254662638819024,2.448489983311881,6.74338174414117,11.18744353217955,walking
1970-01-01 00:00:21.800,-0.13474580644999995,-7.4080295565,-1.1008479593499998,2.8488389255,0.581602931,0.03565821053000005,-0.8585449158499999,-0.051830292,-5.215624093999999,7.490589067085345,2.907819922342164,5.286068524112603,11.42535219907614,-1.361206507271703,-10.163285365581496,0.7076219672517051,0.022119540383199982,-0.07062845110052504,-0.22270040412518985,0.24745592928414986,-1.157372674949051,-0.8213970146735484,11.185939813380855,2.461411233610181,6.69628038847601,11.187188240018616,walking
1970-01-01 00:00:21.900,1.2981062981,-1.7877376263395,-2.145763695,2.105666876,2.893201709,-0.5741200596,3.08438015,5.704257488,-7.8328077795,3.079835647656694,3.624094778628068,10.168816652379657,11.02208749050065,-1.368772313331703,-10.063283327294892,0.6987640357567051,0.07620777528319998,-0.02230356096052504,-0.23097662088558985,0.24800610518914987,-1.0760406923375507,-0.8601309643335484,11.096419913638378,2.4592647590585606,6.742512499763179,11.179372032645986,walking
1970-01-01 00:00:22.000,-6.9710400099999985,-8.944969179000003,6.9818080045,-1.30049380635,1.37112303825,-0.98873263595,-2.3045740129,3.72129774105,-0.11634993550000015,13.31741399243791,2.1328044335492313,4.3786591059328535,10.741341900090564,-1.425045518363453,-10.087236977309892,0.764626480521205,0.08538881014969998,0.006742989507974959,-0.23300310668608984,0.2122413770001499,-1.065393381127051,-0.8695583311840483,11.162616917538834,2.4525004156122217,6.755708262394636,11.166242643114956,walking
1970-01-01 00:00:22.100,-3.1561330555000002,-11.1978120815,5.894868135499999,0.74210307005,0.8435037357999999,-0.18638477473499998,-1.7620819804499999,-4.565955639049999,4.3984668255,13.042302005840089,1.1388392349841165,6.580227520277937,10.689918891632331,-1.4511302761094527,-10.101027117449894,0.812185326100205,0.10901180070019999,0.028946523529974958,-0.24229791109593982,0.1935461316156499,-1.116930437098051,-0.8494652135315485,11.194041953992667,2.44136561724033,6.796883203559044,11.152228736771265,walking
1970-01-01 00:00:22.200,-1.5029917061000002,-8.370392797000001,-9.82373333,-2.570216179,-2.4927148815,0.235176198195,-0.62021660805,-0.4218471049500001,-12.64134121,12.993390480687777,3.5881675729322304,12.663574977410605,10.881858293521915,-1.4959373747377527,-10.050810743069894,0.685033722395205,0.08888285674344998,0.00870151886497496,-0.24133964431598984,0.13061069346014992,-1.070953176032551,-1.0236924226265485,11.183771140773864,2.4698361486763445,6.833939743323372,11.142398211301638,walking
1970-01-01 00:00:22.300,2.9344979525,-10.37901783,2.885444939,-2.4771382809999998,-0.3024457544,-0.12507095934999996,3.5830423835000005,-2.22443151495,0.6495022475500001,11.165172718981347,2.49866569240924,4.2670998882417335,11.241806555620434,-1.4361811148177526,-9.985785790169892,0.7441678487002049,0.030531672613449974,0.0040460991274749595,-0.23512274605398986,0.1810249707796499,-1.029573075787051,-1.0246220408060485,11.121238329811135,2.460384044567978,6.8109153823569475,11.140733895208719,walking
1970-01-01 00:00:22.400,-1.839332819,-6.6083779335,0.9677472265000001,-1.7118993999999998,-2.1777468325,-0.5117372839334999,-1.04630804065,3.051796198,1.933625102,6.9275059599699125,2.8169231210581125,3.7612666197892177,11.637693120064121,-1.4186447160477524,-9.928076887819893,0.7477346503952049,-0.017133502591550026,-0.02337712487602504,-0.23816171115117485,0.2064505109881499,-0.958177442567051,-0.9763571886420486,11.061467220878024,2.457420278458471,6.786917651219637,11.148769938461497,walking
1970-01-01 00:00:22.500,-0.34546378265000005,-10.81107187,0.5679962635,-1.852699816,-0.4521796703500001,0.80517303945,0.4750320911,-1.1569466591,1.7434386015,10.831492969982397,2.0700885695886106,2.145637251908571,11.929736173343928,-1.4403117247492525,-9.997576422164894,0.762291985027705,-0.06326239727655002,-0.04007234370952504,-0.22468183925217486,0.18879288531214988,-1.009197950383051,-0.8932579891070486,11.126178002337499,2.4474695472585903,6.728559435732527,11.165043025134402,walking
1970-01-01 00:00:22.600,3.1595727205,-13.98216009,3.3894332645,0.08918369564999999,-0.35513132810000003,-0.18103984,5.0181679725000015,-3.9681277275,5.2898731230000005,14.729968038424786,0.4084696016046816,8.301253225833849,12.0212198959369,-1.3971093120232527,-10.140254454965893,0.8039375679377051,-0.05794649914105002,-0.07006188965052504,-0.21653084566667485,0.2308456686801499,-1.1266061473080509,-0.7716107503770485,11.25923141188833,2.422957358937552,6.707485896503187,11.185577850704641,walking
1970-01-01 00:00:22.700,-2.7897320985,-17.367405415,-3.159722328,3.821078658,-0.05520531534999995,-0.7554653288000001,-1.2612186075,-6.666113376499999,0.013945579500000084,17.871575790076104,3.895435482777871,6.78438902211865,11.894868952223483,-1.3524936380032526,-10.163321257000893,0.6758049051727051,-0.021922545586550025,-0.08578586167402504,-0.21814119150817482,0.23991513705514989,-1.135435965078051,-0.8532011000320484,11.24491927048231,2.4454707845976165,6.672888016199369,11.205251992220978,walking
1970-01-01 00:00:22.800,-2.76819676165,-11.971141816500001,0.17048871500000007,2.952377558,0.8216658533499999,-0.03153498889799995,-2.3350221813000003,-3.3140926360500003,-1.3380385040000002,12.288214520584626,3.064745091368648,4.269178565681039,11.61961256132668,-1.3372304203147525,-10.189045594090894,0.7010865740827051,0.013456200953349975,-0.06541334292602503,-0.21912847334915483,0.2410458207726499,-1.172498662488551,-0.8153167078720485,11.261812147419912,2.462609086202636,6.658634456083873,11.219521455025147,walking
1970-01-01 00:00:22.900,1.9983059765,-4.3495532269999995,-1.9793130159999999,2.7239207025,2.388870835,-0.3653630204549999,2.5274477603000003,3.395761013,-3.8336554765000006,5.179722006587684,3.6414197775782036,5.711050634599094,11.322140214050616,-1.3263505550257522,-10.105947350610894,0.7034584586627051,0.07326731025334998,-0.026273305928525045,-0.2273145902012048,0.2554403299711499,-1.114995934978001,-0.8253508863680484,11.184767836577725,2.4627731077231783,6.677355240271209,11.225851508078758,walking
1970-01-01 00:00:23.000,-1.9722840785,-1.2083753941500002,0.7727321385000001,-0.8249492349499999,1.85590675465,-1.205659777,0.4628217219499999,6.2505333425,-6.799811363,2.4386862318392963,2.3618947097776766,9.247745973176215,11.134696934891299,-1.3395305212357522,-10.047435356127394,0.7060083101987051,0.08763978271884998,0.006232932220474956,-0.23014281301320483,0.2425585032156499,-1.0673121643215011,-0.8927538628195485,11.138067603742163,2.4582595155777267,6.746884180417422,11.224373920964108,walking
1970-01-01 00:00:23.100,-6.3498036860000004,-14.6430273045,14.059777259,0.23998662829999998,0.92001235475,-0.22479178754999998,-3.72972977146,-3.851416111,5.1523430345,21.27006328302211,0.9770095508260738,7.435787044647399,11.143390631764683,-1.390560456414752,-10.107133284547395,0.8535916296704006,0.10500769793184998,0.03491602958297496,-0.23836099921270484,0.21239556080854988,-1.115675275341001,-0.8410969913840485,11.262866296725111,2.442745765229247,6.809079869871241,11.217647102513746,walking
1970-01-01 00:00:23.200,-3.849154353,-10.0138131365,-7.9586777705,-1.856059432,-1.804671884,0.06833853665,-2.10747480395,-2.0141663565,-6.66826891905,13.357881367215748,2.58968480313874,7.277645672723345,11.358768488856608,-1.4572230004247517,-10.075374543412394,0.7518428275904006,0.09676049619234998,0.02207143873647496,-0.24171989557840487,0.14512725598404988,-1.106776750116001,-0.9511394942695485,11.259764659828345,2.456404629612061,6.812162347682983,11.209703200634202,walking
1970-01-01 00:00:23.300,2.80887466675,-12.877274035,-1.4335998294999999,-2.7841655015,-1.2767470778,0.2938939035,4.193613528999999,-3.8585762975,-5.494354723000001,13.25779664714833,3.077017105400627,7.915992628621697,11.715240901243675,-1.4165106189697518,-10.057838141612395,0.6942161820304007,0.046933684938349984,0.005944308048474959,-0.23058033195840488,0.17254409915904986,-1.087474358106001,-1.0690778721095484,11.23924200130914,2.4634706944152884,6.804545566180353,11.204710938220241,walking
1970-01-01 00:00:23.400,-0.6195915638999999,-6.462266207000001,0.83374917515,-1.9104248284999998,-1.8336871265,-0.7124006002500001,0.8666988610000002,3.1053886415000003,0.443853557,6.545220846026018,2.742197315744737,3.2544756122112,12.092453413143621,-1.370376999123752,-9.962709984482395,0.7299485013819007,-0.007924980531650019,-0.02206838376002504,-0.2374874871739049,0.22258029228904988,-0.991786029366001,-1.0262969959495485,11.134373391610314,2.4538515164608596,6.751304791475869,11.20561787639,walking
1970-01-01 00:00:23.500,-0.7691429554000001,-8.736644268,-0.4830510912500001,-1.5123050805,-1.2434559318,0.8288433553500001,-0.07724681495000002,0.7535214424000001,0.8667196037,8.783727700024432,2.1260833987740377,1.1510710256167431,12.349493543023906,-1.3777633434977519,-9.983514084517395,0.7460970623244008,-0.05141730547165002,-0.03535354785302504,-0.22966024325530487,0.21841544425954987,-1.001036047962001,-0.9599333430025486,11.152419838329964,2.446726580434218,6.7026313391246415,11.213146619223632,walking
1970-01-01 00:00:23.600,2.6914768220000003,-13.292728425,2.7106194494999998,-0.6676560265899999,-0.29641363769999995,0.15225367245000007,4.563723921999999,-3.1487646105000002,5.2596092225,13.83069536444838,0.7461948775159244,7.642367681679502,12.366593752516671,-1.355378487152752,-10.101544551893696,0.7857296834339007,-0.06382743097955001,-0.06438635498002504,-0.22002947272180484,0.23126006103304989,-1.091569232972001,-0.8414096141525484,11.270743133193026,2.426292421585596,6.684671834057911,11.225485182113749,walking
1970-01-01 00:00:23.700,-0.31316067275,-15.87697601,2.64960232355,3.5355838535000004,0.33871480075000004,-0.8561787901000001,2.6078647375,-6.832939148,5.760771513,16.099590966916963,3.6535083169460725,9.31002171395745,12.08774334903546,-1.307041973065252,-10.109228498968696,0.6953647328344007,-0.021060487705550014,-0.07354677356252504,-0.22065635484680485,0.2990072891780499,-1.1308415317720009,-0.8323413134225486,11.233919990283034,2.446234475180657,6.707510681948837,11.23884334582791,walking
