Unnamed: 0,acc_Acceleration x (m/s^2),acc_Acceleration y (m/s^2),acc_Acceleration z (m/s^2),gyr_Gyroscope x (rad/s),gyr_Gyroscope y (rad/s),gyr_Gyroscope z (rad/s),lin_acc_Linear Acceleration x (m/s^2),lin_acc_Linear Acceleration y (m/s^2),lin_acc_Linear Acceleration z (m/s^2),acc_magnitude,gyr_magnitude,lin_acc_magnitude,filtered_acc_magnitude,average_acc_Acceleration x (m/s^2),average_acc_Acceleration y (m/s^2),average_acc_Acceleration z (m/s^2),average_gyr_Gyroscope x (rad/s),average_gyr_Gyroscope y (rad/s),average_gyr_Gyroscope z (rad/s),average_lin_acc_Linear Acceleration x (m/s^2),average_lin_acc_Linear Acceleration y (m/s^2),average_lin_acc_Linear Acceleration z (m/s^2),average_acc_magnitude,average_gyr_magnitude,average_lin_acc_magnitude,average_filtered_acc_magnitude,activity
1970-01-01 00:00:00.000,2.911766052,3.6696925160000013,7.831708431,0.2015796006,-0.3649812340999999,-0.7146912812999999,,,,9.125824984721248,0.8274232678559686,,9.13522943573292,2.911766052,3.6696925160000013,7.831708431,0.2015796006,-0.3649812340999999,-0.7146912812999999,,,,9.125824984721248,0.8274232678559686,,9.13522943573292,running
1970-01-01 00:00:00.100,2.9944679735000004,4.0645084385,7.5121173855,0.1186570786,-0.5118136406,-0.3488701433,-0.03887832165000005,0.19670295715,-0.2586669923,9.050910169949,0.630668757663066,0.3272799873982579,8.820418690452561,2.95311701275,3.8671004772500006,7.67191290825,0.1601183396,-0.4383974373499999,-0.5317807123,-0.03887832165000005,0.19670295715,-0.2586669923,9.088367577335124,0.7290460127595173,0.3272799873982579,8.97782406309274,running
1970-01-01 00:00:00.200,3.3068808314999996,3.6862927675,6.632156610499999,-0.008475504815,-1.91500622,-0.17264070359999995,-0.5883368254,-0.34288942812,-0.379829883565,8.277059653504,1.9227910623258213,0.7797333649955042,8.683369085964205,3.0710382856666665,3.8068312406666673,7.325327475666666,0.10392039146166666,-0.9306003649,-0.41206737606666666,-0.313607573525,-0.073093235485,-0.3192484379325,8.81793160272475,1.1269610292816186,0.553506676196881,8.879672404049895,running
1970-01-01 00:00:00.300,5.5823056695,3.5977584125,6.7926254275,-0.91168950495,-1.19405367955,0.08101361617499996,0.91304755205,0.27261912825,0.08389282226500001,9.499776964790591,1.5044949814102473,0.9565641782023171,8.856504755205902,3.698855131625,3.7545630336250007,7.192151963624999,-0.14998208264125001,-0.9964636935625,-0.28879712800625,0.09527746833333332,0.04214421909333333,-0.18486801786666665,8.988392943241209,1.2213445173137758,0.6878591768653597,8.873880491838896,running
1970-01-01 00:00:00.400,4.64865613,1.8296120765,7.6387870315,-2.6320645805000003,-0.25289076580000003,-0.4175141118499999,-0.19634711725,-0.4868045449,0.2629160881,9.127351832709957,2.676945223373733,0.5870738665359653,9.37133509577785,3.8888153312999996,3.3695728422,7.2814789772,-0.6463985822130001,-0.84774910801,-0.314540524775,0.022371321937499987,-0.09009297190500001,-0.072921991375,9.016184721134959,1.5124646585257673,0.6626628492830111,8.973371412626687,running
1970-01-01 00:00:00.500,2.8124638795,-2.89740908155,6.777071714500001,-1.6206541065,-0.39544724441,0.3540623262500001,-2.7326896190000003,-3.6672782895,-0.6244556904999999,7.888829664964036,1.7053616586801572,4.615892927248881,10.144465674080504,3.7094234226666667,2.3250758549083335,7.197411100083333,-0.8087745029275001,-0.7723654640766666,-0.20310671627083332,-0.5286408662500001,-0.805530035424,-0.1832287312,8.828292211773137,1.544614158551499,1.4533088648761852,9.168553789535657,running
1970-01-01 00:00:00.600,5.7164533135000015,-5.58604455,5.716453314,-2.8578488825,-0.3224509861425,1.4716837999999999,0.5289702413949999,-3.7253085375,-1.5389845375,9.826472952751228,3.230654435381972,4.0652437346997985,11.000723081230637,3.9961419785,1.1949157970642859,6.985845702071429,-1.101499414295,-0.7080919672289285,0.03614907176785714,-0.35237234830916675,-1.29215978577,-0.40918803224999994,8.970889460484292,1.7854770552415664,1.8886313431801207,9.430292259777797,running
1970-01-01 00:00:00.700,9.099306344,-5.9056358335,8.755786895,-2.467288375,0.21616357565000002,0.8270871934999999,4.079672337,-1.6301956175499999,2.5548760890000004,13.940506256608174,2.611189736978077,5.082190075046997,11.727584014655676,4.6340375241875,0.30734684324375006,7.2070883511875,-1.2722230343831251,-0.5925600243690624,0.13501633698437498,0.2807768924492856,-1.3404506188814285,0.014249699357142947,9.592091559999778,1.8886911404586302,2.344854019161103,9.717453729137532,running
1970-01-01 00:00:00.800,10.929666045,-3.5654553175,9.8964152335,-1.1398409605500002,-1.03958567985,0.4688252583,5.5043120385,2.4015487435,4.9860835075,15.169347578263405,1.6123811348179424,7.805505501141227,12.142875562676537,5.333551804277778,-0.12296450794999997,7.505902449222223,-1.2575139150683334,-0.6422295416447221,0.17210621713055552,0.9337187857056249,-0.87270069858375,0.635728925375,10.211786673140182,1.8579900287207758,3.0274354544086184,9.986945043975199,running
1970-01-01 00:00:00.900,8.625228407,-2.1146570445,8.862267253999999,0.17775654795,-1.481075525,-0.33504970928499994,2.4180805683,3.560051918,4.1694500445000005,12.546159586506697,1.528868996606671,5.992111227875079,12.151093387194038,5.662719464549999,-0.32213376160499996,7.6415389297,-1.1139868687665,-0.7261141399802499,0.12139062448899998,1.0986478726605555,-0.3801726300744444,1.0283646052777777,10.445223964476833,1.8250779255093654,3.3568438736826693,10.203359878297082,running
1970-01-01 00:00:01.000,6.416652918,-4.297958254999998,5.770291805,0.06894938275000001,-0.6903337538500001,-1.04218176025,-0.94182276705,0.8520753385500001,1.8152251240000001,9.640650774021985,1.251981441749049,2.2154242839464477,11.767932542762086,5.73125886940909,-0.6835723519136362,7.471425554727273,-1.0064472095377273,-0.7228613776047726,0.015611316785454516,0.8946008086894999,-0.256947833212,1.1070506571499998,10.372080947162756,1.7729782451675185,3.2427019147090475,10.34559375688481,running
1970-01-01 00:00:01.100,9.1280202865,-3.0171997545,4.6055853365,-0.1548497751,-0.27862270920000004,-0.9205468297,0.11931276321499999,0.26996815215,0.353113413,10.660003048831374,0.9741742824572969,0.46022540247338883,11.107083803047024,6.014322320833333,-0.8780413021291665,7.232605536541667,-0.9354807566679167,-0.6858414885710417,-0.062401862088333364,0.8241200772827271,-0.20904637999727269,1.0385109076818182,10.39607445563514,1.706411248275,2.9897495045058062,10.40905126073166,running
1970-01-01 00:00:01.200,6.1556859015,-3.9161533114999996,2.27363020195,-1.1689325570000002,1.18611270185,-0.7920398117,-1.8484539985,-0.67164838315,-1.6080883739999998,7.64186626239412,1.8440698814367738,2.540441291144633,10.33994438393022,6.025196442423077,-1.1117422259269227,6.851145895419231,-0.9534385874626923,-0.5418450123848076,-0.11852785821230771,0.6014055709674998,-0.24759654692666663,0.8179609675416667,10.184212286924293,1.7170003739028288,2.952307153392375,10.403735347131551,running
1970-01-01 00:00:01.300,7.9537422655,-2.7574290039999996,5.69252491,0.0,0.4986040741,-0.112243186675,-0.29956436157,1.5487212540000002,2.0821657184999998,10.162198117979791,0.5110817504705849,2.612219441128711,9.647602510692773,6.1629497155,-1.229291281503571,6.768387253603572,-0.8853358312153572,-0.4675272204930357,-0.11807895310250002,0.5321001915415383,-0.10941825454769226,0.9152074868461538,10.182639846285399,1.630863329371954,2.9261465601413237,10.349725858814494,running
1970-01-01 00:00:01.400,9.974331855,-4.6440199615,5.4638609885000005,-0.11323580895,-0.60573141275,-0.096819289,2.408361435,-1.111353278,1.2414433958500002,12.28446149646497,0.6237843117161069,2.928564941266658,9.181195366464896,6.4170418581333335,-1.4569398601699997,6.681418835930001,-0.8338624963976666,-0.47674083331016665,-0.11666164216233335,0.6661188517885713,-0.18098504193714282,0.938510051775,10.322761289630705,1.5637247281948978,2.926319301650276,10.271823825991188,running
1970-01-01 00:00:01.500,7.9764740465,-5.953641891499999,2.02956224965,-1.2724711893,0.6233696341499999,0.10789089091000006,0.061662673925,-1.8713395595,-2.39793908605,10.158204216883815,1.4210605450578855,3.0423388852512048,9.036318711960492,6.51450636990625,-1.7379837371281246,6.3906777992875,-0.8612755397040626,-0.40798392909390624,-0.10262710884531251,0.6258217732643332,-0.293675343108,0.7160801092533333,10.312476472584024,1.5548082167488344,2.9340539405570047,10.194604756364269,running
1970-01-01 00:00:01.600,7.8195948605,-3.1547870039999997,1.5877873299499998,-2.108797491,-0.85564432295,-0.008933641049999995,-0.7035212515000001,0.12189292949999996,-3.018238783,8.580198915416533,2.275793021209721,3.101542420922135,9.238888505889044,6.591276281117648,-1.8213251057676467,6.108154830502942,-0.9346591838979412,-0.4343168934383823,-0.09711572838676472,0.5427378342165624,-0.26770232607,0.4826851784875,10.210577792750641,1.597219087599475,2.9445219705798253,10.138386153395137,running
1970-01-01 00:00:01.700,7.5191459655,-4.1781675814999995,1.7913268205,-1.2598724959,-1.16312950855,1.755269587,0.20353221885000003,0.8286850452,0.8058273791999999,8.786551779135836,2.453797115213931,1.1736703256521699,9.739692892907602,6.642824596916667,-1.9522607988638885,5.868331052169445,-0.9527265901202779,-0.4748064831668055,0.005794566912499984,0.5227845627244116,-0.20320895128941177,0.501693543235294,10.131465236438707,1.644806755800278,2.8403542267605513,10.116236527812497,running
1970-01-01 00:00:01.800,7.452147245500001,-3.8647075889999996,1.1473584175,-0.7999808341500001,1.600114405,2.1228469311,-0.2038609979999999,3.8262102605,0.5233355160000001,8.472714715797737,2.7761150078799908,3.867211440607821,10.420651573887385,6.685420525789475,-2.0529158930815785,5.619858808239474,-0.9446873398060527,-0.36560012063171043,0.11721837555394735,0.48241536490638887,0.020647671587777767,0.5028958750555554,10.044162577457604,1.704349295383421,2.8974018497520664,10.132258372342756,running
1970-01-01 00:00:01.900,5.565705538,-7.141080141000001,-0.3622135372,-1.0770764348500002,-1.2465865316,0.85091023145,-0.0018897056499999894,0.09987521199999994,-1.3253225683499998,9.061087261606048,1.8542167751538645,1.3290818406468914,11.119421167796657,6.629434776400001,-2.3073241054774996,5.320755190967501,-0.9513067945582501,-0.4096494411801249,0.15390296834874997,0.4569256243507895,0.02481754213578946,0.40667385171842096,9.995008811665027,1.711842669371943,2.8148586913781095,10.18161651211545,running
1970-01-01 00:00:02.000,6.253941237,-9.845268727999999,2.4496521950000005,-1.022863790615,-2.868615091,2.715903342,1.6792565585,0.449674368,2.143862426,11.918132957760294,4.080604592159229,2.7601187887690757,11.673794721961496,6.611554131666667,-2.6662738494071427,5.184036000683333,-0.9547142705609524,-0.5267430435524999,0.27590298614166664,0.51804217105825,0.046060383428999985,0.49353328043249994,10.086586151955277,1.8246408561713376,2.812121696247658,10.252672617346214,running
1970-01-01 00:00:02.100,5.0316574575,-14.81411457,2.5383361575,2.840134382,1.9418070319999998,-0.07383615897899999,2.927497864,-6.2247357365,6.061807752000001,15.84988068444597,3.441283137975709,9.16859269218521,11.974422880076979,6.539740646477273,-3.2184484276159084,5.063776916902273,-0.78222114999,-0.4145362219364772,0.2600057522725454,0.6327781564364285,-0.2525489556152381,0.75868920765,10.348554085250308,1.8981245962533544,3.1148107912923035,10.330933992924885,running
1970-01-01 00:00:02.200,8.8443212505,-15.291632175,-5.473581672000001,1.38448529675,1.322407961,-0.71201881765,6.0113286975,-6.459932327000001,-7.5539889335,18.493678089487645,2.0426779356816915,11.615917836583003,12.002934973851513,6.639939803173913,-3.7433694601108694,4.605630891297826,-0.6880165218708696,-0.3390169096348913,0.21774381444982607,0.8772577264847728,-0.5347027452236364,0.38084020123409085,10.702689911521498,1.9044095240545864,3.5012247478964267,10.403629687747783,running
1970-01-01 00:00:02.300,1.348505140975,-9.1855974185,-0.7117153409999999,1.5422366259999998,2.31450015315,-0.121711317435,-0.8527764083499999,-0.7798120975,-2.239794731,9.31129447373482,2.7839214095047655,2.520320405635172,11.833763084848506,6.419463358915625,-3.970128958377083,4.384074798285417,-0.5950893073762501,-0.2284536986855208,0.20359985062129163,0.802038851057174,-0.5453596735834784,0.2668995520065217,10.644715101613718,1.9410558526150103,3.4585767330155024,10.463218579293645,running
1970-01-01 00:00:02.400,2.4927230475,-3.4229328635000003,-1.9350458380000002,-0.6164212376,1.6825788019999999,-0.9147437511,0.9519511461,5.047397136500001,-6.3636658189999995,4.655592333390793,2.011915181432997,8.17793809551151,11.595558509919877,6.262393746459,-3.9482411145819993,4.131309972834001,-0.5959425845852,-0.15201239865809996,0.15886610655243996,0.8082851966839585,-0.31232813983,-0.00937400511875001,10.405150190884802,1.94389022576773,3.6552167897861696,10.508512176518696,running
1970-01-01 00:00:02.500,0.0004486590999999983,-5.176722288000001,3.261267662,-0.572898373,2.018315673,-0.83258479835,-1.48613405245,3.6124830245,-2.610502601,6.118359307165434,2.257212472964608,4.698228586816514,11.412179099497711,6.021549704637499,-3.9954903904826917,4.097846807032693,-0.595056268755,-0.06853824205586534,0.12073337944080766,0.7165084267186,-0.15533569325680005,-0.113419148954,10.240273618434056,1.9559410814291485,3.696937261667383,10.543268596633274,running
1970-01-01 00:00:02.600,5.678168058500002,-11.378619195499999,11.512467865,0.4656946957,0.7090409844500001,-1.5057384969999998,2.6979035139999996,-2.70536232,5.4312062265000005,17.15376004377549,1.7282531899524327,6.640457042109504,11.355666789476388,6.008831865891666,-4.268939605483332,4.372462401772223,-0.5557691959974074,-0.03973901144453699,0.060493680313370345,0.792715930075577,-0.25341364043923076,0.09983567317884617,10.496328671224479,1.9475081965596404,3.810149560915157,10.573357418590426,running
1970-01-01 00:00:02.700,0.3200399875000002,-11.792727469,-8.9702432764,-1.316452205,0.8165500761,-0.047187954199999986,-2.498205304,-3.573105335,-9.093080996,14.820125208293808,1.5498474563162206,10.084256714094279,11.433589175074937,5.805660727377678,-4.537646314894642,3.895937198980358,-0.5829364463189286,-0.009157258317946384,0.056647907652178545,0.6708299584431482,-0.3763651846822223,-0.2406427219759259,10.650749976119812,1.9333060272652325,4.042523899921791,10.604079981322016,running
1970-01-01 00:00:02.800,4.8988559242499985,-14.54596853,-0.7978567889899999,-2.118341982,0.21425467914000002,0.2732777894,3.2521748545000007,-4.3334913255,-1.9386404752500002,15.369468608187049,2.1466156084442374,5.754486531803111,11.608629124622764,5.774391596235344,-4.882760874036206,3.7340822338779316,-0.6358814647906897,-0.0014533984056034057,0.06411790357451722,0.7630208475880359,-0.5176911182828572,-0.3012854988785714,10.813464411708336,1.9406615300645085,4.103665422488981,10.638719606953076,running
1970-01-01 00:00:02.900,0.13339984449999998,-6.687340975,4.357928157,-2.511498451,0.1319430023,-0.06963659078,-1.5138695241,2.8296597005,2.3649312255,7.983098562337808,2.515925809718323,3.9864363356232646,11.829761658524566,5.586358537844165,-4.942913544068333,3.7548770979820008,-0.6984020309976667,0.0029931482845833744,0.059659420429366644,0.684507386495345,-0.40226522798,-0.20934699114137933,10.719118883395987,1.959837006052969,4.099623040183267,10.678421008672126,running
1970-01-01 00:00:03.000,3.2493035795000003,-7.429415226000001,1.568644762,-0.6956023276000001,-2.6670354605,0.66276928785,0.7789645195,2.177071333,1.8746622205,8.259227006289523,2.8348199016241193,2.9767068637304974,12.055030943815117,5.51096966822016,-5.023123275743549,3.684353474240646,-0.6983117179848388,-0.08313680683749997,0.07911457744293546,0.6876559575955002,-0.316287342614,-0.13988001742,10.639767532521585,1.9880622607488128,4.062192500968175,10.722827780773512,running
1970-01-01 00:00:03.100,3.4731820825,-9.2549891495,-0.6746264100000001,-0.93016770505,-2.1478153465000003,0.175160445275,1.3796047569999998,0.7804389,0.1474313734999999,9.908225811346412,2.3471267336400556,1.591895151089523,12.260311533176402,5.447288806166405,-5.155369084298438,3.5481353528581256,-0.7055572175806251,-0.1476580112019531,0.08211601081268748,0.7099768866085485,-0.2809090767232258,-0.1306119080354839,10.61690685373486,1.999283025526664,3.9825054896817664,10.770874148036102,running
1970-01-01 00:00:03.200,5.4411290885,-13.07468224,10.187292815,0.1411057710000001,3.152659178,0.8675558269999999,1.8458623884999998,-4.295010566499999,12.286567215,17.445175159144803,3.2728922750678477,13.145876070172669,12.440197844152621,5.4471021480553015,-5.395348270834848,3.7493219426200004,-0.6799007633812122,-0.04764839940795452,0.10591721736381815,0.7454733085426564,-0.4063497482787499,0.25742493955937495,10.82382407511092,2.0378772452097302,4.268860820322107,10.821459714585087,running
1970-01-01 00:00:03.300,4.728815555500001,-12.31107235,-2.83160649686,3.482974768,0.4146125915,-0.22036315128000003,2.9777976275,-2.5870361325,-3.6608723405,13.488594971972917,3.51448100777299,5.381637386023248,12.606788773157747,5.425976071803675,-5.598751920222059,3.5557652238117647,-0.5574632477523531,-0.03405248791066174,0.09632073593311763,0.8131195000262122,-0.47243115386121204,0.1386886583454545,10.902199689724508,2.081306767638061,4.302581322313051,10.8739693927784,running
1970-01-01 00:00:03.400,5.641079425499999,-17.357834335,3.30673124665,2.443312705,0.03710901700000013,-1.0253834573499998,3.6179440021,-7.626804828499999,-0.27079689504000004,18.548602681163768,2.6500123184929087,8.445768268945434,12.785019957113006,5.432121881909285,-5.934725703501428,3.548649967321429,-0.4717267919594287,-0.0320193020560714,0.06427204469645713,0.8956143383225,-0.682853908997647,0.1266449655988235,11.120668346622772,2.0975554976624857,4.424439761919886,10.928570837473675,running
1970-01-01 00:00:03.500,1.071834922,-5.3502020240000006,-1.17861473575,-0.2861819416,-0.668648701405,-1.2611705365,-1.5490580795000004,1.1945786475000004,-5.6743667125,5.582349370377986,1.4558647985730806,6.002086026262472,13.001297358431845,5.311002799689582,-5.918488934626389,3.417337058902778,-0.4665727683383334,-0.04970345203798608,0.027454195218777757,0.8257665549561429,-0.6292129788119999,-0.03909822520400006,10.966826152838195,2.079730756021113,4.469515369472531,10.986146574166957,running
1970-01-01 00:00:03.600,4.093222022,0.9557830914200001,8.260173677000001,-0.6393280179999999,0.55365666745,0.8917606769499999,-1.9945781230000001,9.352793695,-1.6507952214999997,9.268142047542963,1.2290293425976333,9.704546184820247,13.269496137768789,5.278089805697972,-5.732697798787298,3.5482245350675683,-0.47124182914000007,-0.03339642178155403,0.05081382986016214,0.747423647235139,-0.3519350156505554,-0.08386758621222228,10.920915771613998,2.056738825928586,4.614932892121079,11.047858724534574,running
1970-01-01 00:00:03.700,0.2854936421500001,-7.570741417000001,-4.46680176,0.29412295671500005,1.21459346615,-1.3805911544999998,-4.195270419,1.2332768438,-7.11247921115,8.79488204502632,1.8621969652978942,8.349169191663961,13.586018132385417,5.14670569613092,-5.781067367687632,3.337302790460527,-0.4511006505648685,-0.0005545826254605044,0.013145277640157878,0.6138373211206758,-0.30909145188162146,-0.27383006256189196,10.864967515651164,2.05161930328041,4.715858197514129,11.114652393162226,running
1970-01-01 00:00:03.800,8.148907186499999,-27.796224595,-3.9282670019999997,-5.6621721979999995,0.294504702,1.374864459,2.360577583,-22.66007614,-8.616549014,29.231251627476993,5.834139122434913,24.35767423434807,13.941839651855007,5.223685221524998,-6.34555857864436,3.1510061291153852,-0.5847178697298718,0.007011040057243611,0.04806115408528204,0.6598041701175001,-0.8972752594636841,-0.49337529812605263,11.335897877492853,2.1486069909510386,5.232748093220287,11.187144374154348,running
1970-01-01 00:00:03.900,-0.2711367605000001,-13.807483672499998,7.587490796999999,-2.372607112,-0.6748335063500001,-0.32779590785,1.2903990735000002,-5.631365299,14.760825397,15.757224917599169,2.48839605497373,15.85116308983007,14.3444452608193,5.086314671974373,-6.532106705990751,3.2619182458125002,-0.6294151007866251,-0.01003507360293748,0.03866472753689999,0.6759732702042309,-1.018662183554359,-0.10224194696897439,11.44643105349551,2.157101717551606,5.505015144415409,11.266076896320973,running
1970-01-01 00:00:04.000,2.4306592314900004,-1.4946167469999998,4.9191945210000005,2.16904231155,-2.2967093585,0.54525752735,-0.6585860255000004,7.572667601,8.01086676085,5.686867174066654,3.2057642143251095,11.043233965116848,14.830366667076103,5.021542588060121,-6.409241097234879,3.302339618378049,-0.5611600419491464,-0.06580761713701218,0.05102064948356096,0.6426092878116252,-0.8038789389405,0.10058577072649996,11.305953885704563,2.1826788516192526,5.643470614932945,11.353010793168659,running
1970-01-01 00:00:04.100,4.525425910999999,-0.27233314499999994,2.14920342,2.330916822,0.9454388918,-0.9835404157,1.204680383,9.8186774275,4.369234322,5.0172423061235,2.7008109297997738,10.814244763783824,15.452804399491571,5.009730286225356,-6.263124241229287,3.2748839946071433,-0.49230106899797627,-0.04173031930517855,0.02638824316966666,0.6563183389137807,-0.5447921982956098,0.2046991500258536,11.156222657619299,2.1950153296711696,5.769587057587844,11.450624926652537,running
1970-01-01 00:00:04.200,10.832756755999998,-40.507646565,5.538038372999999,3.2588700055000004,2.8314297795,-2.6019039155000003,8.055527211000001,-27.60157442,2.8096063135000002,42.29524699290028,5.040548808858141,28.890003751242727,16.245542245380804,5.1451495064526735,-7.059508481316978,3.3275154917790704,-0.4050645323817443,0.025087357411220947,-0.03473483028776746,0.8324899787253573,-1.189001298812381,0.26672074915619043,11.880386014253741,2.261190526861564,6.320073169341532,11.562134631739243,running
1970-01-01 00:00:04.300,5.99177742,-4.122085692,-2.3600709440000003,0.8308286368000001,1.1826002821,-0.54556295275,1.0296757221,-0.2926983835000003,-6.568268299,7.646105019140531,1.5448166837405803,6.654926963087876,17.18000979241325,5.1643910499423855,-6.992748872468865,3.198252163693182,-0.3769760512639774,0.05139446933596593,-0.04634456034372729,0.8370756936875584,-1.168157044967907,0.10776751547813948,11.784152355273896,2.244909303154269,6.327860466870516,11.689813612663652,running
1970-01-01 00:00:04.400,-2.515604377,0.7440183159999999,-6.4048383235,-1.7186187505000001,-0.09155070799999998,1.10784786915,-6.084091425,7.720714330500001,-11.092711925,6.921255853260977,2.0467923301804896,14.821398587582205,18.138557348876702,4.9937244848992215,-6.820820712725112,2.984850152866667,-0.4067903334692223,0.048217909839611134,-0.020695839688311127,0.6797764409901139,-0.9661372409800001,-0.14678883544181823,11.676087988562497,2.240506703754852,6.520895424159419,11.833119029023942,running
1970-01-01 00:00:04.500,-0.15987044574999998,-7.785048606,16.087695122,0.702092528,1.2063471075,-0.17035001515,-0.8320611715000003,4.7856769544999995,20.6823864005,17.87306562108553,1.406138822914954,21.245143843371306,18.92435095995973,4.881689812493804,-6.84178218866587,3.2696946087173915,-0.38268418430684786,0.07339463152788046,-0.02394919132878262,0.6461800496014447,-0.8383191477471112,0.31608172535688883,11.810804893617345,2.2223682715626802,6.848100944586349,11.98727624491385,running
1970-01-01 00:00:04.600,-1.6776677969999998,-14.175978898,-10.874630929,1.13739760975,-4.9332025050000015,0.30198764794999994,-5.833493829,-1.2330570225000002,-17.52910423,17.945209522198272,5.071622700627254,18.515387519031883,19.315914768061315,4.742129012291809,-6.997828927162341,2.9687515121702126,-0.3503420184758511,-0.0331287118025,-0.017014364961148953,0.5053175739796741,-0.8469004058939131,-0.0718570997595653,11.941324141033961,2.2829907062236288,7.101737609248209,12.143204724129754,running
1970-01-01 00:00:04.700,26.34751892,-27.13296318,23.3741376679,-5.6686625479999995,-2.08123293505,2.3755086362,16.7610950465,-22.32617998,-5.647259712,44.46054156085973,6.489091376586977,28.48305043200145,19.150884705629988,5.192241302035729,-7.417310890763125,3.3938637237479163,-0.46114036284093757,-0.07579754978682292,0.03282986422970832,0.8511851797779788,-1.303906354279149,-0.19048268725404263,12.61880783728033,2.3706178035228653,7.556659158668491,12.289198057077677,running
1970-01-01 00:00:04.800,-0.9762716290000002,-5.692524848,6.958926677500001,-1.6982317569999998,0.604891483,0.31069217625,-0.7841072080000004,2.01681590085,6.6510739325,9.043484170468203,1.829320757842158,6.994222969504188,18.400350722363207,5.066353283035,-7.3821111756046935,3.466620110559183,-0.4863871259870408,-0.061905936872806135,0.038500523658693865,0.8171165883659376,-1.2347246406306251,-0.047950257675833406,12.545842048161717,2.3595709250395855,7.5449417380609,12.413915458410035,running
1970-01-01 00:00:04.900,4.092025757,0.44715881350000003,-2.218744755,2.1372018455000004,0.593667171985,0.08200624585,1.1445749998,9.1704843045,1.2189741134999998,4.6762649719923015,2.2196390390916463,9.321680760390326,17.19343403625327,5.0468667325142995,-7.2255257758226,3.3529128132479995,-0.43391534655729996,-0.04879447469565001,0.039370638102519985,0.8237994130890817,-1.0223734376687756,-0.022094658264081704,12.388450506638328,2.3567722873206267,7.5812017181084395,12.5095058299669,running
1970-01-01 00:00:05.000,8.679216383,-7.2678996115375,3.0877881346,2.4728624220000004,3.2429881095,-2.0895557703,4.0477874275,4.3188681585,2.161078453,11.733950628432824,4.582386251036911,6.301385983159032,15.778118507212827,5.118089274680686,-7.226356635346422,3.3477142901372545,-0.37691970403656866,0.015750281857205877,-0.0023730169641960936,0.8882791733773,-0.9155486057454,0.02156880396119993,12.375617175693122,2.4004117768052597,7.5556054034094515,12.573596274618781,running
1970-01-01 00:00:05.100,7.886593819,-35.130375385,3.807280004,2.522341013,-0.5289937407,-1.671278119,6.32927250925,-27.42011261,-0.9945560694000002,36.20548325579651,3.0716785500129764,28.158682636384277,14.438909470982948,5.171329746686826,-7.762972380532067,3.3565520923269228,-0.3211646902474038,0.005274435269567301,-0.034467345849500015,0.9949653172179411,-1.4352459391621568,0.0016447868364705153,12.833883831079724,2.4133207532131005,7.95958730993837,12.609467682241169,running
1970-01-01 00:00:05.200,1.4322538969999998,0.40289152415,-3.3236306905,-1.3198881745,0.6951441987000001,0.7949413359499999,-3.7222690585,7.217570781999999,-7.311791658500002,3.6414548977760393,1.69034374544741,10.927530013427406,13.409070254450336,5.100781145749339,-7.608899476670141,3.2305109077452827,-0.34000852957292454,0.018290845900330182,-0.01881812543818869,0.9042492715310577,-1.2688456176013463,-0.1389982217276924,12.660441775734373,2.3996796775948797,8.016663131159314,12.624554523226246,running
1970-01-01 00:00:05.300,0.8445168730000001,-1.14257282,-2.416302204,0.1856975555,0.307408876705,0.13744062199999996,-3.9463722705,6.9042110445,-6.190453529499999,2.803069342495777,0.38454352701801175,10.077881679463502,12.809982770709741,5.021961436994721,-7.4891526867318055,3.1259402945648143,-0.3302732317012037,0.02364488350782407,-0.015924444930074087,0.8127281103606604,-1.114637001335283,-0.25317662376113215,12.47789784178551,2.362362341473086,8.055554047165053,12.627988379661126,running
1970-01-01 00:00:05.400,-0.669691265,-13.220793725,-5.6699428560000005,-0.56953874235,-1.7088452578,0.98292958735,-1.5271713729999996,-3.89130592355,4.1900358199999985,14.400907092948072,2.0519934375702107,5.918691947216807,12.634930514390923,4.918476842412999,-7.593364341973046,2.966015146372727,-0.33462351371300003,-0.007854937243227278,0.0022365374750181683,0.769396638446574,-1.166056796191111,-0.17089491183962974,12.5128616463521,2.3567192704930333,8.015982526795641,12.628114600292578,running
1970-01-01 00:00:05.500,7.757531344000001,-23.3262825,0.8826525209999998,-4.236073017,0.5063923895,1.8636186719499999,1.2316060065000007,-14.77916288,-2.5785710815000007,24.598248378609732,4.655515268145909,15.05289133725361,12.778075170461333,4.9691742442270534,-7.87430930908067,2.928812242348214,-0.40429225484312503,0.0013280507343303518,0.03547550416207141,0.7778004451384546,-1.413567815896727,-0.21467084219709104,12.728672123713844,2.397769199022549,8.143926323349422,12.630792467617018,running
1970-01-01 00:00:05.600,2.3336001635,-10.5143620975,3.4265221357,-0.91840884075,-1.21879300475,0.9409338531999999,2.6764194964999994,-4.243008613550002,8.0539131155,11.302148202305343,1.7928434687091594,9.488511995456808,13.09279376121718,4.9229361024599125,-7.920626024666974,2.9375439948631574,-0.41331184406956145,-0.02007758181802632,0.051360738355719276,0.8117043567699108,-1.46409354442625,-0.06701755723821441,12.703645388250537,2.3871564669117875,8.167936781779911,12.638897753469655,running
1970-01-01 00:00:05.700,6.3987070345,4.907230734999999,1.9637596015,0.7113316653,0.28602922709,-0.7770740837000001,3.3378033040000004,13.2207284,3.5571162705,8.299440762628038,1.0916270372093064,14.091900740660066,13.45195000086835,4.948380428874396,-7.699456080534785,2.920754608770689,-0.3939214387356035,-0.014799878216163798,0.0370773793547586,0.8560218821599123,-1.2064650892608773,-0.003436262014736962,12.627710825739804,2.3648197526065724,8.271865974040967,12.652915895666183,running
1970-01-01 00:00:05.800,-1.1150553859999999,-1.9936699865000005,2.8818557855,3.3198020460000004,3.7246410845,-0.13003410935150006,-3.4178858995,8.708112955,3.682730675,3.6773851168103597,4.9910866254319775,10.053640160838548,13.784358901794109,4.845610330317204,-7.602747841652839,2.9200953066813553,-0.3309769728926271,0.04858047708411017,0.034244981241093195,0.7823338169588794,-1.0355240884977586,0.06011834034758609,12.476010389995237,2.4093327504510706,8.302586218640924,12.672092895770046,running
1970-01-01 00:00:05.900,2.1480068560000003,-40.618911745,-2.4629622100000006,2.9986492395,-0.910086095,-1.9473047255000002,0.6574451924999999,-27.634360315,0.7026880977750001,40.750166964681384,3.689464684181285,27.65110982877799,14.075892625895765,4.800650272411916,-8.153017240041958,2.830377681403333,-0.27548320268608334,0.03260270088270833,0.001219152795408307,0.7802170606121186,-1.4863518211503388,0.07100935318533887,12.947246332906673,2.4306682826799078,8.63052729677884,12.695489557938808,running
1970-01-01 00:00:06.000,2.6161028447000003,-2.4797120095,-1.20134651655,-0.66895410395,-0.5737382821015001,0.48134765005,-0.6793366670000001,4.3466272355,-5.6799330715,3.799499861420287,1.0041766626191755,7.184448923072698,14.340796435019955,4.7648380194986055,-8.060012236262581,2.7642838420926226,-0.2819335453297541,0.02266268476821311,0.009090111766795056,0.7558911651519167,-1.3891355035394999,-0.024839687226083443,12.79728327599706,2.407283174154322,8.606425990550406,12.722461801825384,running
1970-01-01 00:00:06.100,-0.21969103810000007,2.0008484273,-3.436242938,-2.691545725,-0.40880954270000003,2.012283564,-3.9228287935000004,10.0567450545,-7.113998651499998,3.982389246445557,3.385384582866901,12.928096675375949,14.582198251462954,4.684442389537338,-7.897740290076088,2.6642753456395156,-0.32079825790508065,0.01570345529291935,0.041399683577008045,0.6791908379609016,-1.201498117342131,-0.14105540795188531,12.655107565843004,2.4230590033271056,8.677273050957382,12.752457551013087,running
1970-01-01 00:00:06.200,-1.1606686115000002,-5.021039247499999,3.803541422,3.422119141,-1.7406855819999998,-1.2574290335,-3.5343825825,1.7663075924999996,21.649307253000003,6.405069406300488,4.040051173545949,22.00691271590818,14.767837374506037,4.5916628498383325,-7.8520783687653575,2.682358934153174,-0.261386870620873,-0.012175735775222225,0.02078335473451585,0.6112299763405644,-1.1536302833124192,0.21040205432153225,12.55590061092963,2.4487255457115316,8.892267239101749,12.784447706941547,running
1970-01-01 00:00:06.300,7.223482892200001,-28.297670365,-6.4935222265,-2.950163245,-3.7301387785,2.84059253315,-0.9323847294999998,-15.070321081,-11.2739281675,29.918266729310286,5.539527454432006,18.84370916497566,14.841323062744216,4.632785038000234,-8.171540743706524,2.5389857910179683,-0.3033990014705469,-0.07026890831779688,0.0648428731472578,0.5867281556129365,-1.3745301372439682,0.028111098419603173,12.827187581529328,2.497019325535289,9.05022663475054,12.816586384375963,running
1970-01-01 00:00:06.400,15.7621207215,-15.242579222500002,13.372738003,-3.7305204275,-0.18355956655000003,1.5019207447999998,12.815911295,-10.75146770385,5.3954646585,25.682889103257228,4.025697790213194,17.577049780590617,14.766561955740903,4.804005586977154,-8.280325951072578,2.705658901971538,-0.3561239464863846,-0.07201184152136923,0.0869517634803769,0.7778091421658593,-1.5210447867221875,0.11197599779585937,13.024967604940526,2.5205374557611027,9.183458246404292,12.846586008550808,running
1970-01-01 00:00:06.500,-1.3485051390000002,-0.8146065399500001,2.41136693975,-0.5480064152499999,0.98774003963,1.02744507765,-1.1548867824,7.543550729500001,4.0659377575,2.88040629824301,1.5269527840213801,8.647009363737636,14.575943787567438,4.7107857274926515,-8.167208990297993,2.701199932846969,-0.3590312566191667,-0.05595499483725757,0.10120166217991663,0.748075358711,-1.381589471088,0.1728061787143846,12.871262130596625,2.5054831425529254,9.17520518667096,12.87278839914197,running
1970-01-01 00:00:06.600,1.6190436634,2.3180469275999998,0.7595716712999999,2.7987494470000005,-0.4844019114499999,-0.63467031715,0.5488350989999999,12.88450432,2.4318494795000003,2.9277283115741746,2.9104037675845773,13.123473756172084,14.384741538306105,4.66464032355097,-8.01071263331444,2.672220406555223,-0.3119002013412686,-0.06234972493595522,0.09021849830932087,0.7450565668971969,-1.1654365348593938,0.20703410751416668,12.7228511780739,2.511526733971308,9.235027437724007,12.895354863905615,running
1970-01-01 00:00:06.700,11.079217435,-35.65829134,2.0546867845000003,2.8489153385000003,1.86270231,-2.6734493375,8.725693225,-24.894323349,-1.0982990265000003,37.396317172185896,4.3281993787023145,26.402108211523345,14.35343618931313,4.758972339895809,-8.41729467311864,2.6631390297602935,-0.2654176198730147,-0.03404013618689705,0.04957632425330144,0.8641705468688805,-1.5195990246226865,0.18755152342440298,13.085696266222607,2.538242508158529,9.491252523900116,12.916797236338077,running
1970-01-01 00:00:06.800,4.6607699395,-9.839286327,0.309421897,1.2263522495635,0.046424403799999965,-1.6476078035,0.654749751,-5.4698407625,-1.1246323585000002,10.891743375786039,2.054435820226988,5.622513063153025,14.611188184564543,4.757549116701666,-8.437903247812573,2.629027187256521,-0.24379776669277534,-0.03287398343346376,0.024979452836586924,0.8610908292825734,-1.5776908148855882,0.16825470163139705,13.05389984752063,2.531230817029086,9.434359296536188,12.941353626892084,running
1970-01-01 00:00:06.900,-2.032104671,-0.37642091549999995,-2.356481671,-1.70067513,-0.32855946198,1.3815837947999998,-7.056226730500001,7.066163062999999,-4.9959545135,3.13434968777972,2.2156310613256602,11.166044850621427,15.177583964571294,4.660554062591642,-8.322739214493822,2.5578056321385705,-0.2646103004543071,-0.03709806169841427,0.04435951486463568,0.7463470965321014,-1.4524175702785507,0.09341108981789854,12.912191988095758,2.526722249090466,9.459456188624381,12.973299774573215,running
1970-01-01 00:00:07.000,1.1868400274,0.3524928090000001,-6.231359004500001,2.93244856595,0.8079218564499999,-0.20890975,0.07572531700000029,8.2259180525,4.906486513000001,6.353162635569688,3.0488744811351105,9.578364789061391,15.926600431732535,4.611628512800211,-8.20055284796574,2.434014580918309,-0.2195813023359366,-0.025196372710408442,0.040792342120063343,0.7367667853959284,-1.3141556328102855,0.16216931014907143,12.819811292989757,2.5340765058798267,9.46115488291634,13.014895558476868,running
1970-01-01 00:00:07.100,-2.1924237015,-17.209480164000002,-6.647859335,-1.5830106437,-3.8077163695,0.7172109781999999,-8.3160357475,-7.0324413775,-9.0740857125,18.578669568619684,4.185572629387328,14.175708581918176,16.622414734369798,4.517127787601598,-8.325676838466215,2.3078774431972215,-0.23851782096599303,-0.07773137266581943,0.05018704539895135,0.6092625243692252,-1.394694868650986,0.03208121123852111,12.89979543570684,2.5570139520396533,9.527557047691014,13.064999991475382,running
1970-01-01 00:00:07.200,19.882262705,-26.73919487,30.6700058005,-4.8234026430000005,-0.09277224549999996,2.4693499805,12.627173900999999,-21.213619235,-4.7759181260000005,45.28728484209637,5.419548788619755,25.145030437840255,17.020955907452695,4.727609087839932,-8.577916811500925,2.696399749461643,-0.3013244623637192,-0.07793741201971231,0.08332626368800682,0.7761779601557638,-1.6699577070724998,-0.03469655733423613,13.343459674150532,2.5962267580202028,9.744466400331975,13.119191168406578,running
1970-01-01 00:00:07.300,-0.5753242375000001,-2.7131619455,6.3856957545,-1.2240615784500002,0.17958909265,0.71950173385,-1.6069259050000002,4.845877171650001,7.970014572,6.9619936792418615,1.4311749491412684,9.464981178257622,16.98958698749055,4.655947826686689,-8.498663367365777,2.7462551008810805,-0.31379388285137166,-0.07445732411877026,0.09192322950100673,0.7435327017289725,-1.5806996950352052,0.0749570197799315,13.257223647192308,2.580482814656974,9.740637835646025,13.171493814610415,running
1970-01-01 00:00:07.400,3.1787153485000004,1.9015461802000002,1.00483597825,1.5730080605,0.09376508000000006,-0.47989687325,2.9037321805,11.4694175725,2.8004802465000003,3.837942741288401,1.6472544604828074,12.158202566147668,16.5800427772714,4.6362513936442005,-8.35999390673157,2.7230361792459994,-0.2886365236066867,-0.07221435873052,0.08429896146432664,0.7727245865772296,-1.4043467589874323,0.1117884147356081,13.13163323511359,2.5680397699346518,9.773307629301453,13.216941134112561,running
1970-01-01 00:00:07.500,9.160472634,-12.0883901125,6.082704543999999,3.027740717,3.33179009,-2.59472641365,5.5546453595,0.9861717219999996,4.208258271,16.341442071000007,5.196214411944033,7.038185661839793,16.01315986033781,4.695780620490987,-8.409051751544311,2.767242341940131,-0.244999980967125,-0.027424826510381573,0.049048627581243384,0.8364835302161999,-1.3724731792409333,0.16640801281913334,13.173867561901568,2.6026210152242486,9.736839336401964,13.25373348577342,running
1970-01-01 00:00:07.600,6.942176580499999,-35.934812545,2.145614207,2.628857553,0.279691673815,-1.8362831475,4.20747661603,-30.32657528,-4.1291247605,36.66208161908448,3.218859311022942,30.894234073297895,15.581332567352696,4.724954593997598,-8.766529164446332,2.7591692492785707,-0.20767715585066884,-0.023436300532129865,0.02456379933343503,0.8808387023979605,-1.7534482068825001,0.10988784474914474,13.478909302903944,2.6106241099748813,10.015226109255856,13.28396204527445,running
1970-01-01 00:00:07.700,-1.19177526225,-1.8499509694999998,-2.6569304465,-0.8829033521499999,-0.15584240849999995,0.8124268763500001,-5.559484482,4.801968336,-6.2533278465,3.4499168486796514,1.2098936378626868,9.647324849996384,15.5144351259631,4.649099083020064,-8.677855085023944,2.6897320736916654,-0.2163339019570705,-0.025133814736846147,0.03466460801313458,0.7971981415616233,-1.6683129271048056,0.027248679927727268,13.350332476567733,2.5926660269990838,10.010448170823915,13.312557854001225,running
1970-01-01 00:00:07.800,-0.7667500825000001,3.6635609865,-3.45059979,-0.23968121425,0.184399509825,1.2270394713,-4.781907438999999,12.27855778,-6.459956169500001,5.090797943502242,1.2637547736076955,14.67517133200915,15.870516582412023,4.580544030291962,-8.521634628422374,2.6120063538981,-0.2166294375557152,-0.022481494172772145,0.04975796071296832,0.7256711469390383,-1.4895068923983337,-0.05592061301365386,13.245781406528927,2.5758443655637495,10.070252313916034,13.344937078411487,running
1970-01-01 00:00:07.900,0.9402297734999998,-5.034199834,-0.4866403340000001,1.4724473955,-2.8748762610000003,-1.23543862275,-3.0757980325,1.3761439325,12.578617097,5.144319081306788,3.4582254754654866,13.022131689267628,16.504006467324995,4.535040102082062,-8.478041693492095,2.573273270299374,-0.19551597714251875,-0.05813642875811249,0.03369300341968121,0.6775512839081644,-1.4532328313236713,0.10401024407512657,13.14451312746365,2.5868741294375215,10.107617875629346,13.384425445772909,running
1970-01-01 00:00:08.000,8.68041291161,-35.94079399,-13.459178925,-5.0438421964,0.28129516545,3.4493018389999994,2.1105861655,-20.949414255,-9.209539414999998,39.34767767331167,6.1169562895953,22.981474013344656,17.13293058119014,4.586217544175001,-8.81708801814034,2.375341761715431,-0.2553718563926111,-0.053945915249370355,0.0758610137354876,0.6954642199280625,-1.6969350991196255,-0.012409126663312486,13.468008986054366,2.630455390674037,10.268541077350786,13.430703286950898,running
1970-01-01 00:00:08.100,10.43764215855,-10.007980825499999,21.1643674355,-1.7012096343,-1.109298587,0.7487460485899999,13.34941124835,-8.76660823725,33.8469533925,25.632684271811424,2.1645503505888875,37.42561228112454,17.47826717876323,4.65757638093567,-8.831611101156922,2.6044762211518284,-0.27300402441587196,-0.06681606978291461,0.08406692879468898,0.8516857881801851,-1.7842150144051858,0.40560769456092594,13.616358684661162,2.624773621892511,10.603813561347994,13.4800638222169,running
1970-01-01 00:00:08.200,1.0504490139999998,2.1337996720000003,7.3313096125,1.08341398815,0.5874059796500001,0.391553089,-0.20026731500000008,10.0271165395,9.2207274415,7.707440872661676,1.2931146415353538,13.62369214437125,17.406349082100682,4.614117015068976,-8.699497718347802,2.6614260210475895,-0.25666163872230724,-0.058933876416252994,0.08777158132728309,0.838857091799939,-1.6401743856990252,0.5131091548894513,13.545166903793698,2.608729537791822,10.64064134894584,13.527368463902247,running
1970-01-01 00:00:08.300,3.3031420710000003,2.1768703907,3.306880951,3.1628142594999997,0.27060544499999994,-0.7338566489600001,1.522933364,11.58309078,1.865698456595,5.156061856029581,3.2580925291008818,11.830813529924571,16.999362075318725,4.598510170496726,-8.570017145621042,2.6691100083089276,-0.21595359231489886,-0.0550107892565357,0.07799029287148211,0.84709897459753,-1.4808579379195188,0.5294054115365061,13.445296605606028,2.6164600495931203,10.654980772813053,13.568701721181014,running
1970-01-01 00:00:08.400,14.328072545,-39.001662255,2.24491633495,2.908014655,1.0449305775000002,-4.2383636235000015,11.908296585,-28.47866583,-2.8524084089499997,41.61085159977863,5.245203080005322,30.99964788097731,16.516338594069648,4.712975610196764,-8.928036499849032,2.664119494504705,-0.17920102469942945,-0.042070302588811746,0.02720965856122936,0.9787798985308928,-1.802260412825239,0.48914572319738103,13.776656076125708,2.647386438186205,10.89717919076739,13.603379802038527,running
1970-01-01 00:00:08.500,3.364308715,-7.415207773250001,-1.1126624944,-0.389796883,1.5911807121,-0.28259322045,-1.6298270224999998,-3.6379568555000006,-4.3939778805000005,8.218387754099743,1.6624249146352088,5.932799324102741,16.263391539213725,4.6972934369968025,-8.910445468144392,2.620203424866278,-0.1816498137494361,-0.023079011720337193,0.023607299502959252,0.948090405342294,-1.823856841562589,0.4316972102127059,13.712025049125405,2.635933397214682,10.838774721747805,13.634310171075446,running
1970-01-01 00:00:08.600,-2.1888344880000004,1.2743276061,-4.276572227,-2.0913882255000003,-0.008628211950000006,1.823302746,-6.752108335499999,9.0020318025,-7.598997831,4.970309575496734,2.7746012433091414,13.578376618104707,16.436435792029624,4.618142541307184,-8.79337911096917,2.5409301415114935,-0.20360082997645407,-0.022912910573551708,0.0442934540603965,0.8585532106813372,-1.697974415468838,0.3383170353148838,13.611545560922776,2.6375272805031242,10.870630557751955,13.666518511546185,running
1970-01-01 00:00:08.700,2.194816649,-5.4722356805,1.5255739685,2.9033570290000004,-0.16836476300000006,-1.249106288,0.8444967269999997,4.6112098675,19.24934292,6.090152658105519,3.1651374772645964,19.811956844688442,17.014735337327377,4.59060474707642,-8.755638844713838,2.529392003181817,-0.16829449066990346,-0.024565772532943165,0.02959572971880109,0.8583916419033909,-1.6254550558944836,0.5556851489319541,13.526075187027125,2.6435228509208684,10.97340442311904,13.704566430020973,running
1970-01-01 00:00:08.800,-3.2614173295,-17.706140042999998,-6.410820246,-1.15809005515,-2.8493734595999998,2.226156527405,-10.33433247,-9.203751564500001,-12.81244612,19.111327909018105,3.7968242746561356,18.85911572792944,17.762562505953824,4.502379779923877,-8.856206273908064,2.4289401801573027,-0.1794157891472079,-0.056305184747179764,0.05427618811976962,0.731201595177216,-1.7115720616740917,0.4037745663304545,13.588830835588823,2.6564812938841857,11.063014778855523,13.750161891548307,running
1970-01-01 00:00:08.900,27.44537735,-28.308438305,29.271997330999998,-4.3781712354,-2.5451714099,1.46458263675,18.804694175999998,-24.403611185000006,0.8067522050000001,49.1066822835544,5.271743845458151,30.81888400058993,18.34250074472633,4.7573019751469445,-9.072342185364642,2.7271963707222215,-0.2260686274389056,-0.08395925391554443,0.06994625977121663,0.9342745455235393,-1.966538793396855,0.408302404967191,13.983473629455107,2.6855397666794523,11.284990837526696,13.801187878805841,running
1970-01-01 00:00:09.000,0.3644567730000001,-0.8397312165000006,9.914511204,-1.15014897285,1.6737214329,1.17045971765,0.32553935049999994,6.02299022575,7.924412965499999,9.956681659548611,2.3439628933364234,9.95885073570181,18.48199344666107,4.709028950947528,-8.981873932959536,2.806177852406593,-0.2362233565093572,-0.06464408153295603,0.08203981425340105,0.9275108211343888,-1.8777662487396678,0.49181474452866664,13.939223168247343,2.6817861746646936,11.27025594750642,13.852625302628427,running
1970-01-01 00:00:09.100,4.009473443,2.901148021,1.8967606282775,2.7829437255,0.22135578095000008,-0.37536565399,2.424557328,12.01578474,4.0170285705,5.300022453806979,2.8168552563550624,12.899382918999986,18.104446435463437,4.701425086730707,-8.852710650851279,2.796292882579103,-0.20340632300925549,-0.0615353873755326,0.077068015685538,0.9439618816493955,-1.7250898642480228,0.5305533580008791,13.845318812655602,2.6832543168569805,11.288158441698657,13.898840749724458,running
1970-01-01 00:00:09.200,8.195566953,-12.563664796,6.732655407,3.489617586,2.340919495,-2.739039183,4.47899109135,-0.032649039999999914,5.6495454315,16.44206920119125,5.015941648843299,7.209701154610232,17.359338164914313,4.738996504647581,-8.892613383594814,2.8386193613363164,-0.16369638850377963,-0.035702539177946226,0.04678729311902684,0.9823861121896195,-1.7066937683322834,0.586194576191087,13.873240859844158,2.7083369763407044,11.243827384230304,13.936050399350156,running
1970-01-01 00:00:09.300,7.358677270499999,-37.07080555,-0.20413768289999998,3.2277933360000004,1.1951227189999998,-3.8146648405000003,5.124779226999999,-34.24443245,-3.8123146295,37.794661362299095,5.13796029361291,34.83501483826874,16.543754141191584,4.766865448965159,-9.192381385365083,2.806249605546568,-0.12761671058352667,-0.022608653452648928,0.005708015101803145,1.0269279736391936,-2.056561926199678,0.5388987782804301,14.127724056678785,2.73418403290743,11.497496066531793,13.963791928518683,running
1970-01-01 00:00:09.400,-0.005383849000000218,1.4238789676,-2.29067901535,-1.23192617305,1.2794959545,0.30389651654999994,-5.1278645995000005,8.014406204,-6.167159319,2.6971597378665844,1.801972554230144,11.338410656677043,15.961397470363245,4.716631245828684,-9.080631276386503,2.7525977253266043,-0.1392410207147527,-0.008902289158410516,0.008846841432836795,0.9614514569036702,-1.9494239673677667,0.4675577346923404,14.007402327007076,2.724371280500301,11.495803668554617,13.98481935527494,running
1970-01-01 00:00:09.500,-1.3520942926,3.294916749,-2.204387784,-1.6104988454,-1.7414492365,2.0191556215,-5.6809380055,11.5259594915,-5.563102960499999,4.188551164922145,3.115018683439349,14.00246097552702,15.789875961394474,4.653415354803386,-8.951719317788728,2.7009624596044524,-0.15456662305522403,-0.02694965319321874,0.029787557891869747,0.8915315678257368,-1.8075778256954744,0.404077095795579,13.905122627402024,2.728440524280916,11.5221895349438,14.003622028255352,running
1970-01-01 00:00:09.600,4.372135803,-5.5417773725,0.20518469800000005,2.5024885236000003,-0.9861365554999996,-1.14747661355,-1.2092106345,3.3286576269999997,11.12338257,7.061796420636949,2.9243147394709905,11.673550948830993,16.019645586145508,4.6505155656095365,-8.916565277115646,2.6752327919590453,-0.12717430195568563,-0.036838177959268026,0.017650813856386553,0.8696488365515105,-1.7540753730632297,0.5157365278185417,13.834572872693107,2.7304598460869993,11.523766216338458,14.02440577627484,running
1970-01-01 00:00:09.700,6.84048163715,-33.61018467,-4.06346149765,-1.18870879699,-3.13234841825,2.52432623485,-0.3281438350000001,-24.43221569,-8.756195068,34.53908542394505,4.194860922284155,25.955958737214818,16.492056393686443,4.672862158176276,-9.168540985206302,2.6064706053303817,-0.1380062865988929,-0.06842501714590815,0.04322913447877036,0.8573004584942784,-1.9878706340625778,0.4201496041503094,14.045843408930372,2.74540271421146,11.6725517062444,14.049585884615773,running
1970-01-01 00:00:09.800,21.1284742345,-15.62453413,22.071695088000002,-4.22484855355,-0.649788796815,2.015490616475,16.0896580235,-9.441615103499998,-0.9987068175,34.317607934049086,4.72586216536185,18.682039674059634,17.010405800182834,4.839080461977526,-9.233753037173917,2.8030890344482566,-0.17928752161860106,-0.07429737855670705,0.06315096763024744,1.0127326785453572,-2.0639292510976537,0.4056714773987756,14.250608707163895,2.765407355132171,11.744077093671086,14.079493156490187,running
1970-01-01 00:00:09.900,0.1561317445000001,0.20772689599999994,4.32427927875,-0.6275692284000001,1.6626499295,0.6393280329,0.34085392949999993,7.6271498205,5.2565300465,4.332080200733711,1.8886472031993455,9.269342151165102,17.455080952193953,4.79225097480275,-9.139338237842177,2.818300936891274,-0.18377033868641504,-0.05692790547613999,0.06891273828294496,1.0059460245145961,-1.9660395635057581,0.45467004880383843,14.151423422099594,2.7566397536128426,11.71907977101951,14.113249034447227,running
1970-01-01 00:00:10.000,1.3100704253,1.60827583085,2.4819552894999997,2.9637544755,0.3943019062000001,0.03451287750000001,-1.373613715045,10.711036204500001,4.5726742745,3.234646460808199,2.9900678458845316,11.726997110639347,17.833494753912717,4.7762340185357495,-9.159952404693678,2.764803405476274,-0.15614858993741504,-0.049335074073139994,0.07640477987094496,0.9821504271190001,-1.8392688058257005,0.4958500910608001,14.092511636860463,2.778266199393128,11.719158944415708,14.200231687629023,running
1970-01-01 00:00:10.100,16.438541885,-36.54782295,2.6496024730000003,3.4741173985000002,2.5576175450000003,-3.8455889225,11.145404575,-18.936708928399998,1.26998925215,40.16203947702822,5.779226017894347,22.009812831552015,18.240197845441394,4.91067475765075,-9.566075718578677,2.716178256351274,-0.12259398673841504,-0.018640762217139988,0.04143759207894496,1.0939932560855001,-2.0306029246812005,0.5111366535053,14.403622929931254,2.8297517719954413,11.935984272857246,14.29442947917891,running
1970-01-01 00:00:10.200,5.044967413,-10.115658163500001,0.39556348325,1.0982270245000003,-0.023059487000000045,-0.8757258803,0.498262167,-9.7584075935,-1.6395590305,11.310822549589265,1.4048238874357304,9.907721118523476,18.7594443301894,4.92805562346575,-9.704095227888677,2.6538123250787744,-0.11152696144526505,0.00027870511286001156,0.034406740311944954,1.1048592460095001,-2.1247581063350007,0.49853936203595006,14.433960558892108,2.8245721002465403,12.027264150392526,14.395190231621164,running
1970-01-01 00:00:10.300,-2.27632212615,1.350897908,-4.093371868,-2.24272573,1.26857708405,1.6898325685,-6.297840357,9.223434447999999,-7.7421991825,4.874654944667637,3.081337473848676,13.589561595589263,19.37445215225954,4.849469345509251,-9.726563832933678,2.544952352123774,-0.12483732369576504,0.024905012748860013,0.05049492983519495,1.0327503669190001,-2.0352499531375003,0.42027844198830006,14.387709338690879,2.840340525170925,12.153594124566393,14.5003697055917,running
1970-01-01 00:00:10.400,1.76620233065,-2.0355441570000004,19.901405812,1.419303596,0.52036550645,-0.123314798,-3.4501971005,9.9103221875,5.2705683715000005,20.083049170427227,1.5167100900723502,11.742965419816647,19.940916950200943,4.820644807515751,-9.765215395268678,2.6675785399287744,-0.08432364193076504,0.032637575471360016,0.05343692297369495,1.0002118670865001,-1.9312786858135007,0.4703549648223,14.497266312068053,2.8287381738379116,12.2651530400992,14.606065524135932,running
1970-01-01 00:00:10.500,-5.717799187000001,-17.078921229549998,-13.06047487,1.125257015,-4.249588132,-0.18821734200000007,-9.3397650695,-1.330761671,-15.599185940000002,22.24766913044899,4.400071409565021,18.230105325234653,20.24469953814952,4.73534217685075,-9.907030516748678,2.469203074083774,-0.05686453071576504,-0.00590383340453999,0.048014126291194954,0.9341411125815,-1.9079135196285009,0.32060766232730004,14.6408547067229,2.8556852713467604,12.401295164079059,14.70706786277662,running
1970-01-01 00:00:10.600,31.25923729,-37.426439285,-2.521586418,-5.1358511445,-3.4272349475,4.632741928,19.247853042,-27.098599435,-11.4006595635,48.82864601409464,7.719145298235838,35.139564262350135,20.113568267893083,4.99077001661575,-10.225434464098678,2.386822676763774,-0.07964455333576503,-0.03695167301811499,0.07962470757119494,1.12132994058755,-2.141646428603501,0.22199091206730004,15.030876437336335,2.9005701799752996,12.712038369355561,14.798196314643244,running
1970-01-01 00:00:10.700,1.679911077,-3.1188947261,5.627918481,-1.9729602935,1.9798322915,0.9700254647,6.7693737465,5.9089617725,3.6877548705,6.650043004966437,2.958590479326295,9.712867039837736,19.517825025685873,4.91657606394575,-10.197567053024677,2.355543992623774,-0.07470127252076504,-0.01931498585961499,0.08105409028319494,1.1482269546825499,-2.066254854703001,0.23331969988230003,14.957971804819918,2.9040441873987817,12.758345139003469,14.876098724753547,running
1970-01-01 00:00:10.800,4.228566289,2.6962624789999996,4.056133476709,1.5612492563,0.66811421525,-0.66223477585,3.2212764025,13.15383291,6.618972062999999,6.4500250384793,1.8227536156215756,15.073510973103675,18.599978901298872,4.84956506638575,-10.134949875059679,2.297141175055864,-0.047690370352265046,-0.0022379869086149905,0.06974348994169494,1.1253965983225498,-1.958732013038001,0.24964858543730004,14.870778579422076,2.906147912206818,12.831025193723091,14.94066975813977,running
1970-01-01 00:00:10.900,5.2076792105,-6.969694257,0.9222836495000001,3.5680351260000003,2.8419668675,-2.0193846522000003,0.6115674974999998,4.984021664,3.1049456002499998,8.74912383760041,4.988543345494606,5.9038270580811885,17.61828695150724,4.81538957442075,-10.183500247184678,2.217741339010864,-0.013787584571765042,0.04099243701638502,0.05290014051254494,1.1073314676145498,-1.944492315578001,0.2390035409948,14.832808221933012,2.9407446556956978,12.830142352025153,14.995341693782903,running
1970-01-01 00:00:11.000,13.400255203499999,-42.066122055,6.840481996,3.384552002,0.2935121060000001,-3.3632487060000003,10.63925934,-30.43496132,7.527297733999999,44.67569426659967,4.780458499874404,33.10801898377423,16.83961293446107,4.88522559727575,-10.56118188518468,2.228443240920864,0.019368441620734957,0.05083089561488501,0.02968947105504494,1.2231422886850498,-2.2573626821635013,0.2961242670948,15.18315865685879,2.9760294262769516,13.139068299023428,15.046058497699892,running
1970-01-01 00:00:11.100,0.3475575450000001,0.7619644401000001,-3.406332612,-1.7145718934999998,2.2722754475,0.97132351995,-4.415000319000001,6.7497577675,-7.234006405,3.5077753517917984,3.0077336763250098,10.834311533469846,16.438581572679766,4.79742096986075,-10.52339024323868,2.1483240614358636,0.003771220436734959,0.07633987718188502,0.04860817455154494,1.1777991578628997,-2.192564786010001,0.2202530689148,15.111636379888395,2.9963650202156287,13.242809160333392,15.099373475396218,running
1970-01-01 00:00:11.200,-3.9127135275,4.143621087,-6.913612604000001,-1.32057544605,-2.2529574635,1.4290771783,-7.819001912999999,11.4597563755,-9.8879985815,8.959741184827841,2.9769108858997444,17.036294287463356,16.447420214639937,4.69673697557075,-10.442792499253681,2.056451633376364,0.00225479154623496,0.04194917552838502,0.07081934445154493,1.1180936787178999,-2.071250738423501,0.1374539668398,15.124815129112733,3.0076934302602587,13.38776769029658,15.160448233703317,running
1970-01-01 00:00:11.300,1.7171493765,-2.34556442485,10.402796744500002,2.8658663035000003,-1.1145672800000002,-0.98896172635,-1.7851359845,7.222496986,11.319991115,10.801317260395424,3.2300921329535672,13.545972539453002,16.772884501660602,4.63437104668075,-10.43867385346218,2.1035543517213635,0.03091345458123496,0.02581746198738502,0.06205215905479493,1.1032379624886,-2.014512981103501,0.22983222080479998,15.13120632053689,3.034883534085089,13.497105221279824,15.231701053612994,running
1970-01-01 00:00:11.400,4.4822053895,-27.681218145,-7.578069209000001,-4.195833564,-1.03966200375,2.8750290571500003,-2.949798584,-17.333586452604994,-10.6699290275,29.04767006286621,5.191503487265248,20.567010391595247,17.267808064570914,4.57944978202575,-10.669045835297181,1.9731350497463638,-0.00991252296926504,0.021478156077385017,0.09177064251629494,1.0496563622985997,-2.176735312849551,0.11071849657129997,15.298838406200902,3.0805607258405803,13.67348967578311,15.312567180594055,running
1970-01-01 00:00:11.500,20.522791863,-26.892335414,-3.5331518635,-2.656269312,-1.9692952035,1.879958749,19.51779175,-15.578227044,-2.3058359625000007,34.01273073367752,3.8037001924892433,25.078720703352065,17.81961565126512,4.70491296019075,-10.878432770522181,1.9175079086148636,-0.02375050419626504,-0.004448492299114981,0.10949132109719495,1.2442176530593498,-2.3138041876945508,0.11163952780679998,15.537383671368838,3.1043871223148938,13.893853493964118,15.400400149987101,running
1970-01-01 00:00:11.600,2.3994028565,2.68788749,3.6071801485000003,0.3651339712,1.21085194485,0.315960765,2.1956524845,10.28234196,7.2433347700000015,5.098394046208212,1.303578326872112,12.767667939187588,18.406224326982997,4.65071104015075,-10.820006025582181,1.9377018368003636,0.0009888104257349583,0.01621647037888502,0.11274026515769493,1.27320939041935,-2.212199697389551,0.2142552633368,15.502565622676755,3.0946649753715176,13.99051474914677,15.492073508198041,running
1970-01-01 00:00:11.700,1.7913268804,1.4454143645,4.150799513,3.244973302,1.1593881247000002,-0.72660282255,0.367410898,11.0013361,3.42890250675,4.7462839437466835,3.5216451008194727,11.529169924757324,19.084960459525185,4.59343284929975,-10.763770206122182,1.9612965637253637,0.04603726840473496,0.03944164671138502,0.08792154106219495,1.27484817721085,-2.110473186841551,0.2404860146123,15.462162944322863,3.105343455227573,14.094069745137823,15.585526183864218,running
1970-01-01 00:00:11.800,17.00220108,-40.99473333500001,1.4189437927500002,3.675238967,0.3102340700000001,-4.9378601315,14.415329932999999,-19.2288913738,2.7936140295,44.40333776034745,6.1632855946322325,24.194137304075653,19.91952926664534,4.68893338764475,-11.135070463582181,1.964012417477864,0.09078946641623496,0.026542843361385016,0.017314470436194957,1.4210400865208501,-2.341024203184551,0.2631887997473,15.82146917476836,3.139215161095095,14.2973390037725,15.680514960791797,running
1970-01-01 00:00:11.900,4.828267336000001,-9.071789263,-0.8063812254,-0.76623147735,4.055567622,0.17348062990000002,0.9226486684999999,-9.6945438395,-2.8817248345,10.308238286964665,4.130960535087112,10.155776624327963,20.888820400561197,4.6815590056247505,-11.154377554802181,1.959570740595864,0.09389791599123494,0.07956438489738502,0.010540174420694957,1.43028547026235,-2.4389683936995508,0.24762477708579997,15.833940685021949,3.161982598694428,14.385605951609309,15.778208953119442,running
1970-01-01 00:00:12.000,-1.3867902755,3.49486702675,-9.791280747,-2.4183443785,-0.6581879260000001,0.8682430385000001,-6.0203385355000005,9.960768222999999,-13.18951416,10.488396515648072,2.6524416775602147,17.590470813801243,21.834908982416543,4.60515169049975,-11.020976197254681,1.837161411175864,0.07994311011238495,0.10166865654738501,-0.00793642861430504,1.3532895193223502,-2.343857455149551,0.09429101122579997,15.819643320600825,3.147700969548438,14.533909471859632,15.879820095723993,running
1970-01-01 00:00:12.100,1.5243775844999998,-5.574080466500001,21.1069388375,1.709226966,-0.16607410089500002,-0.9869000910500001,-4.334466934,7.16355061745,4.14126492,21.883714656271426,1.9806587838404035,9.340992248595983,22.49023604022043,4.57007889176975,-10.928575856219682,2.022847437975864,0.06863403595238493,0.080589845218435,-0.017067067935015043,1.28066987134235,-2.2099745916100506,0.07508558290579997,15.879981660319082,3.133094726007085,14.535633467423738,15.984978227325428,running
1970-01-01 00:00:12.200,-4.45364123575,-13.7594776175,-13.7666564,-0.05489987099999993,-5.627125025,0.9292514325,-8.5995008925,-1.9527060990000005,-19.6651268,19.96694701247332,5.70360046528685,21.55183724811549,22.584140496203823,4.43709926690725,-10.913254310644682,1.939916690695864,0.05424018427488493,0.011094515358435008,-0.0006543654335150417,1.13456157544235,-2.164902329330051,-0.04602579575920001,15.894714349548938,3.1697039513031364,14.634992661539064,16.09079028254895,running
1970-01-01 00:00:12.300,35.93600845,-36.47349548,29.541339399,-3.9644749908,-1.26552285975,3.785496831,19.418219565,-32.57541466,-10.21864736,59.11347823749641,5.625708517043833,39.27652791698277,21.982371131748778,4.7829742999975,-11.18613329125968,2.242447238095864,-0.0008269318931150682,-0.024705714770564987,0.03841771605083496,1.3372715351758502,-2.4828583549550505,-0.1258143220492,16.392736187186554,3.198121822378527,15.00255473665254,16.192276363017953,running
1970-01-01 00:00:12.400,3.1165019275,0.8409276010000002,2.8627132775,-1.528950691,0.6517740488,1.693879485,2.44642544,8.995297907000001,9.8909966955,4.314495428599922,2.3731260682699493,13.59162232772636,20.78470475281562,4.789212088797499,-11.14349468661468,2.290424829250864,-0.009952226427115067,-0.03501376230256499,0.06450394841183496,1.3522162781148503,-2.4433793472500507,0.03673230309579997,16.389325218138644,3.2017339312468964,15.056691578974688,16.28416782544691,running
1970-01-01 00:00:12.500,3.05668142425,1.5112170874500002,1.1940184829,1.00759255875,0.3059581517000001,-0.07689040899999999,2.5966693759,10.82969141,4.972790122,3.612860162290078,1.0558244598588535,12.196456431317477,19.319680411330474,4.819774416448999,-11.07661529286018,2.2697523374598645,0.005852682890384934,-0.052137337515564985,0.07206089230533495,1.3930443123983505,-2.3712072633950503,0.11256523032579999,16.364270226689893,3.189720051115839,15.131673857419699,16.363242838565238,running
1970-01-01 00:00:12.600,10.24965566505,-12.103943944500001,2.7693930864999996,3.7740434410000003,1.4697748425,-1.17473562075,5.4041535860000005,0.5403671265000001,1.2254276869999998,16.100634718272563,4.217066013339122,5.567633754885885,18.02981738310422,4.865489292514499,-11.083868540350181,2.1823215896748644,0.03893617034338494,-0.04452999893506499,0.07537092106783495,1.4201068131183507,-2.3387499689300504,0.07050744493079998,16.35373897343486,3.214608179349706,15.120945624547462,16.429984344501516,running
1970-01-01 00:00:12.700,10.3945710655,-38.966817855,0.8036893009999999,3.5319951769999998,0.575418115,-4.6802353860000006,9.335452081,-31.183847425,-0.05799066999999991,40.337400980641014,5.891578668386597,32.551288280191514,17.299792894286902,4.966234603294499,-11.355609444210181,2.2800609154488645,0.08742064416338494,-0.046941318546065,0.02904044674983495,1.5384433869683507,-2.6148573898300502,0.1608583481908,16.608911731158333,3.2580254914704097,15.345615940208436,16.488646381693638,running
1970-01-01 00:00:12.800,-0.506979346,1.4190933706,-3.7115670888,-1.6279079319500005,3.0927959680000003,0.1048366723,-5.6661241055,7.149559021,-8.7886772175,4.0058188059889535,3.4966357920781115,12.66735978043942,17.305495531493893,4.912176250591999,-11.195958825204182,2.2509238124507642,0.09232498466388493,-0.018155905657464996,0.027356035578834943,1.4492603973683509,-2.5000268863650503,0.09235798076829999,16.495275233136354,3.2715256933067485,15.414744672694798,16.54561504576235,running
1970-01-01 00:00:12.900,-2.6724838015,5.4447183610000005,-5.078467011500001,-2.3923832175,-2.6912403705,1.4154858291999999,-7.768490314499999,13.000062465,-8.9040942205,7.910622913954638,3.869091924967749,17.567981094819167,17.94648956122522,4.884117414132,-11.074638231844181,2.156559860765764,0.09351613699888495,-0.046387739385465,0.04220725977863494,1.3867141894643507,-2.3983228587200505,-0.0203322736917,16.494550476652524,3.2850573544592425,15.550560120286757,16.606782324789357,running
1970-01-01 00:00:13.000,4.5288652776000005,-6.620342074500001,16.651503565499993,1.74404525775,0.4208736419999997,-0.5816793215999999,-2.2952240705,5.203351736,-5.3660969755000005,18.48275198334666,1.8860485987343074,7.819074086668258,18.887059167332087,4.896913031112999,-11.066547500329182,2.307388448800764,0.11791261285238494,-0.015508648360464995,0.02976277368413494,1.3559723035643507,-2.36806005469005,-0.0927398656517,16.596785726423093,3.275569641430344,15.598983792516135,16.675102607024527,running
1970-01-01 00:00:13.100,1.7878870965,-29.50066185,-8.498408793,0.03863608849999989,-3.080655456,1.191992044,-5.12286877655,-16.513935565,-9.286476137000001,30.752374572881624,3.30344907920138,19.626321392196584,19.68895543741482,4.880060081252999,-11.26900422733418,2.229150624970764,0.12760065078788496,-0.02483704945546499,0.039931089671384944,1.2909475682288505,-2.54100379934005,-0.18707894075669998,16.805227214038442,3.2851328648859575,15.779328054927205,16.74938904606691,running
1970-01-01 00:00:13.200,21.709033015000006,-24.0242376335,-10.4615704995,-4.32082830345,-1.2010020313999998,3.157087624,17.829746245,-12.119835376700001,-4.7906057835,34.02779107778298,5.4844475904994745,22.084840150933946,19.982048501574464,5.042739120517999,-11.37849978126918,2.022661991825764,0.08298131004338495,-0.06837366154946499,0.06282640764138493,1.4507864067938505,-2.61925204744205,-0.35785067074169996,16.971053373224823,3.3072484180402735,15.86871769573482,16.824807552641126,running
1970-01-01 00:00:13.300,2.95603323,2.0283658505,7.0785677435,-1.0011022872050002,0.37948888545,1.60759726185,0.5359997750000001,12.35565233,11.1649122225,7.934640620699686,1.9314726402242366,16.661473680163,19.60183557960306,5.025011297262999,-11.235105399264182,2.121763734229364,0.038140539491334946,-0.06872489860996499,0.08110601177268494,1.4263684282688505,-2.4698251628170502,-0.20959282511169997,16.915513829712093,3.291418334364786,15.981516058676219,16.894758020705577,running
1970-01-01 00:00:13.400,1.0239785314999998,0.3261716364999998,4.324129701,1.5707173643,0.8632035855000002,-0.30939413235,1.0215955975,9.2602100355,5.8662831785,4.455672523929506,1.8187903116264406,11.00946982359997,18.639256774027505,4.978840288323,-11.058265339549182,2.131937718772864,0.02941458608433495,-0.06046395292496499,0.08826590502268493,1.4004049442228506,-2.3009550141770503,-0.14822202437629994,16.774584528139748,3.2831061142961215,16.007153074222764,16.95330038887472,running
1970-01-01 00:00:13.500,12.4319100375,-20.8710969675,7.538288831799999,3.3573693035,3.5359656809999995,-3.2524561285000004,8.228058459,-7.489233732000001,8.5183213935,25.43581872712026,5.8611818607778305,14.012543211715991,17.391359569620864,5.092441039478,-11.213474288984182,2.219106754448364,0.06585009853533495,-0.018417809100914992,0.06835304910268493,1.498176109607851,-2.38779313797205,-0.006295143316299941,16.97311922170717,3.327159284918169,16.0872576460773,16.99720101098661,running
1970-01-01 00:00:13.600,6.9267728325,-31.42793083,2.6460130214999995,3.353322327,-0.16469970350000002,-2.0435895325,2.3091175555000003,-31.72303486,-1.0302593705,32.29080988514026,3.930414074678805,31.823645281211835,16.243010370236206,5.1207765475830005,-11.537311428198382,2.162965147893364,0.10577660198533495,-0.02560137281041499,0.03899954700818492,1.5412130663928507,-2.79855142352205,-8.978480629994401e-05,17.203345900083143,3.354173132238981,16.308448637041217,17.026936153311283,running
1970-01-01 00:00:13.700,-0.7966603634999999,3.8119159939999996,-4.6404308080000005,-1.8438424465,1.97990863025,0.52975729456,-4.9718425275,10.4396762865,-9.1376185395,6.057967428430141,2.756888815819939,14.737779061262321,15.528914756798914,5.1099550075265,-11.423484854088382,2.1612288574133642,0.08439694795318495,-0.01794822116941499,0.05810303149878491,1.5334473453078508,-2.7064874290950502,-0.02034117808979995,17.175976753917183,3.3631200507442016,16.372334735737198,17.046365119555418,running
1970-01-01 00:00:13.800,-2.0500508545,3.463610768,-3.94486731295,-1.1981769502,-1.3100382874,-0.31878590585,-6.718080520500001,12.04713583,-7.3803336605,5.635715231895867,1.803733010235468,15.644021622546443,15.424173665795037,5.0079654271165,-11.110886500458383,2.161062854303864,0.12903690043118496,-0.033993651063414995,0.04116652785028491,1.4426607642728506,-2.3594153093950503,-0.007979024554799955,16.94002138996137,3.322815989622207,16.285198209619185,17.06118845969482,running
1970-01-01 00:00:13.900,1.3425230980000002,-3.7389347535,-0.8243274094999999,2.385587692,-1.016449928,-0.77638685705,0.917638302,-0.8201718349999991,1.9079222669999998,4.0572795118954526,2.7068386808513485,2.270442527160537,15.900646874131604,5.0241020257015,-11.010201011268382,2.0769446722388643,0.17661884847118492,-0.03740981527991499,0.036680618358284914,1.4389331565578507,-2.31130337475505,-0.13650805585479994,16.823021935904336,3.325000415880983,16.149391003992488,17.076750475827943,running
1970-01-01 00:00:14.000,4.5984070285000005,-35.05245781,-7.960921123479999,-3.103562176,-2.475687623,3.4582354425,-2.4557745455,-23.26231003,-9.300945163,36.23805197380039,5.265027992588113,25.172871855934464,16.764403810480555,5.0457795036716,-11.345779421898383,1.948143515794064,0.12389280359568491,-0.039199597924915,0.06581039750978493,1.4209612713578508,-2.61965315106505,-0.3096261750932999,17.12853378390167,3.3455930536636136,16.290687382900668,17.096090847261987,running
1970-01-01 00:00:14.100,19.44183445,-23.965464115,-6.755536320499999,-3.7154784794999998,-1.9055380225,1.765883088,17.098748682,-13.451025485499999,-6.472843170499999,31.590594613051433,4.533673848801351,22.69790721215627,17.75428586056796,5.194943589061601,-11.582710731598384,1.8590961183890642,0.06342885058068493,-0.06770936706791501,0.09330463254678494,1.5799019543478507,-2.85235018019505,-0.4180469500182999,17.39426730697095,3.363921682853629,16.40952400738439,17.11910566187275,running
1970-01-01 00:00:14.200,2.435295343,1.2838988305000003,4.3075295838,-0.15049746644999995,0.68491250275,0.6029062569500001,1.5393841265000001,9.673379898,10.699636457999999,5.11212976458041,0.924797587854011,14.506074674884085,18.649711333229064,5.110968974931601,-11.164795277643384,1.846791030497064,0.029335175861184917,-0.08917453983541501,0.12535273427128493,1.5147405235028508,-2.47960063701505,-0.3391466485732999,17.02243613468775,3.322764170643588,16.265684716620804,17.143147352751235,running
1970-01-01 00:00:14.300,2.43649172785,1.7027922870000003,4.9706404205000005,3.1885463595,0.47004696735,-0.73828524355,-0.6598548295000001,9.6067266455,4.3488496544999995,5.791654314827206,3.3064841053661995,10.565845851365564,19.33352621862323,5.075416118010101,-11.106546497853385,1.920098144142064,0.05291235308818492,-0.09630007298291501,0.12342551136328496,1.4978452179868509,-2.38060638672505,-0.22997546903829988,17.00389162764462,3.3403808448598444,16.30479390550358,17.164682517013333,running
1970-01-01 00:00:14.400,14.262120245,-40.717017175,1.3028919695,4.3242640495,2.0379390500200003,-3.9631006715,9.8999152195,-21.728169917,-0.7894195319999999,43.16226464165511,6.209558927479335,23.89026731731595,19.78765711259251,5.243193364230101,-11.521156852763383,1.997175447072064,0.1133411810881849,-0.07500517540271501,0.07271602595678496,1.6576852844318508,-2.67509522920005,-0.1269425451082999,17.36630171552856,3.382008510832833,16.395482592800917,17.181173514650492,running
1970-01-01 00:00:14.500,5.912814378999999,-9.29566741,-1.6921743153500002,0.5636593100000002,1.065699458,-0.5851916672,-0.3544430734999999,-9.65865755,-4.5859861375,11.146042364506583,1.3401031452434868,10.697970107168288,20.040841790520755,5.3039202124776015,-11.536263040803385,1.819376752698564,0.11195684890818491,-0.07641165189771501,0.06856760943628497,1.6624614654118508,-2.81953857424505,-0.3796262704882999,17.29903148296277,3.381348154056118,16.290010855438883,17.1923384229561,running
1970-01-01 00:00:14.600,-0.954736227985,3.5545381305,-8.9570827495,-2.0240423675,1.50963261705,1.275830865,-5.4852380755,10.44227648,-11.689759730499999,9.683779942129826,2.829042689671346,16.60660884667594,20.110988892822903,5.311149528167752,-11.358957870518385,1.8385522344935643,0.08034244913568492,-0.01198330067721499,0.07830604160678498,1.6659440229468507,-2.70278523922005,-0.32123282549329985,17.216417187162087,3.358922353946559,16.270923068715323,17.200289164203717,running
1970-01-01 00:00:14.700,2.9165518284999994,-4.162613868,20.157586095,0.7066739795000001,1.8381922245,-1.4998591244,-1.3642370700000002,8.103331088000001,20.01592064,20.78850417802421,2.47546281744658,21.637056097623066,19.981251172158885,5.076839857252752,-11.129254377398386,1.8063867187645644,0.1440958144106849,0.02721095091828501,0.03955236400078497,1.4846907017818507,-2.3984901285400495,-0.06460102197329984,16.97969681333373,3.318786068355154,16.20246312537154,17.20859282886901,running
1970-01-01 00:00:14.800,-4.374528408,-8.480462728000001,-13.542778013,1.8174996380000001,-6.5552308560000005,0.42629504215,-9.8072390535,0.629029273925,-18.298353195,16.566882120145372,6.815870008483605,20.770347742127885,19.62484954577295,5.042857289462752,-11.157133756198386,1.6013696718595645,0.17925312836068488,-0.044390272471714995,0.040708392659784966,1.3944593833268504,-2.4123679948092995,-0.3140952932482999,17.054930792830504,3.368651560861569,16.34022437309778,17.220837817103106,running
1970-01-01 00:00:14.900,21.54617071,-39.19921875,-10.6340029225,-5.2806220055,-1.853234291,3.992268622,14.0476438994,-29.75116062,-10.0552675745,45.97714911812771,6.874420328472422,34.40314321913305,19.06032185611489,5.217398738992752,-11.553597531833386,1.5172170901845643,0.10507488985068489,-0.06885928710156498,0.07981101642128496,1.5234900723228504,-2.8015844440542996,-0.4268377101282998,17.467939634291856,3.4151993737553767,16.591038997685203,17.239506695301724,running
1970-01-01 00:00:15.000,3.758077502,-5.144269588,6.6548883915,-1.8495691419999998,0.51838025455,1.48558050395,6.045365808500001,3.834467411,9.431119920499999,9.212719229868112,2.428286130805485,11.840422755943042,18.39428476287736,5.168187350182751,-11.53236123159801,1.5528880927535644,0.06185057421068489,-0.09610536565106498,0.11556237916378498,1.5434658561328505,-2.8064284515292997,-0.35413729545329986,17.442727320306208,3.3936583725530625,16.646429365413045,17.265668357858367,running
1970-01-01 00:00:15.100,6.806982040499999,0.5344967542,2.9524439575,1.50054627655,0.2357870341,-0.7445464730500001,5.8519605395,10.7604317675,6.914467095499999,7.438925769364697,1.691621737874321,14.065638598856452,17.812791555880167,5.15739123239775,-11.17571251020601,1.5443397322885644,0.05163262684618489,-0.08845755790306498,0.12482969562328497,1.5386927364353504,-2.4246230077543,-0.27504706380429983,17.15506174544189,3.379857804431676,16.505498925037767,17.29940717870734,running
1970-01-01 00:00:15.200,1.231107235,-0.9318548737000001,2.6842983662999997,3.896136522,2.0477127435,-1.0492828416,-0.8278434276000001,9.3419618605,3.1163734197000004,3.0966814897610373,4.5248206328683045,9.88278095652584,17.516178871935608,5.15537976577775,-11.189059974184511,1.6044190228565645,0.10379287381118488,-0.07493187245506498,0.10638745384778497,1.5676369927443505,-2.4033790969693,-0.1707654130222998,17.14961401136174,3.4082025733058843,16.49505143446875,17.340478264882194,running
1970-01-01 00:00:15.300,15.7105255115,-46.23172569000001,11.9985103595,3.7549544575,0.24349904049999996,-3.8217658995,11.0602846145,-37.409503935,3.8592629435,50.280784828500124,5.363289042295277,39.20069885708159,17.63047913278597,5.3040398521627505,-11.639951502884513,1.7485671484915644,0.13948544283118486,-0.07557097081711499,0.06679538863278497,1.7177035615943508,-2.8465162467643,-0.07026824829229981,17.624391166221784,3.457990028458657,16.786279606244932,17.388683228502956,running
1970-01-01 00:00:15.400,4.2548873425,-0.3788137434999999,-1.03848503545,-1.4772577285,5.1621937755000005,0.84274017825,-1.5935127734,1.9892807019999996,-5.3030961755,4.396136635556814,5.4351399227858685,5.883821013333198,18.142261481257027,5.353285638237749,-11.511531703069512,1.7948817266970645,0.13040825296968486,-0.006860580484114982,0.06539349454178497,1.7170401475903505,-2.7877103805088,-0.1651995682472998,17.524343461647874,3.4918214933108134,16.785930896906095,17.443756538171616,running
1970-01-01 00:00:15.500,-1.42522501205,5.1167520285000005,-6.991528511,-2.7186521289999996,-1.3767733275999998,-0.7713473533999999,-3.619363785,12.870491985,-14.33431196,8.780312555727027,3.143493428290282,19.60157793420514,18.88911502992592,5.26145807467725,-11.22710135778451,1.716139916377064,0.14558246184968485,-0.02569223765511498,0.03904383428828498,1.6685304496753508,-2.5112138318588,-0.2827569770322998,17.366164103419045,3.4767012749122572,16.83141776287561,17.504866936766263,running
1970-01-01 00:00:15.600,1.2095718384999998,-12.41755265,13.797763107,2.401546001,1.63371098,-2.296174765,-4.535596609000001,1.983147384,11.069354055000002,18.602068288362574,3.7025468683751264,12.125803451366979,19.61173082487054,5.25021779142725,-11.246133263309511,1.8198523260900643,0.17878201026718485,0.002832802192385022,0.006672748106284979,1.5964102886203508,-2.4489522718833,-0.25260256763729977,17.439163304279617,3.495798308908917,16.85779067743471,17.570056307402798,running
1970-01-01 00:00:15.700,-3.0293133781000003,-20.93944051295,-13.523785115,1.29644694935,-4.1643749475,0.2083752751,-9.066162109,-9.082551000499999,-21.04063892,25.110349905463345,4.366487564521116,24.64541568375688,20.048596745303126,5.155937587301249,-11.504599975789013,1.6649768789250643,0.18463316310768485,-0.041671239553514976,0.01652724169428498,1.4723706344903507,-2.6719850658883,-0.4985801195422998,17.60727239570797,3.5285469141820345,16.96332582686568,17.63602277484715,running
1970-01-01 00:00:15.800,27.75659418,-32.18555832,-9.14970535,-5.1637210845,-1.8546849484999999,5.042620659000001,22.263067008,-28.04532051,-7.47488293165,43.474771912399376,7.451972544721022,36.57947552867861,20.034145208288976,5.444654082961249,-11.806518859124012,1.5446612675700644,0.09979793180268484,-0.09746449988351497,0.06825378937779998,1.7291801635653508,-3.0395194005383,-0.6101562556087998,18.00524626366386,3.553155773374925,17.22858418054408,17.698520637912097,running
1970-01-01 00:00:15.900,2.70224452,-1.259970905,6.116204262,-0.8502230344499999,-1.5536899570000002,1.59591478125,2.6650371550000003,7.477795125485,14.621318815,6.80423446846326,2.384067045996036,16.63739182883335,19.554496471859665,5.450196459601249,-11.412929450724011,1.6304529322900643,0.06130920906318483,-0.10390053850351495,0.10368598444529999,1.7492560831903505,-2.6883978461334506,-0.4709699484365498,17.66578693870168,3.5401017969930724,17.118447000544634,17.753306676371736,running
1970-01-01 00:00:16.000,4.877320409,0.5548357965000001,3.6575788855,1.1328925788,-0.0067193209999999995,-0.6010736971999999,5.130529403500001,9.6781747335,4.5223486425,6.121599499867754,1.28248989619431,11.850782057596767,18.734412619724623,5.47280863524425,-11.382583972664014,1.679042186310564,0.07932767589068483,-0.09823034889249996,0.09286177097279999,1.8073547438953506,-2.635082371153451,-0.3689471312965498,17.689007935086153,3.5428849293288236,17.165110331889874,17.797242838218782,running
1970-01-01 00:00:16.100,1.0935199260000004,-2.075025797,3.2277682424500003,3.980738997500001,1.0693644880500002,-0.7765395641499999,-0.260228634,9.1529016485,4.39912086715,3.989988184662117,4.194381607485187,10.158523117700826,17.768816654116545,5.48594074488525,-11.423342714907015,1.745682298115064,0.14605052311568487,-0.08344860858499996,0.0649735396913,1.8439807454903507,-2.644120805213451,-0.2538159361100499,17.689083924468317,3.5509748995750066,17.13741459631312,17.82910902224532,running
1970-01-01 00:00:16.200,18.76436591,-47.1607399,11.4777718546,3.336982131,1.0920422367335,-5.4924330710000016,14.7352888595,-37.021921155,5.907797692000001,52.038217327903055,6.51880564435217,40.282172947217504,16.842515336195074,5.68519109010025,-11.844739721432013,1.8224246024410642,0.14519915301568484,-0.05512133039766496,0.022623499316299985,2.026677459910351,-3.0320030926884516,-0.4112310317200499,18.145415403684343,3.575762444283068,17.320167198626216,17.84985580186221,running
1970-01-01 00:00:16.300,-0.41126638649999997,1.63579335795,-3.6527934075,-0.5337277949,3.6227824089999996,-0.15981289745,-5.6908922195,6.039307355630001,-7.0944685939999985,4.023413927059154,3.6653728192640953,10.917461803046741,16.078752154015543,5.608843597313251,-11.545405084202514,1.8508318906310641,0.16936350751668486,0.018407881477335034,-0.007380554989700019,1.9790923850103508,-2.820906808322152,-0.36943643598504994,17.88646687566183,3.5570208979313893,17.240904725006928,17.862230092774922,running
1970-01-01 00:00:16.400,-2.5695923565000003,5.8398330210000005,-7.628168820999999,-2.6457321645,-0.4903576374999998,0.7851677909999999,-5.4172713754999995,13.537456035,-11.6775856015,9.944617345751507,2.803005130025319,18.680887305899837,15.529929386311213,5.425526466533251,-11.334580961767514,1.6408228223910641,0.18021139014668486,0.015339900767835037,-0.014548084527700018,1.7967605583053505,-2.578017570933652,-0.5401669385850499,17.729084158086774,3.544793971329511,17.251943100260018,17.869863767080627,running
1970-01-01 00:00:16.500,2.0164016635000004,-5.5320562998,0.79546397925,0.7599703670000001,-1.28308463095,-1.261552274,-0.9525218009999996,0.6817574500000001,2.4221179484999995,5.941572646615262,1.953298561135185,2.690491843224326,15.19998986809165,5.459175534558251,-11.381755459366014,1.624663792786064,0.19329115796918486,-0.007368345937964962,-0.037438058044200015,1.7987842081193508,-2.646635503728652,-0.55660513667505,17.759695821570496,3.5490574291006487,17.192377925054885,17.876104227885868,running
1970-01-01 00:00:16.600,-0.004337012499999959,-25.069303515,-5.605336547,1.27346382675,-6.4755916595,1.3385954495,-7.883141994500001,-16.811754942649998,-8.8844361305,25.688320212540226,6.734005883279939,20.58427160028015,15.079807413911725,5.442941727799251,-11.655628963792015,1.561014710603064,0.17803830176668484,-0.06728024341846496,-0.017705400377700017,1.714464437184351,-2.943598096355152,-0.66976799277505,17.987301740580158,3.5872934502576026,17.266985903495964,17.883054886641926,running
1970-01-01 00:00:16.700,23.62553501,-18.542880055999998,9.3267737625,-3.9156835675,-0.5085303779999997,4.532562971000001,28.226154325,-12.829846384000001,25.443261620999998,31.448259317437532,6.0112650941560295,40.10835708590425,15.176213990787332,5.5684049035492516,-11.484474850952015,1.6337355803830642,0.11039231270668484,-0.09099257029846497,0.05435472270729999,1.9094690481843508,-2.8229533267051523,-0.40435238630004994,17.927821162032675,3.6041241074121397,17.404048392239773,17.891282664656668,running
1970-01-01 00:00:16.800,3.597758294975,-0.11201405499999996,2.1946671010000003,-1.35485918055,1.8888161780000001,1.2413943114000001,2.981217384,9.643875121499999,8.195209502,4.215800704704945,2.6352096291891898,13.002055346422022,15.517100756508384,5.557774787104002,-11.387202128232014,1.6525880324230642,0.08458019840554983,-0.07256865255646497,0.0832447438563,1.9327337245143508,-2.671816167865152,-0.3111539676950499,17.86106173532186,3.609931845501762,17.47784381507246,17.900341790376107,running
1970-01-01 00:00:16.900,2.01041963685,1.2107682825,-0.4854438305000002,1.5718627126000002,0.8834378199999999,-0.98323503115,2.3176958560500003,9.733210086,5.322143435499999,2.3965397269210036,2.053768705465424,11.332797686687925,16.126455001601123,5.5982000301825,-11.371330236252014,1.6712984108280642,0.11730557683154982,-0.060448679736664956,0.05959655559679999,2.026472950379851,-2.645145697635152,-0.20797298820504992,17.853683635713274,3.6083132219431593,17.479511343433128,17.909830500746402,running
1970-01-01 00:00:17.000,8.388338757625,-10.929665641300002,4.864010036000001,3.380504966,2.0500033495,-2.43514254715,2.9318943025,2.381556511,1.756578475205,14.610968885518723,4.643301280667891,4.165739256803284,16.98406627254937,5.670215017484751,-11.484151820755015,1.7822521012330643,0.12178614083204982,-0.048027864806164965,0.03733422762529999,2.055034640234851,-2.7035893130501525,-0.23947206858299994,17.936261698212764,3.6242574899384876,17.42538508811055,17.92040515915457,running
1970-01-01 00:00:17.100,10.947611811,-45.28267479,-1.6909778713999999,2.830437064,-0.08933642505000002,-3.5135172010000004,8.733039141499999,-36.108067515,0.1121144294999996,46.617917656871086,4.5126664059986235,37.14930796071538,17.99786994965133,5.801615372609751,-11.764883767015014,1.8318209158690641,0.16592061790904983,-0.01084406536166496,-0.004973054166700012,2.2255253891248508,-2.9943455744251524,-0.14761006716299993,18.216654179095276,3.6275284277046005,17.655121081898518,17.934159711307387,running
1970-01-01 00:00:17.200,-0.9224331375,2.28828611955,-2.6844478845,-1.543534696,4.1238298415,1.08448296775,-6.1106717585000005,8.359283686,-6.7556297785,3.6460110672733586,4.534818102938813,12.363513529224255,19.00906813043659,5.593568414184752,-11.474608957119514,1.498276379019064,0.1987192973790498,0.03132195550833504,-0.01882172429420001,2.038146932529851,-2.698616545215152,-0.16740718368799992,17.800241441347044,3.618681120847791,17.52730591281236,17.954040833537228,running
1970-01-01 00:00:17.300,-2.514407933,5.817101478500001,-9.107831002000001,-1.5244456530000001,-2.2265381592,0.7518766036850001,-5.9344258304999995,13.00988388,-13.039770599999999,11.095652410998309,2.8012006623041508,19.352263583607314,19.83025722015046,5.574177577229751,-11.389306322879515,1.3433411114540639,0.19571545663354983,0.00726068298983504,-0.01849797559585001,1.994871933274851,-2.616976478131652,-0.37750503540799996,17.84157802866461,3.63238137797942,17.626178736865857,17.982447535863827,running
1970-01-01 00:00:17.400,3.1858938930500003,-3.3128628730000003,17.642580034999995,2.29716748,-1.4994008540000003,-1.0908205209000001,-4.1289429664999995,5.3787639159500005,-10.191280843200001,18.231445653169022,2.952129868579976,12.240975308737083,20.302452304615986,5.574249362675252,-11.441450413411516,1.5097185520215635,0.20295705082854978,-0.008670976350164963,-0.024607212072350015,1.9245451818048511,-2.677883014697152,-0.507422646305,17.985513057783418,3.6454301320603912,17.62700646429175,18.01967163113727,running
1970-01-01 00:00:17.500,0.929461956,-31.80853939,-7.725228369000001,-1.2730820180000002,-2.253033638,3.7696909905,-4.8552861212,-20.161081315,-9.52815169,32.74639264111446,4.572468541430475,22.821671230135827,20.35131862598598,5.49193925589525,-11.638651906186517,1.3716392228915635,0.1599488234785498,-0.06451921363016497,0.039036961969149984,1.820445866997851,-2.8893555450671515,-0.6447867459150001,18.14956256348456,3.6391926733552555,17.78484131997471,18.06305321879375,running
1970-01-01 00:00:17.600,21.23017025,-25.137350085,-1.4609680150000006,-3.9198831915,-1.8688871865000003,2.6940655110000002,21.418720725,-13.765733243,6.7218489645,32.93540535169846,5.110402384199095,26.333253933278538,20.01953821039078,5.634819192590251,-11.530677281586518,1.3355734006715636,0.0944614160335498,-0.08600500223331496,0.08434044855414999,1.9925583080875513,-2.7237471246971516,-0.5362770086650002,18.1122958008107,3.6581081040870176,17.739231518574517,18.10743527522413,running
1970-01-01 00:00:17.700,4.381856382,0.339332223,2.8434211615,-0.2066190841,1.3019445685500002,0.25212717100000004,3.919582605250001,8.528157711,7.6198887825,5.234582658790122,1.342132339170632,12.089470906567271,19.45460520550977,5.690555509032751,-11.508784449661519,1.3905769167515638,0.1012242587140498,-0.07142713246281496,0.07873745150065,2.0873489789600512,-2.686485230947152,-0.39754484237500015,18.130142458911802,3.6594304911000965,17.763652979140225,18.1468369760196,running
1970-01-01 00:00:17.800,1.2324531075,2.7285656925,5.147858858,2.4654558895,0.3549785911,-0.7085064352499999,1.828496218,11.32029438,3.3287215230000005,5.955204633122483,2.58968413363488,11.94038735748482,18.849551595125956,5.71054754093275,-11.518134402601518,1.476561503231564,0.1282756297515498,-0.06972134165006495,0.059381992435149994,2.1534530155300513,-2.6960678649471514,-0.2996580654500002,18.13878652580801,3.6726897847003688,17.736305139394982,18.17662732614674,running
1970-01-01 00:00:17.900,15.087045493,-20.1924323425,9.253643534650001,3.3996704815000003,1.7350352408,-4.427344501,9.046105086799999,-4.2307667755,4.84226632115,26.851130037312423,5.845467132756398,11.098601167491651,18.3623428422995,5.85201569812775,-11.669716727686518,1.5739643419180638,0.14754786061154979,-0.023622226632064945,0.02746293365264999,2.274672046723051,-2.7521369720271514,-0.3770215732085002,18.355854635368065,3.696562201273278,17.71706983417722,18.195210689896484,running
1970-01-01 00:00:18.000,7.424629567,-28.145725964,1.717149377,0.6734591124999999,1.3197355864999998,-1.6201195864500002,2.3769083019999995,-30.10621929,-3.4639106395,29.15914292688806,2.19545819110333,30.397907986111903,18.054938721575944,5.83945786468165,-11.591766047426518,1.7257276249380638,0.20472087370054978,-0.01323782242156495,-0.023231280601850007,2.277335268088051,-2.843705022377151,-0.3195652854535002,18.25396928790383,3.6573472202883583,17.791234173904893,18.204430771300345,running
1970-01-01 00:00:18.100,-3.2027930025,3.8575291635,-7.895267961,-1.9102721215,2.319692541015,0.9896489381999999,-7.3892889025000015,10.75990105,-10.400660754,9.35273598687085,3.163782243439192,16.689841377622397,17.88162048383823,5.70305351307115,-11.453110947536517,1.4351312709730637,0.20263024882854977,0.021052088858585054,-0.020822251705750007,2.069948266579551,-2.6484399295046512,-0.7620414269185002,18.09116980505442,3.667339539216861,17.58387646486987,18.208464304351097,running
1970-01-01 00:00:18.200,-1.6274185775,3.36670133495,12.8316612255,0.1823379989999998,0.95750308,-1.2412416635,-8.535078525500001,13.417207715,-7.205922603999999,13.365429245300968,1.5782078954615129,17.458360429282727,17.72940360872355,5.67627483715615,-11.440781930907017,1.4901347871030637,0.1936194889370498,0.02475305986208505,-0.037150199230750004,1.9866001544745509,-2.6145390177496513,-0.9263079273735002,18.147749688780813,3.670190471756123,17.622223147718984,18.211694849617324,running
1970-01-01 00:00:18.300,1.2741780877,-6.883702040499999,-6.474379777999999,1.3317997457,-5.141119599,-0.054823543849999996,-2.0413887499999994,-0.7644886975,-2.8366115105,9.535537587956643,5.31110223163034,3.577439846976172,17.49056394228589,5.655985197323149,-11.531387655219019,1.3923221798130638,0.1753093437990498,-0.02936419057791494,-0.030359868179650005,1.9509569333345507,-2.7380148125246513,-0.9733310270444503,18.191544446100085,3.6907205687814173,17.5396894108895,18.216606868287,running
1970-01-01 00:00:18.400,12.133853676500001,-39.98077774,-4.9181479516,-3.6125506164999996,-4.592502356000001,5.964618206000002,2.642738102,-33.393680575000005,-7.627396821,42.0699557048949,8.349746714121737,34.35548208490017,17.13525186561278,5.634043008638149,-11.541178810069018,1.3206915369475638,0.1101036910840498,-0.08573851991291495,0.07166995011535002,1.858301348504551,-2.7871649599746515,-1.0210809111649504,18.19613548715125,3.7217660051225816,17.57324775292873,18.22279600100243,running
1970-01-01 00:00:18.500,13.06750369,-3.7773696185000003,-1.72328084685,-0.95643410085,0.29939150434999995,1.4759597183500002,19.818672450850002,3.2657911775999997,14.413866995,13.711231556649116,1.7840567682496866,24.72255511631678,16.749427068304904,5.731074958388149,-11.504800428521518,1.3145853534230638,0.1044373189055498,-0.09865641199041494,0.08925547950335001,2.072786343238051,-2.718127479643651,-0.8330024624099504,18.251063925176744,3.7229823236587265,17.761145310850868,18.22765635629334,running
1970-01-01 00:00:18.600,6.240780592,1.9685453178,-0.016301154999999845,0.9836167991,-0.011071622399999924,-0.5564818382500001,5.2046933175,12.323562143500002,4.34018135082,6.543911582025731,1.1301754839830835,14.06400336290991,16.51381845528099,5.815371109188148,-11.497858251404521,1.3571880641430638,0.13518736915154983,-0.09868084609491494,0.06545763366085001,2.192354359768051,-2.6849121762336505,-0.7136106705917503,18.26679994524203,3.706538066065466,17.76600157829892,18.228430182925855,running
1970-01-01 00:00:18.700,1.233500063,1.5975082519,3.012264609,2.7950843575,2.39482677,-0.80776914935,0.34255898,11.827048300000001,6.7392854695,3.625919620585034,3.7683129942311644,13.616695149144133,16.626542457509803,5.805757943328148,-11.427160812080519,1.3720549705480638,0.1341046424365498,-0.07304893076491493,0.06987100504735001,2.187334982298051,-2.6127537919086508,-0.8387112450967503,18.242157614866827,3.7125698212351317,17.704048961343474,18.22454825412768,running
1970-01-01 00:00:18.800,18.10469484,-36.154952525,0.7366902830000001,2.717812061,3.916294575,-6.7874293329999995,17.034155847999994,-22.085050107649998,5.2247099855000005,40.44135605920742,8.294158338708051,28.37621359772912,17.203026003240833,6.019419065023147,-11.611648936900519,1.443530075838064,0.17286366359804983,-0.005392250418914934,-0.020264853556699984,2.461019865478051,-2.74156677734015,-0.6583396840417503,18.45545789636872,3.7575431618756507,17.79921994004147,18.21895288910055,running
1970-01-01 00:00:18.900,5.255535721499999,-11.6214913145,0.32736802099999995,1.88217309885,0.56236124035,-1.37303187715,-0.20572185515,-11.182680131500002,-2.69133877735,12.758796413225461,2.39667316802952,11.503823747763134,18.200567164843495,5.797520648738148,-11.44477946699552,1.1540837827380641,0.23546710694054984,0.025683076083585065,-0.04864099869569999,2.270915705166551,-2.6093574668051502,-0.6933205938652501,18.091979037665432,3.728792455101364,17.606069337513205,18.21753355330172,running
1970-01-01 00:00:19.000,-1.9159032705,3.2985059323500003,-11.00877905,-1.8251352905000002,3.9652385115,0.7114843577000001,-4.062430978,11.3597850795,-16.321712495,11.650924551269725,4.422719217061268,20.296461791969655,19.403682169760213,5.774717048303147,-11.40339709550702,0.9448508801980643,0.22871724376404984,0.04859824686958507,-0.05323075229519999,2.2270360018815505,-2.55598951826765,-0.9357818484702501,18.108921466582643,3.7495800183386128,17.709445448075883,18.22675044053271,running
1970-01-01 00:00:19.100,-1.325773239,-5.678167939,12.490533828,-0.09208524250000004,-0.51547872275,-0.8237275220500001,-2.5270099640000003,7.210580586,13.673703194999998,13.784509462913375,0.9760763474630909,15.663601463594143,20.481336034882244,5.721364581483146,-11.489190255107019,1.0507886121952892,0.19996695408404982,0.04122990183258507,-0.05771437097579999,2.177520328961551,-2.6040415598076505,-0.8392151022252502,18.193766336673704,3.7311722292496934,17.737087633521824,18.2505193365269,running
1970-01-01 00:00:19.200,-3.3930225965,-12.68465177635,-15.016307835,1.6169890164999998,-1.384485304,-0.599317506,-6.805321693,-0.3396396639999999,-18.167475699999997,19.947493427072516,2.211477901646695,19.403219623471482,21.099858264038744,5.605478685988146,-11.490400124910519,0.8332989797752891,0.1812406683890498,0.0039758538425850665,-0.03631715420579999,2.0646772011180508,-2.60711146604765,-1.0773853135402502,18.228820578932517,3.703127591777727,17.859022818210438,18.287924537518144,running
1970-01-01 00:00:19.300,28.921298985,-43.35181427,-10.7442224045,-6.488954067000001,-5.0141396525,4.529585123,20.579185486500002,-32.765415195,-15.46394348,53.209582318955455,9.368311626163575,41.66783959051806,21.0499964636205,5.821104903133146,-11.55321021211052,0.727898132559289,0.08407319435904977,-0.05811676987241493,0.04712534542920002,2.2192212637130506,-2.5923212934976503,-1.1939016020452502,18.38296978849908,3.7454311051032336,17.927351065732932,18.33298696074243,running
1970-01-01 00:00:19.400,4.13629293425,-1.3173985485,6.423831463,-0.9977426857200001,-0.6772768494999999,1.8188740908,4.1448438175,5.6610398285,16.393135545,7.753068349920895,2.182314678491608,17.831488866835368,20.33207719069693,5.862521670965647,-11.58062298727152,0.8150432373427889,0.08641502923234977,-0.07768449791241493,0.06227512117170002,2.3119483478830505,-2.6158549572526506,-0.96829865340525,18.433528874619622,3.749234526345848,17.992281847834512,18.37669375794577,running
1970-01-01 00:00:19.500,4.4727837445,1.76156607255,4.72881558886,1.1717577576,0.0615428686,-1.4320550565,5.5881426335,12.73432064,9.489652633,6.743189625575424,1.8513739363020414,16.835788290117993,19.15577267812486,5.920770451336647,-11.59595649403602,0.884375271071389,0.11423759526234978,-0.059654576861414926,0.027763014391700015,2.4246391542730508,-2.6037713457676506,-0.8177710974702499,18.459075259226157,3.736598078874475,18.020615120980423,18.41035272511307,running
1970-01-01 00:00:19.600,1.714756489,-5.551348686000002,2.3095225395,3.9445462225,1.4015890360499998,-0.9305494427500001,-2.593199372,6.118828057999999,3.9657747745,6.252340074770412,4.288335223932117,7.738999247213412,17.852449638146137,5.894196658196647,-11.59605220717102,0.9054186494863891,0.12865817225134976,-0.03577732094591493,0.029932286099700015,2.410799266898051,-2.575869641457651,-0.8893471754252499,18.45098069576749,3.7502382837190855,17.981269603964243,18.42868076563308,running
1970-01-01 00:00:19.700,15.87353647,-45.35684967,6.1640608305,3.620415449,0.8793146609999999,-4.552033782,13.5927639005,-39.053333285,7.322624208,48.447999112177,5.882313647611511,41.99460556328172,16.742946545615073,5.984527206525147,-11.713518857171017,1.007693872767889,0.17674941471124977,0.004339309846585065,-0.04083131406879998,2.5500083442530506,-2.7220808174076505,-0.72855898266525,18.59006983264981,3.7671128109723595,18.141656072224915,18.431189667152363,running
1970-01-01 00:00:19.800,0.8325527910000001,1.025324464,-2.0391336680000003,-1.0582928566349998,2.93336477865,0.2273115218,-4.699509859000001,5.36937189,-6.5538237095000005,2.42950623013194,3.126704850633021,9.688557819570708,16.021345699425297,5.781567992090147,-11.547020271231018,0.766585585207889,0.2084149716803998,0.040170845601235065,-0.05871310501554998,2.3421166654280507,-2.5739709474726506,-0.78411015158525,18.27118881561064,3.751121237825071,18.051721253680025,18.42129906614479,running
1970-01-01 00:00:19.900,-3.5977584125,5.109573603,-8.280661823500001,-2.6508480309999998,0.6265765919849999,1.3870050313,-6.620513439000001,12.61627722,-10.273294447,10.374052642740892,3.0566937147728144,17.56537013224121,15.70131439807007,5.744029090520147,-11.498001804161017,0.6405361741853891,0.1881821836543998,0.029810112226085064,-0.05123633503154998,2.2725029917430506,-2.5240796734776505,-0.9394083965202501,18.331608540030707,3.7628017029408056,18.134681533490788,18.403761400603553,running
1970-01-01 00:00:20.000,0.4637589604,-2.63285258395,1.9133608340000003,1.652952701,-2.8430357875,-1.6584503055000002,-2.902237296,3.7224187845,-0.35110449799999977,3.2875423621983426,3.68314573925089,4.733144546494189,15.643533857100923,5.735565975871148,-11.540413088309016,0.6348502296303891,0.17507416590939978,-0.002563264710914936,-0.06816596686154998,2.2572167559335004,-2.59396584767765,-0.9886461842452501,18.33213749904461,3.769732481874469,18.064743007849337,18.381861791635437,running
1970-01-01 00:00:20.100,1.38903355615,-23.3466203225,-10.7561864865,-0.08231162999999997,-2.7140707969999998,1.51688644285,-6.614491939500001,-17.6690857435,-17.101203918,25.742759029199764,3.1102893717568465,25.46368531995877,15.652897629518291,5.585070892582649,-11.408401062034018,0.5007923400353891,0.1395098756243998,-0.05528014813091493,-0.014541213208049974,2.0796177907885003,-2.5812896158286502,-1.17235811594675,18.187944694566326,3.743043115413094,18.099281732733406,18.355988789476203,running
1970-01-01 00:00:20.200,28.34552574,-22.00963068,11.7855490455,-3.342479844604,-4.2997540234999985,4.260048747,32.582449435,-17.66901112,28.028057932,37.77289820030872,6.914338110116158,46.469151020677835,15.603959415047036,5.818076475852648,-11.527340787199018,0.614692195657889,0.09510280693335979,-0.09804709349591492,0.03681653306495002,2.4004596634685003,-2.66039565109365,-0.8756819463217501,18.452565451073518,3.798138257639898,18.464896031754947,18.32443394032478,running
1970-01-01 00:00:20.300,4.5696930885,2.164756775,-2.4904794689999994,-1.16587831065,2.4835522773000003,1.17809525145,4.6149421335000005,12.0692892075,3.6443877221,5.636555224913847,2.9858353221192817,13.42560965985615,15.532338662483129,5.886536627999148,-11.519202198529019,0.630721119647889,0.1058712811268598,-0.08589734156341493,0.031699159894450026,2.5095874883735005,-2.63193710349865,-0.76181607727575,18.460184453875982,3.797183236122604,18.463256512397617,18.28601280542702,running
1970-01-01 00:00:20.400,2.9309085610000003,1.2886845098,2.0582761765,1.8891214728999999,1.06982263915,-1.06111803675,2.6043605506500005,9.180297375,3.661830425,3.806236143158884,2.416458546411651,10.221034968762682,15.638753228343678,5.898183690302648,-11.485959911861018,0.452289823292889,0.11056945989585978,-0.08040277023641491,0.02232112750695003,2.5701330648850007,-2.6392373516236503,-0.77790345674075,18.297416323603297,3.806180720685997,18.448037207887076,18.242991168208444,running
1970-01-01 00:00:20.500,9.38420209125,-9.73983499445,2.0714367035,3.9656966925,1.6436372103,-2.472938843265,3.1887307165,2.9933800695,0.8459784985000002,13.682780588211617,4.954161892643097,4.454661316279246,16.19565987387234,6.049203703085149,-11.412569049510019,0.603608939027889,0.13897385667085976,-0.02147051681341492,-0.0005260875056999714,2.6954180227450006,-2.59599593421865,-0.61345181235575,18.211767438180924,3.8117216255167774,18.31028276779752,18.202500771565674,running
1970-01-01 00:00:20.600,11.0935744055,-38.421103475,2.3694927095,1.2765943558,0.27014720162000005,-3.2491728366,8.555794475499999,-35.595051765,5.1680690025,40.06074239236457,3.501399260567527,36.97185776336682,17.398762122627012,5.847547074240149,-11.42251569141002,0.6525197303028891,0.2030983116738598,0.01550330467778508,-0.07934523515169997,2.5884974370800014,-2.68096045751865,-0.44776452669575,18.124088401963625,3.7695441651400943,18.32860570280769,18.175352710113014,running
1970-01-01 00:00:20.700,0.5871388915000002,1.2705887555,-5.0080283878500005,-2.145677328,4.264172018,1.2096302809000001,-4.6292438505,7.925704955,-7.7412612437,5.199949634085542,4.924459321738543,12.007240453339612,19.234362766340723,5.836619352385148,-11.378620856594019,0.546160261614389,0.20137114132885978,0.03834670194278508,-0.07694918698969996,2.4745112611100013,-2.66079302569365,-0.56205468783775,18.109587468254816,3.789202853564217,18.351549436942708,18.17251808751956,running
1970-01-01 00:00:20.800,-4.6630129815,5.3801121715,-5.964409590000002,-1.3664653004499998,-1.2159678638,-0.2595337629499999,-7.494087219500001,13.463270665,-11.44935465,9.287813456397796,1.847474773099549,19.196581001678382,21.427802371618334,5.747703559680149,-11.351782359669018,0.445954830947299,0.17209399576135978,0.01950588115228508,-0.07292217686069997,2.3673576248900012,-2.6576986481436493,-0.7427379549677501,18.137965352434,3.789450065138997,18.392780137228456,18.200796322222754,running
1970-01-01 00:00:20.900,0.825224757,-7.744221090549999,14.86421347,3.2268769739999996,-1.9755564330000002,-1.028055947295,-4.387396573999999,3.10672783875,0.7406282449999999,16.780905764606825,3.9207725330689227,5.426742739332956,23.506460697554136,5.703879015145149,-11.35952762800452,0.5853741291522989,0.16868241424135977,-0.028669351852714922,-0.06300888981164998,2.3173679841750014,-2.6764715863961497,-0.7663811285202502,18.218283171704066,3.7787723570147396,18.388009294040973,18.25967805968322,running
1970-01-01 00:00:21.000,5.8576295395,-38.095531465,-12.2907333375,-5.1710513235,-1.72969028335,4.526454568,-0.6555051799999996,-22.5950222,-11.0791399495,40.4554504040724,7.086634689523271,25.17363814151833,24.96274399797172,5.628452758505148,-11.319821722104518,0.3940619758172989,0.08312638098635977,-0.04890137574621493,0.015888142928350026,2.2044203389750012,-2.59807219519615,-0.9524455053552502,18.17608073307879,3.801834118911229,18.308665485618416,18.34090937031833,running
1970-01-01 00:00:21.100,28.994280579,-20.1900401095,37.9637751555,-1.8293348253,-1.9851009845000005,1.929513812,24.480593207,-18.2706065185,-3.1591782549999987,51.860912544751415,3.318149389707616,30.70985043218762,25.450933260659085,5.914919988845148,-11.529341767600517,0.8077630534922988,0.08197875166835977,-0.09147514006621493,0.025470045848850025,2.4933762742350014,-2.84827583805615,-0.9116972238552502,18.65961210500839,3.804938276045055,18.50742087460559,18.43103288719812,running
1970-01-01 00:00:21.200,5.268696307999999,4.2644586575000005,2.896212578,0.51876203715,0.43484690795000003,-0.30672167240000003,4.207148254,12.9734146585,7.130660533,7.371079685122454,0.743158172168985,15.390123585254335,24.924283263434916,6.006734087200149,-11.528133391895517,0.9058613053122988,0.10037212650035977,-0.06459709635171494,0.008112057341850023,2.6136377759050013,-2.8331392552261496,-0.7415106327102502,18.643725490011335,3.7826007489077473,18.4909591675835,18.51580151768607,running
1970-01-01 00:00:21.300,-1.0360922513500002,1.1078769194,4.998157858500001,3.753198266,0.69682401405,-0.30679803345,-1.4304323195000002,11.191246507999999,10.1112337115,5.223261471564683,3.8296456707887416,15.150154527002897,23.642711865911007,5.979201670921649,-11.493598978453017,0.851814916452299,0.10924544612535976,-0.04648318341121494,0.014933694270850024,2.6171848125550015,-2.7934517600061497,-0.7535982067452502,18.587944932123026,3.7885962842860987,18.507000987459,18.584499791328575,running
1970-01-01 00:00:21.400,17.9406361605,-34.627583025,10.0474622855,4.027392387,0.14889401219999998,-5.5449659825,15.891762138499999,-16.2476739865,8.6379740821,40.272663561965366,6.85483089600442,24.31356843577845,22.049966998120066,6.1137859786316495,-11.563062627253016,1.0280702313972991,0.1914777056353598,-0.034597623251714935,-0.06926625612564997,2.805600419780001,-2.7825926353450994,-0.5605191756492502,18.700194867114018,3.8052295583734908,18.544466567900834,18.632321380664063,running
1970-01-01 00:00:21.500,3.700500369,-14.827275159000001,-0.13594222050000004,-0.5053997337,3.3237726428000003,-0.6408551334999999,-1.64525282375,-14.9196615225,-4.067155360999998,15.282678819794064,3.4225120560756292,15.551363590712404,20.587514335585507,5.94556306369165,-11.442412024703017,1.062042327827299,0.21298640141835978,0.018333055211285067,-0.09447439495064998,2.593969974042501,-2.7760069801300995,-0.5781323696342502,18.51289434797518,3.801417677009354,18.449192996774435,18.660000367507266,running
1970-01-01 00:00:21.600,-2.3193929195000003,2.9741289319000006,-10.9645113925,-2.19584316,0.9652913805,1.171834141,-5.695815325,10.453664304499998,-15.5654492375,11.595065178551334,2.669589834899659,19.596035812706397,19.537269558144956,5.898375105931649,-11.439549610284018,0.9163254124172989,0.1873766301063598,0.015877449567785064,-0.08591566119064999,2.515055295947501,-2.774293756685099,-0.8062202097092502,18.577861059298613,3.81507779208963,18.517476675509624,18.671310819818885,running
1970-01-01 00:00:21.700,0.8168497084999999,1.3485051390000002,17.818602564499997,0.7279008625000003,-0.8572478295,-1.7554987069999999,-7.018934011000002,11.2915625565,-7.2414925110000015,17.88821698514952,2.0848235457921556,15.139485902929284,18.959582004677124,5.888630334212649,-11.440518702539018,1.053003442932299,0.1622059057113598,-0.0042889099742149375,-0.09620462003514998,2.441191846857501,-2.771391492120099,-0.9129241598867504,18.709280389712642,3.800709576539357,18.553579835291345,18.670057035270403,running
1970-01-01 00:00:21.800,-2.7478577196,-12.0273737925,-11.752049445,0.8187643887000001,-3.1201315223000003,1.41495127995,-6.531659362999999,-3.856085777,-11.958195685,17.038753139517162,3.5224541111681704,14.160876229760639,18.739125767525735,5.691129746216649,-11.150845107114016,0.921293510554799,0.1336411599283598,-0.038592565897214944,-0.03267650592064999,2.231721953897501,-2.6176634361520983,-1.0604422570317502,18.43563454350434,3.774301261704716,18.453247224548193,18.658253000279206,running
1970-01-01 00:00:21.900,20.1529502895,-39.540346145,-8.904440639999997,-9.106511116,2.44537425,4.342513084,11.239363433,-31.26080418,-7.31259799,45.264439041578306,10.381031731629848,34.015220971246315,18.6977852751242,5.8443765757516495,-11.455530675934018,0.8403129164087991,0.05023836354185979,-0.054694499617214946,0.009013818620350016,2.334889101542501,-2.8333260395570985,-1.1047509885867504,18.785196551050475,3.836801973670143,18.691841668017375,18.63634264902484,running
1970-01-01 00:00:22.000,4.356582254399998,-4.874927523,10.787143468,-2.8056977985000002,-3.5875059964999996,1.76298153385,7.02120948,0.7780013084999995,13.596031665,12.61376991597163,4.883671088446406,15.321708313166395,18.70441953761393,5.901810301050649,-11.539228621431516,1.046097158558799,0.04636482934185979,-0.08398768032221493,0.017961203573850015,2.465304581697501,-2.9251537087020982,-0.8368955303367502,18.80645028505371,3.8591142677790056,18.66915404301103,18.605037754576813,running
1970-01-01 00:00:22.100,4.8988558055,-0.7511967419000001,-1.1678470224,0.7721109687000001,0.4689780475,-0.2202104479,5.2783972025,9.185415268,3.3791321516500004,5.091851472288913,0.9298324571599356,11.119886005318675,18.72248420835247,5.935555083260649,-11.490999784185517,0.8233492999597992,0.03699366936885978,-0.07763715883826493,0.025628100005350013,2.5614332230625014,-2.9049350621965986,-0.8445168580202502,18.638531653213885,3.8486060045122006,18.686942980578255,18.567360236258132,running
1970-01-01 00:00:22.200,0.007627129499999995,0.7428218725000001,2.71420863255,3.1935094,-0.021608710500000017,0.35238251090000006,-0.3875706794500001,10.887755871,4.843455672,2.8140310958441375,3.212964777000523,11.92277240345941,18.782002612904133,5.980167766913148,-11.345976789285519,0.9881579502852992,0.06947776207885978,-0.02158199569326493,0.01985941078935001,2.643552525193001,-2.7765304424965986,-0.5994310333002503,18.46700249404759,3.8236996476293377,18.590652332131693,18.529338857425135,running
1970-01-01 00:00:22.300,20.571844105,-48.107549665,10.3501539225,3.735025644,0.3858264014,-5.604065418499999,15.971763135,-38.41801834,-0.23044824499999986,53.33538029179418,6.745726631592957,41.606423268610165,18.910462871075783,5.826526123463148,-11.462317331135518,0.7962460955202991,0.14647276842685977,-0.005068503081764933,-0.07403621170564997,2.609087960893001,-2.834956479296599,-0.49954904215025026,18.40922151459057,3.834899828774829,18.613951285647968,18.498619774818405,running
1970-01-01 00:00:22.400,0.4363909960000001,-2.290529251,-2.306082815,0.06245911100000001,3.6918082235500003,-0.8016606422499999,-4.9281885625,2.3226413705,-5.779602528,3.279478510482241,3.7783606081673837,7.942638782242204,19.07493243149058,5.799725014148147,-11.493631899655519,0.7445581345952991,0.16238686644685976,0.02533183866573507,-0.09899161297814998,2.535341820868001,-2.901683044661599,-0.6562550343852501,18.398871345409393,3.848952174173803,18.557461450193127,18.481522051605157,running
1970-01-01 00:00:22.500,-3.050699353,5.621936797999999,-11.797662255,-2.2803691625000004,1.0851701495,0.99064156435,-5.782237529500001,12.551476958,-16.161829949999998,13.420051213991428,2.7127566200572844,21.264491341376594,19.17090575643598,5.738651206375647,-11.452524702550017,0.614641327216299,0.12950724923435974,0.03312395864373507,-0.08831629324464998,2.451552751814001,-2.884465189181599,-0.8676012351052502,18.496943255926407,3.8655214957757873,18.648141799293718,18.48003430505621,running
1970-01-01 00:00:22.600,2.964557648,-4.8619163021,16.572391269999994,0.8309050200000002,-0.650094211,-1.6865492465,-3.0939662455000003,0.5035867700000001,6.910310983499999,17.523441002922716,1.9893400906598728,7.588058029027791,19.06329302790171,5.665800226205147,-11.380104426126017,0.7526713090512991,0.10007586502435975,0.011925268108735072,-0.09343442950215,2.3665715534990004,-2.884832992746598,-0.8107524021402504,18.511171318772906,3.843244236548995,18.668346042035136,18.490369061504186,running
1970-01-01 00:00:22.700,-0.11201399599999996,-21.571446299,-8.429166556,0.2557159362,-4.2524896860000005,0.94879850755,-8.462781906,-12.911567687000003,-17.532961845,23.160109917587388,4.364547831962909,23.36090770459764,18.659559879734463,5.560734375590147,-11.206150710566016,0.660342750481299,0.06731307261635976,-0.03635380990126493,-0.03714409056664999,2.1885892136290006,-2.7021101953665982,-0.9855021138902503,18.33939840814237,3.8279739281847576,18.576442236279195,18.503966731358663,running
1970-01-01 00:00:22.800,26.62164688,-24.965066910999997,3.918546079,-3.9559995530000003,-3.97623384,4.592884302,26.340649125,-14.598648550500002,22.706973078,36.70588034426319,7.249479583063557,37.71679946910124,17.97875593621121,5.832020637850146,-11.469992313382015,0.7366438821592989,0.04403215640585976,-0.10704410798126494,0.007736385730350011,2.5086569459340002,-2.9195922710815982,-0.6705456109352503,18.666399023525113,3.8655023660946117,18.826936633165815,18.510699335405835,running
1970-01-01 00:00:22.900,1.0875380039999998,2.0476579665,5.1239306925,-1.0529479981999998,1.50550937675,1.3032426386,1.942888498,12.0805459035,5.937415838900001,5.62408284073579,2.2524873685463036,13.60026881669079,17.17734224935011,5.869620855905145,-11.503962917327014,0.8386678591992989,0.05742650859885976,-0.06507661050876494,0.006613953824350014,2.6057707340590004,-2.928787436696598,-0.5221305103412504,18.643533622792923,3.849336320530398,18.78725951038453,18.503007862287085,running
1970-01-01 00:00:23.000,1.5556337239999998,1.1724831459999998,1.4250755309999998,1.74870300275,0.3384857473999999,-0.8470160662999999,1.8292763533,9.317470074500001,3.19405043135,2.4136182962421993,1.972300942957268,10.01815645335771,16.510773279526553,5.839888540369146,-11.426034665122012,0.6864035788542989,0.05747308604885976,-0.06590048945476494,0.0039605863773500135,2.647015738297,-2.8876462533115976,-0.43652903627275036,18.48284228592188,3.850198843972627,18.809250334051427,18.479245003409027,running
1970-01-01 00:00:23.100,11.216804502999999,-13.55130269955,4.9060341715,3.5872768164999997,1.6772338748999998,-2.438120417125,7.1125911485,-0.04964351649999976,2.7362452150000003,18.262630681401784,4.650387037410137,7.6209222014833236,16.243223841405282,5.934177714434147,-11.266541073617514,0.8204480084992989,0.09295949332885975,-0.01832159614576494,-0.032340538233899985,2.7693703375474996,-2.7230033328265977,-0.3163018227527504,18.357944847007083,3.8636682235547153,18.689196342144292,18.444787687448933,running
1970-01-01 00:00:23.200,7.8436725745,-37.707595345,-1.6728820773850002,2.638249338,0.99758991625,-3.230847418,6.295285225500001,-37.99096298,-3.642391622,38.55106328758087,4.288813384708921,38.680885472622585,16.54448150544215,5.795524110029147,-11.403374650732514,0.9083348927204489,0.16255026974335976,0.003664323330735059,-0.09621988865389998,2.654025727352499,-2.981714608859598,-0.3048196811377504,18.40317756910506,3.8517118814968097,18.85515679536118,18.410412017487612,running
1970-01-01 00:00:23.300,0.26994031685,3.6958642005,-4.306482479,-1.615232885,5.403020381999999,0.9862128794499999,-3.3331866265,10.487200261,-9.2571979735,5.681379348814209,5.724877497788569,14.380097938538855,17.416081614725005,5.768663180897647,-11.386699667232515,0.7944843904954488,0.15640896376540978,0.05389963829623506,-0.10243373247789998,2.6153338633374994,-3.000399129549598,-0.5090407830977504,18.38064495638621,3.889645930072453,18.832343037944938,18.38855447783883,running
1970-01-01 00:00:23.400,-2.1421744825,4.837838768999999,-9.0647597295,-2.4036839605,-3.2471114101,-1.0824976859,-5.1508450505,13.225967885,-17.1717906,10.495878449271338,4.182490924263367,22.278416093599656,18.673944488026837,5.737001650757647,-11.341582995907515,0.6605954961904489,0.11666495051740977,0.012796488340235055,-0.11016476801339997,2.5536094568574996,-2.960741551054598,-0.7394215208827504,18.441047015639626,3.913282936198822,18.945032500644935,18.388901354978824,running
1970-01-01 00:00:23.500,1.496860206,-9.37358409,5.226821895,2.70742774,-0.593896151,-0.9392539934500002,-3.3155229095000003,0.8067402839999995,4.178028104999999,10.836251025638843,2.926615053215215,5.394389761170176,19.996563518127818,5.627651152442647,-11.226607867132513,0.6374808268224489,0.11016553488240977,-0.028502129979764944,-0.08703274666289998,2.438173643172499,-2.877781810894598,-0.7828244537677504,18.295051338624813,3.883937268123196,18.858850966139475,18.414953394463897,running
1970-01-01 00:00:23.600,3.6169010395,-35.69059467,-6.962665557999999,-3.3104103205,-4.757812858,4.288605809,-2.0722887515000004,-26.738086699999997,-10.021821258500001,36.542841059506145,7.21025238579147,28.62964481762973,21.028583506153307,5.594552434512647,-11.269234505532516,0.5413940410274489,0.043528208407409764,-0.07443326152476494,-0.02371079324789998,2.3943595801024995,-2.827932329294598,-0.8727400726477503,18.33757165036847,3.9167356512343225,18.826910961503653,18.462809125823068,running
1970-01-01 00:00:23.700,23.8781273645,-18.10349846,22.437945845,-2.7940917014999997,0.20463383200000007,2.2696793675,22.6254074,-17.89062643195,8.5599148285,37.434783780191104,3.605588422552603,30.087467756771037,21.505949515487625,5.841300311792647,-11.488388650072515,0.812177807557449,0.03402571585740977,-0.09218600950726495,-0.006311572518499977,2.6703320793774994,-3.111235356479098,-0.6957647389677504,18.65133981388608,3.9252226473016494,18.980407848458743,18.522579473409955,running
1970-01-01 00:00:23.800,2.91191571195,2.5287647245,3.0110682845,0.51899110157,0.06291729200000007,-0.13041585694999994,0.07436609250000004,10.48809886,8.4220173375,4.892896520395522,0.5388122538375107,13.451249906458418,21.351193147759748,5.8909199774571475,-11.497737110507517,0.8817371635319489,0.05119739637510976,-0.07845645371326496,-0.0044278720294999765,2.738256545507499,-3.1268257261790984,-0.5377412289877505,18.643911626771075,3.91257343973767,18.95848013129786,18.5818496682296,running
1970-01-01 00:00:23.900,1.19880414,2.5419253111,7.702346681500001,3.072638035,0.045660853249999966,-0.4698942751,1.3243337870000005,12.505152705,10.635627032999999,8.199064584164834,3.1086958740635815,16.46964682498805,20.695111291341597,5.889482787877147,-11.434928509861518,0.967003904441949,0.05806789980510978,-0.06783534590076495,-0.0013629462099999767,2.742323500357499,-2.9935724807790987,-0.4504641813277504,18.68532947749377,3.916592011669792,19.100472174276135,18.629794312401703,running
1970-01-01 00:00:24.000,20.6532001475,-34.482817175,10.10488969055,3.7899255755000003,1.09776885815,-5.4801397325,15.238107443499999,-16.9101853385,10.38853984855,41.44548410038605,6.752818953702086,25.021511681490825,19.815551755519696,6.050030719067147,-11.429232103511517,1.147662012582249,0.12700277732010978,-0.032100781089264945,-0.09074669795999997,2.919262320247499,-2.930051233864099,-0.25356933121225034,18.737403798759626,3.931469921280932,19.0989585725317,18.660305791852092,running
