Unnamed: 0,acc_Acceleration x (m/s^2),acc_Acceleration y (m/s^2),acc_Acceleration z (m/s^2),gyr_Gyroscope x (rad/s),gyr_Gyroscope y (rad/s),gyr_Gyroscope z (rad/s),lin_acc_Linear Acceleration x (m/s^2),lin_acc_Linear Acceleration y (m/s^2),lin_acc_Linear Acceleration z (m/s^2),acc_magnitude,gyr_magnitude,lin_acc_magnitude,filtered_acc_magnitude,average_acc_Acceleration x (m/s^2),average_acc_Acceleration y (m/s^2),average_acc_Acceleration z (m/s^2),average_gyr_Gyroscope x (rad/s),average_gyr_Gyroscope y (rad/s),average_gyr_Gyroscope z (rad/s),average_lin_acc_Linear Acceleration x (m/s^2),average_lin_acc_Linear Acceleration y (m/s^2),average_lin_acc_Linear Acceleration z (m/s^2),average_acc_magnitude,average_gyr_magnitude,average_lin_acc_magnitude,average_filtered_acc_magnitude,activity
1970-01-01 00:00:00.000,2.160120726,5.149055004,11.58066368,-0.3014531136,0.6363501549,-0.1366770715,,,,12.85654153551348,0.7172838498211184,,12.869167222092823,2.160120726,5.149055004,11.58066368,-0.3014531136,0.6363501549,-0.1366770715,,,,12.85654153551348,0.7172838498211184,,12.869167222092823,walking
1970-01-01 00:00:00.100,1.2418749333499999,3.2482568025000003,9.476325033,-0.13713521135,-0.22715882585,-0.4637094438,-0.35850971935000003,-1.09223890315,-1.025526047,10.094263803573446,0.5342599054981247,1.5405254666827735,11.578326552988795,1.700997829675,4.19865590325,10.528494356500001,-0.219294162475,0.204595664525,-0.30019325765,-0.35850971935000003,-1.09223890315,-1.025526047,11.475402669543463,0.6257718776596215,1.5405254666827735,12.223746887540809,walking
1970-01-01 00:00:00.200,1.6848462225,2.5419253705,9.2860960935,-0.89321139465,-1.09494370205,-0.7972320318,-0.28890848160000004,-1.58018839375,-0.5535540579999999,9.774030491070715,1.6224386640854913,1.699083742965864,10.459018163247132,1.6956139606166667,3.646412392333333,10.114361602166667,-0.44393323986666666,-0.2285841243333333,-0.4658728490333333,-0.323709100475,-1.33621364845,-0.7895400525,10.908278610052548,0.9579941398015781,1.6198046048243189,11.635503979442916,walking
1970-01-01 00:00:00.300,0.7486543732,2.0175981525,7.954938889,0.2766374499,-0.11384666335000002,-0.0417666798475,-1.2499509455,-0.9323564766,-1.2503318787,8.240888204751199,0.30204932873387885,1.9987485515961685,9.632131489906344,1.4588740637625,3.2392088323749997,9.574505923875,-0.263790567425,-0.1998997590875,-0.359846306736875,-0.63245638215,-1.2015945911666666,-0.9431373279,10.241431008727211,0.7940079370346533,1.7461192537482688,11.134660857058773,walking
1970-01-01 00:00:00.400,2.4675983190000004,3.9173498155,7.4497542385000015,0.41140562299999994,0.00908635184,0.09544488415,0.43847447635,0.8678615093000001,-1.63485384,8.77117490733016,0.4224297270981119,1.902154185101099,9.14912145158196,1.6606189148100001,3.3748370289999996,9.1495555868,-0.12875132934000003,-0.158102536902,-0.2687880685595,-0.364723667525,-0.68423056605,-1.116066455925,9.947379788447801,0.719692295047345,1.7851279865864764,10.73755297596341,walking
1970-01-01 00:00:00.500,1.6188941000000001,4.189084768,8.920891285,0.418277666,-0.464014843085,0.053296424425,-0.2349567413500001,0.96493816365,0.33506536485000005,9.987569805477875,0.6269820486537828,1.0481312554714264,8.996092360631918,1.6536647790083334,3.5105449854999997,9.111444869833333,-0.037579830116666685,-0.20908792126583334,-0.21510731972875,-0.33877028229000006,-0.35439682011,-0.82584009177,9.95407812461948,0.7042405873150847,1.6377286403634663,10.447309540074828,walking
1970-01-01 00:00:00.600,4.7001018525,4.9636116025,9.829416753,-0.11629004034999997,-2.1308642625,-0.08162446692000001,1.0975971222499998,1.4634411335,1.0375623702,11.972711942935218,2.135595568520465,2.1030727676536274,9.117066811518127,2.0888700752214286,3.7181259307857144,9.214012281714286,-0.048824145864285726,-0.483627398585,-0.19603834075607143,-0.09937571486666674,-0.05142382784166669,-0.515273014775,10.242454384378872,0.9087198703444247,1.7152859949118264,10.257274864566728,walking
1970-01-01 00:00:00.700,7.1445195675000015,3.1511979105,9.2454180725,0.23387814315000002,-0.5815265962099999,-0.8215895742,2.198925972,-0.4123653171500001,1.3665499688749998,12.10173390290993,1.0333835669184108,2.62159863490898,9.439822333138952,2.72082626175625,3.64725992825,9.2179380055625,-0.013486359737500005,-0.49586479828812496,-0.2742322449365625,0.2289530975428571,-0.10298689774285719,-0.24644115996785715,10.474864324195254,0.924302832416173,1.844759229197134,10.155093298138256,walking
1970-01-01 00:00:00.800,3.6013476845000003,2.448605299,5.8553864954999995,-0.30740889905,-0.7742488981,-1.1043354867,-0.2401199341,-1.9083702565,-1.8696699140000002,7.297323075390603,1.3832998426260024,2.682387035079545,9.889866214521264,2.8186619753944444,3.5140760805555558,8.844321171111112,-0.04614441966111112,-0.5267963649338889,-0.36646593846583336,0.17031896858749995,-0.32865981758750007,-0.44934475422187503,10.121804185439181,0.9753025002172652,1.9494627049324353,10.125623622180813,walking
1970-01-01 00:00:00.900,4.214059710500002,-1.0372886229,2.812314391,-2.375432253,-2.9002263545,-0.3944546133,-1.283264518,-4.0893945695,-3.200992942,5.171400116475502,3.7695604170622694,5.349417873278146,10.390249152996573,2.958201748905,3.05893961021,8.2411204931,-0.279073202995,-0.7641393638905,-0.36926480594925,0.008809692299999962,-0.7465192344666667,-0.7550834417527779,9.626763778542813,1.2547282919017655,2.327235501415292,10.152086175262388,walking
1970-01-01 00:00:01.000,8.8120179175,-2.4580270945500002,3.869493365,-4.6577868460000005,-4.5050749775,0.6850651800499999,1.22979974752,-4.5372854469999995,-1.65213179605,9.933103033677943,6.51613329794474,4.982861238091789,10.85771655184256,3.4903668551409095,2.557397182504545,7.843699845090909,-0.6771380796318183,-1.1042244196731816,-0.27341662540386363,0.13090869782199996,-1.1255958557199999,-0.8447882771825,9.654612801736915,1.7330378379056723,2.592798075082942,10.216234391315131,walking
1970-01-01 00:00:01.100,13.25309706,1.482652724,7.5791163445,-2.3940631745,-2.637027621,1.74129652995,3.5940999985000004,2.652150631,5.302203416499999,15.33903013052756,3.964538656972567,6.932879548836519,11.208415232245082,4.303927705545834,2.4678351442958335,7.821651220041666,-0.8202151708708333,-1.2319580197837499,-0.10552386245770833,0.4457442706109091,-0.7821643569272727,-0.285970850484091,10.128314245802803,1.9189962394945803,2.987350936333267,10.298916128059295,walking
1970-01-01 00:00:01.200,14.724234105,-0.9880862236,3.2792138757,-0.598477602,-0.460273396345,1.7617598179999998,5.586885452500002,2.544448614,3.7032094005,15.117295657844913,1.9167223836012415,7.169467739839146,11.37651331146225,5.105489736273077,2.201995039073077,7.472232962784615,-0.8031584348038462,-1.1725976641346152,0.03811334373134615,0.8741727024350001,-0.50494660935,0.046460837097916596,10.51208204672912,1.918821327502785,3.335860669958757,10.38180821909029,walking
1970-01-01 00:00:01.300,9.090931656,-3.2195428610000003,0.9809077344,-0.391094962115,1.1373212339,0.944598913,1.2834398745000002,1.3214945795,0.32946366084999995,9.693950412050018,1.5292880581866628,1.871393101121499,11.335799115892685,5.3901641591107134,1.814742331925,7.008566875042857,-0.7737253296117858,-1.0076034571321428,0.10286231296482143,0.9056547925938463,-0.3644511332846154,0.06823028507884608,10.453644072823469,1.8909975225516333,3.2232093185097375,10.449950426004747,walking
1970-01-01 00:00:01.400,9.919296741,-3.294916749,1.8559331295,0.52975730595,0.6239804625500001,0.25731941310999995,1.679602146,1.564114332,1.21393191815,10.615715331527575,0.8580254665304455,2.596372029259087,11.110049597756674,5.692106331236666,1.4740983931966667,6.665057958673333,-0.686826487241,-0.8988311958199999,0.11315945297449999,0.9609367464085716,-0.22669645719285716,0.15006611601249992,10.464448823403744,1.8221327188168877,3.178435226420405,10.493957037454875,walking
1970-01-01 00:00:01.500,5.8289158345,-3.2207392455,1.9864914866,-0.40392275155,0.80990710855,0.4961606711,-3.3724536895,1.43304240725,-1.1214934586999998,6.949501386396222,1.0321233091282973,3.8320754176693765,10.766070985828467,5.700656925190624,1.1806710407781251,6.37264755416875,-0.6691450037603126,-0.792035051796875,0.13709702910734375,0.6720440506813335,-0.11604719956333336,0.06529547769833327,10.244764608590774,1.7727571307113508,3.2220112391703366,10.510964159228225,walking
1970-01-01 00:00:01.600,6.4311594964999985,-4.1196928025,4.3697428705000005,0.4158342629499999,0.7066739352,0.8445726633499999,-2.16116523745,1.7419719695000002,1.908739805,8.799223489074363,1.177119012085157,3.3687370288102727,10.395160807016996,5.743627664679411,0.8688849323500001,6.2548296316,-0.6053226939538237,-0.7038756996205882,0.1787132428863235,0.4949684701731252,7.899850312499679e-05,0.18051074815468743,10.159732778030985,1.7377195943215746,3.2311816010228327,10.504152197333447,walking
1970-01-01 00:00:01.700,11.450254440999998,-6.589235305999999,6.116204262,0.7936432956999999,-0.007101096200000005,-0.016874641150000036,3.4842650890499995,-0.67075133335,3.84484303,14.557963568301167,0.793854432431249,5.231904862218252,10.093124994334271,6.060662485586111,0.45454491910833345,6.2471282221777775,-0.5276023611952778,-0.6651659994305555,0.16784724932874998,0.6708094477541178,-0.03938160925294118,0.39605970591029405,10.404078933045996,1.6852826408832233,3.3488712046225633,10.48131735272238,walking
1970-01-01 00:00:01.800,10.2245311735,-7.711917638499999,1.07662063835,-0.79501771925,-0.39277477555,0.48417279125,-1.7933351994,-1.7823939321500002,-3.12903785725,12.851996863515097,1.0103209836565015,4.022916501603762,9.943479730334827,6.279813469160525,0.024731100286842233,5.974996244081578,-0.5416768537244737,-0.6508296192263158,0.18449596206144733,0.5339125229122224,-0.1362156271916667,0.20022095240138882,10.53291671886016,1.6497583431344485,3.386318165565963,10.453010109438825,walking
1970-01-01 00:00:01.900,7.589734315999999,-6.5400328635000005,0.32856446505,-0.8502994030500001,-0.9491803052,1.1405282022499998,-0.6615879534000001,0.2872333524999999,-4.7571473125,10.024173354986512,1.7101920672060107,4.811512461970597,10.001101459705984,6.345309511502499,-0.3035070979024999,5.692674655129999,-0.55710798119075,-0.665747153525,0.23229757407087495,0.47099144521157915,-0.11392883878684212,-0.06069316680394744,10.507479550666478,1.6527800293380266,3.461328391692523,10.430414676952182,walking
1970-01-01 00:00:02.000,4.7289652825,-5.078467131,0.9545867144,-0.18462857975000002,-0.95421975855,2.06687808,-1.466255665,2.6952011585,-0.02110320300000013,7.004653941419709,2.283989504715862,3.0682992528599935,10.273873749071997,6.268340738692857,-0.5308861470976189,5.467051419857142,-0.5393708668364287,-0.6794839442404762,0.3196585505436904,0.3741290897010002,0.026527661077499997,-0.05871366861375008,10.340678331178536,1.682837623403638,3.441676934750896,10.422960347053126,walking
1970-01-01 00:00:02.100,3.6167513135000005,-6.422784567000001,-0.4052843450000002,-1.128845692,-0.8562551737,1.9602088930000001,-0.40081191065,3.2575612069999997,0.06706643105000001,7.382229138823818,2.418653431773817,3.2828117690851517,10.708389001489635,6.147813946638636,-0.7986997116386363,5.20012706690909,-0.5661651770711364,-0.687519000125,0.3942290206553409,0.3372271373033335,0.1803864013595238,-0.05272414005833341,10.206203367889685,1.7162837965113733,3.4341119268620512,10.43593437680024,walking
1970-01-01 00:00:02.200,4.8988559245,-9.7063357805,-0.18140585720000008,-1.3540192844999999,-0.45301960405,1.7306830290000002,1.07698070985,-0.4856767655,1.09805729965,10.874035669329476,2.243626245906418,1.6129163658572632,11.192923416407002,6.093511423936957,-1.185988236371739,4.96614737455652,-0.6004197034810871,-0.6773233742086956,0.452335716670326,0.37085229969181827,0.15011080286590908,-0.0004158927988637111,10.235239554908807,1.7392117290937668,3.3513303104527425,10.468846943739665,walking
1970-01-01 00:00:02.300,7.327720165500001,-13.985749245,0.7869395239,0.2968717516999999,-1.6367652415,0.4812712819500001,4.679835081,-5.4466991425,4.107950687500002,15.80872982191072,1.7316914677764559,8.273007118647985,11.586687295557468,6.14493678816875,-1.71931161173125,4.792013714112499,-0.5630325595152085,-0.7173001186791667,0.4535413652236458,0.5581993771400001,-0.09322875997608697,0.17820874112717391,10.467468316033887,1.7388983848722122,3.565316258635144,10.515423625065408,walking
1970-01-01 00:00:02.400,1.05284196135,-7.981259822999999,0.6601200105,2.5286022425,-0.95574691915,-0.41430716219999997,-0.31897783299999993,1.131772041159,1.0101418495000003,8.077421803154508,2.7347635910423707,1.5501746247458272,11.769016753819674,5.941252995096001,-1.969789540182,4.626737965967999,-0.4393671674346001,-0.7268379906979999,0.4188274241267,0.5216503267175001,-0.04218705992879168,0.21287262064270832,10.371866455518711,1.7787329931190186,3.4813520238897557,10.565567350215579,walking
1970-01-01 00:00:02.500,-1.1834003923,-24.143879893,4.303940177,2.1023834945,3.924922705,1.9050799386000001,-0.7892427443000001,-3.01472902295,2.8256018162500003,24.553029829805126,4.842970593615734,4.20660442818701,11.686991239257937,5.667227864811538,-2.8226391691365387,4.614322666392306,-0.34160752659096166,-0.5479241177865384,0.47599098237567306,0.46921460387680014,-0.16108873844964003,0.31738178846700005,10.91729581606819,1.8965882854458154,3.5103621200616457,10.60869903825567,walking
1970-01-01 00:00:02.600,0.06520438150000007,-1.5448661444999998,-0.14431712030000005,1.18153133235,1.417929245155,0.746913552,1.85448682315,8.690057040500001,-6.247027635499999,1.5529618305034985,1.9910850026434963,10.861932011529134,11.377466874790407,5.459745513577778,-2.7753142422981485,4.438076748366665,-0.28519497625981494,-0.4751147339738888,0.4860251516210185,0.522494304618077,0.17933994535611542,0.06490450292980773,10.570468631417645,1.900088163860544,3.793114808195011,10.63717192109029,walking
1970-01-01 00:00:02.700,-0.3285644353500001,-3.9976587295,1.871635936025,-0.7279008775850001,1.20481985805,-0.56213217975,1.8321693540000001,4.7990508080000005,-2.6855254175,4.426313475426769,1.51572529353149,5.796531718841948,10.952577142248163,5.253020158258929,-2.8189694025553576,4.346418147925892,-0.301005901307143,-0.41511706997303566,0.4485909612149107,0.5710007879285186,0.3504403476762593,-0.03696327190092589,10.351034518703685,1.8863609184916492,3.867315434515268,10.6484363932745,walking
1970-01-01 00:00:02.800,-3.7556845545,-11.9949207315,12.1396862275,0.22189027085,0.96078640215,-0.39361470935000004,-1.4597060085,-3.3548712735,6.83176684435,17.47441763064027,1.0617336494012577,7.749770390699744,10.556899468350165,4.942375168163794,-3.1353815173465525,4.615151529980172,-0.28297499881896565,-0.36767212265844823,0.41954938636784483,0.49847554519892867,0.21810778977710715,0.2083485179651786,10.596668419115291,1.8579254954195668,4.005974540093285,10.645279947587452,walking
1970-01-01 00:00:02.900,-3.4876885415,-11.786745072,-1.3019945625,-0.4143071470500001,-0.2799207717,0.42415706805,-2.9581552739999997,-3.331864833815,-5.040930152,12.360684471161226,0.6556792423911301,6.72777695031946,10.316129332071172,4.661373044508334,-3.4237603025016674,4.4179133268975,-0.2873527370933334,-0.3647470776265,0.41970297575725,0.3792813790196553,0.09569494068772415,0.027338908656034524,10.655468954183489,1.8178506203186189,4.099829795618326,10.634308260403577,walking
1970-01-01 00:00:03.000,1.4525928796,-10.165906908,-1.0829017159999998,-1.775274873,-1.4335058330000001,-0.4417189059,3.5612113475,-0.9151802064,-5.22980248885,10.32610117433015,2.324146174357302,6.393012994209442,10.295888656676777,4.557864006930646,-3.641248902679033,4.240467680352419,-0.3353502253483872,-0.3992231665095161,0.39191517312314517,0.48534571130233345,0.06199910245146668,-0.14789913792749995,10.644844187091447,1.834182734965028,4.176269235571363,10.623391498993035,walking
1970-01-01 00:00:03.100,-0.9904790224500001,-7.3552377225,0.83973115705,-1.582323432,-0.6214607505849999,-0.56549185515,-0.5305281281299999,1.4273951051500002,0.1583871845000001,7.468983804007144,1.7915752694807212,1.53101384094238,10.481577108459412,4.3844782872625006,-3.757311053298438,4.134194663999218,-0.37431813805625014,-0.40616809101187495,0.36199620348960937,0.4525755874496776,0.10604413479658067,-0.13801893397822576,10.545598550120063,1.8328512516686435,4.090938416389783,10.61895979928886,walking
1970-01-01 00:00:03.200,-0.13833505473000002,-8.078318834000001,-0.50219365935,-1.2806412575,-2.0302272434999997,0.062688201645,0.5261924565,1.698191166,0.7332760096,8.095095443700316,2.401206884315942,1.9231290762226134,10.784104191564511,4.247423337505152,-3.888250683016667,3.9936980481401507,-0.40178247500909103,-0.45538200472363627,0.35292626403977273,0.45487611460750016,0.15579872952168752,-0.1107909669914062,10.471340880228555,1.8500741496276525,4.023194374509559,10.623964174812363,walking
1970-01-01 00:00:03.300,0.86365938205,-9.8738331805,1.6727325617500002,-1.7681737544999998,-0.8492304087,0.20264858005,1.101236969225,-0.2954087255,2.821269869695,10.051692565318762,1.971977981661985,3.042951339594217,11.071791568084002,4.14790086822706,-4.064297227060295,3.9254343573639696,-0.44197045381764716,-0.4669657813111764,0.34850633215772064,0.47446280717166683,0.14212577633921214,-0.021940638606969647,10.458998282731208,1.8536595564521916,3.9934900401181848,10.637135568732118,walking
1970-01-01 00:00:03.400,4.7947678565,-14.21680641,5.1047879455,1.07333503645,-0.86129464205,-1.1340379715,5.1986336705000005,-5.5189461710000005,6.492409229500001,15.84822524024898,1.7832326493475255,9.981780226079348,11.220648176408028,4.166382782177715,-4.3543689180014296,3.9591301741678557,-0.3986760112385715,-0.4782323201894285,0.30614792348178577,0.6134090090342649,-0.024376339758999985,0.16965788692558828,10.612976195803146,1.8516473591063443,4.1696162220582185,10.653807357522858,walking
1970-01-01 00:00:03.500,-0.6590730845499999,-16.50419474,-2.799303472,3.642329454,-0.15233002976000004,-0.97078901515,-1.68009105315,-6.688955784,-1.7259646357499996,16.752877999763896,3.772558760493802,7.109415542155443,11.164400117150317,4.032342341435278,-4.6918640797236115,3.771395906218749,-0.28642585942638893,-0.4691794787886111,0.2706774529642362,0.5478804358290001,-0.21479289530874285,0.1154972434205715,10.783529023690944,1.905006009144885,4.253610488346711,10.66799048973473,walking
1970-01-01 00:00:03.600,0.16809570800000007,-8.707930089500001,-1.3114163422225,1.755804002,1.0078215898,-0.69376978275,0.16171884550000004,-1.1382274625,-4.300871611,8.807730436004258,2.1400627471556057,4.451877284436845,10.921235684692434,3.9279032432343253,-4.800406404312163,3.634022602206824,-0.23123045776621629,-0.42926053098891886,0.244611311458446,0.537153724986528,-0.2404438555085,-0.007179669202222152,10.730129061861573,1.9113588939559856,4.2591178993492145,10.674834954463318,walking
1970-01-01 00:00:03.700,0.7368398010999999,-3.2733813525,-1.6585251988,0.5362475157850001,1.5785819885,-0.9361997842499999,-0.26613825559500004,5.284851551,-5.5137195585,3.742815010982295,1.9120545307683945,7.642093224829418,10.58390697494292,3.843927889493948,-4.760221534527632,3.494745028496118,-0.2110336689885527,-0.37642256994973683,0.21353733525559215,0.515443130916757,-0.09111154722448649,-0.15600507161567562,10.546252376312118,1.9113772001878913,4.350549664902733,10.672442112896992,walking
1970-01-01 00:00:03.800,0.18245270859999999,-6.324529289999999,5.15025140965,-1.5113888384999998,1.9207328555,-0.06589514575000001,-1.54047536855,4.1930708884999985,-2.7979574205,8.1583116705324,2.444964845058713,5.271003088979026,10.279387312716958,3.7500439104966676,-4.800331989796154,3.537193910064166,-0.24437610923243597,-0.31752114878435894,0.20637239984519234,0.4613400125097371,0.021630095820894694,-0.225530133428421,10.485023127445972,1.9250589346717584,4.374772123431057,10.662363784687246,walking
1970-01-01 00:00:03.900,1.3351951245000002,-14.7519016275,7.2320070265,0.2485384840945,1.300951958,-1.11945399635,1.627159715,-4.2474627505,6.824529527,16.48342419763779,1.7341927877384369,8.20138962736796,10.119380059160203,3.6896726908467508,-5.04912123073875,3.6295642379750617,-0.2320532443992626,-0.27705932111474996,0.17322673994031254,0.49123282539410285,-0.08783382331553852,-0.044759372904615305,10.634983154200768,1.9202872809984253,4.4728905209679,10.64878919154907,walking
1970-01-01 00:00:04.000,0.7857429985,-11.258828641500001,0.9017950592,0.06696413454999994,0.1458397843,-1.2196329240000001,-1.2143082025,-3.0435767175000006,-2.3544186355,11.32218392215698,1.2301454821709061,4.0349957567705745,10.162971027899086,3.618845137374879,-5.20057750905,3.5630332823951822,-0.22476013759562202,-0.2667447087875609,0.13925455301493908,0.4485942996967503,-0.16172739567015007,-0.10250085446949993,10.651744148541162,1.9034545541977543,4.461943151862966,10.636939968045413,walking
1970-01-01 00:00:04.100,1.5327524540000002,-9.2478113175,-2.3995523455,-1.6805171369999998,-1.075320214,0.39330927374499997,-0.7735688690000001,0.18173980715,-5.8819174766,9.676218047776654,2.0335052483830727,5.9353509882837905,10.401199728702895,3.5691762639611913,-5.296940218775,3.421066957921487,-0.25942101853382155,-0.28599650653071423,0.1453034749370834,0.4187854419236588,-0.1533501468208781,-0.24346223549707313,10.628517336618199,1.9065509992974048,4.497879928361036,10.631327105203924,walking
1970-01-01 00:00:04.200,1.909921169,-7.992027283,1.2909278275,-1.8870598675,-1.5767494441999999,0.298551585515,0.4916180371000001,1.3119168284999998,-0.25620076034999995,8.3178599182617,2.4771489261906816,1.4242376518360527,10.762636186689301,3.5305889361713962,-5.35961666212907,3.37152883860936,-0.2972730847888489,-0.3160140167090697,0.14886738448540704,0.4205195513326193,-0.11846283788466673,-0.24376553370785708,10.574781117586653,1.919820718527481,4.4246979693961555,10.63438080477335,walking
1970-01-01 00:00:04.300,1.7217854263499999,-9.3351488115,1.0467103424,-1.1540431979999999,-0.9187906385,0.9254336057,-0.21061074719999995,-0.3908872604500001,2.0616674425,9.550138791040068,1.741384305316953,2.1089386858519004,11.135893458138186,3.489479765493637,-5.449969665523864,3.3186920546046013,-0.31674513281637506,-0.3297134853861363,0.1665166167857387,0.4058421025295351,-0.12479828957223263,-0.19015081333093015,10.55149379198332,1.915765345499969,4.370843102336987,10.645778819622551,walking
1970-01-01 00:00:04.400,3.0889844895,-9.690782072000001,0.8600702284999999,-1.7248036265,-0.69858017565,0.6635328233000001,1.9386621715,0.3278849125000001,1.6740176674999998,10.207487601820551,1.975661311914369,2.582296397037406,11.405025064202608,3.4805798704715567,-5.544209941223333,3.2640560140244994,-0.3480353215649001,-0.33791052294755547,0.1775614213749445,0.44067892227886385,-0.11451003497968189,-0.14778334785749994,10.543849209979705,1.9170963669758445,4.330194313580178,10.662650958390998,walking
1970-01-01 00:00:04.500,3.606133163,-14.022838115,4.968247533,1.56086745845,-0.2014268935,-0.5273902415999999,3.5118096174,-3.892481327000001,7.922686576499999,15.307764981797497,1.6598254375711108,9.500167380597045,11.490059450544566,3.483309289874349,-5.728527945001088,3.301103655741358,-0.30653743504283704,-0.33494348752478253,0.16223638522331527,0.5089262710593335,-0.1984649525801334,0.03156042823933339,10.64741259632357,1.9115035206844373,4.445082603958331,10.68063809952477,walking
1970-01-01 00:00:04.600,0.4446163775,-16.27687645,-2.1146569552,3.5443648100000003,1.4030398129,-0.4049153812,1.4683756528,-6.978726864,-2.4788873195,16.41968832621014,3.8334056775772045,7.5500753666986,11.378243532867522,3.4186562491855335,-5.952960891915957,3.185874706572393,-0.22460334472277665,-0.29796511943063825,0.15016932636324473,0.5297838663145654,-0.34586195065447833,-0.023014522798478213,10.770226973555198,1.952395055937475,4.512582446626597,10.695480768319298,walking
1970-01-01 00:00:04.700,-1.36420801285,-9.593723295,-1.1630613508,2.6178622245,0.9186379162299999,0.59061294795,-2.141170144,-1.8397045135,-2.9430709485000004,9.759779806382648,2.836533430419193,4.078086425083945,11.130124294615838,3.3190132437264595,-6.0288101086468755,3.0952718720438015,-0.16538531203063547,-0.27261922285437495,0.15934523514630214,0.47295505758446826,-0.3776458349703405,-0.08514338291978718,10.74917599090577,1.9708146054058442,4.503337850423562,10.704535841783809,walking
1970-01-01 00:00:04.800,3.2875887155,-2.0787646175,-1.3772189914,0.8267817737100001,2.465226889,-0.3516189456,3.1711590289999996,6.5742001535000005,-5.4174914360000015,4.126285744774069,2.6238421443548257,9.089860873776948,10.85459785061234,3.3183719268238785,-5.948196935358163,3.00399654830005,-0.14513700415837763,-0.2167448124083673,0.14891739472290821,0.5291676403222918,-0.2328157102105417,-0.1962339673589583,10.61401496547451,1.984141698037456,4.598890413410091,10.7075983317599,walking
1970-01-01 00:00:04.900,-1.54486607035,-5.663811326,6.893123926,-1.1717577277,1.4926816225,-0.70499411225,0.7120090723000001,5.3789000510000005,-2.7794327735000004,9.054309878231372,2.0243841771958864,6.096291431689533,10.664128176496417,3.221107166880401,-5.942509223170999,3.081779095854049,-0.16566941862921006,-0.18255628371019994,0.13183916458345005,0.5328990981177553,-0.11829089875726534,-0.24895231034142853,10.582820863729648,1.9849465476206245,4.629449617864774,10.706728928654632,walking
1970-01-01 00:00:05.000,-2.1254247127,-10.9332556725,9.184251310499999,0.468367150499,0.86862478294,-0.6075639427,-2.8525843625,-7.291095017999999,2.959584713,14.436203861958663,1.1588834046931917,8.369972866151194,10.632586083361264,3.1162732084572555,-6.040366996687255,3.2014354137882832,-0.15323732903846085,-0.16194489024647055,0.1173410644406373,0.4651894289054001,-0.26174698114211997,-0.18478156987459995,10.658377393106688,1.9687492310926356,4.704260082830502,10.705275147374369,walking
1970-01-01 00:00:05.100,-2.9621648790000004,-11.254043104,-5.335994601,-1.4228923321,-2.575561047,0.6187119185500001,-3.36461699,-2.62769413,-7.48971653,12.802372644903452,3.006815879585668,8.620978925272254,10.774345232399277,2.999380168313847,-6.140629998750962,3.037254067350047,-0.1776537714050289,-0.20836058556865383,0.12698281163504813,0.39009518539745114,-0.3081381017079608,-0.32801558870058817,10.699608071025857,1.988712051255963,4.7810584915058305,10.706603418240233,walking
1970-01-01 00:00:05.200,5.893671751,-11.412118910999999,-2.3983559610000005,-2.34901309,-2.1602613930000003,0.4158342779,5.3384172915,-2.21382141135,-5.85542154145,13.066136998478298,3.2183085510488683,8.227129866947196,11.04850558909598,3.053989443458869,-6.2400920536990565,2.9346953875698576,-0.2186228151521038,-0.24518890269,0.13243283930042457,0.4852552258994232,-0.3447858576626154,-0.43431185702269226,10.744259560223075,2.01191198521432,4.8473290948797025,10.713054402596,walking
1970-01-01 00:00:05.300,-0.5908776521500001,-7.307381153,1.8560826185,-2.3684074880000003,-0.56854608645,-0.90603920815,0.006731748499999801,2.7208199505,1.6945839227000001,7.5625391504261135,2.5987508015077476,3.205389397647345,11.379433160902813,2.986491904651297,-6.259856666649074,2.914721077031527,-0.25843364242706485,-0.25117699868555554,0.11320187545875005,0.47622648104283033,-0.2869442386406792,-0.3941440121222641,10.6853388118935,2.022779370701235,4.8163491005923,10.725394749972054,walking
1970-01-01 00:00:05.400,-0.09646070000000008,-8.0627653595,-1.5424733162,-1.17893523,-2.492791295,0.31512082370000005,-1.40901187055,1.2647428514499999,-0.038118362499999885,8.209550160647458,2.775463537950426,1.893763961322627,11.682443455127459,2.9304382209303643,-6.292636824700909,2.833681178972772,-0.275170034928391,-0.2919336222549091,0.1168731290631364,0.44131465971703715,-0.2582092925278888,-0.3875509445366666,10.640324472779938,2.0364645373784933,4.762227153568786,10.742795635520334,walking
1970-01-01 00:00:05.500,4.4032422305,-13.230365275,2.9177480043450004,-1.2668972762,-0.6946860590000001,0.586107932,5.291059971,-2.065170765,6.290341615499999,14.245854164185582,1.5592113188933845,8.475178083380925,11.887880546257128,2.9567382925298227,-6.416524832741964,2.8351823722829903,-0.29287944995109827,-0.29912563005392856,0.12525232197272326,0.5294918471949092,-0.2910631374819272,-0.26613471617236356,10.704708931555038,2.0279421584769737,4.829735352292643,10.76324358035492,walking
1970-01-01 00:00:05.600,1.2623634412,-14.192878245,3.7891842125,1.34004614509,0.6250494718999999,-0.6335249692,2.3619002404,-5.686097145,6.0190706255,14.7441266723849,1.6086529768389761,8.610428832685146,11.959647815363061,2.9270124179450887,-6.552952085588596,2.8519192466727628,-0.2642316324942369,-0.28291203177403507,0.11194043967144741,0.5622134256450001,-0.3874030304733213,-0.15389890649964277,10.775575909464335,2.0205862079219212,4.8972477358710815,10.784233128337519,walking
1970-01-01 00:00:05.700,-1.917099595,-16.24457407,-2.93345102665,3.548335433,0.8700755389,-0.3752892837,-2.686917901,-6.749693871,-3.8641557694,16.618260814496185,3.672677202659592,8.228584019691148,11.903200265744154,2.8434932453081045,-6.72004901635431,2.7521714833396116,-0.19849771757192247,-0.263032935727931,0.10353992719952591,0.505211121668772,-0.4990221680264209,-0.21899113216456131,10.876311856102816,2.049070535417398,4.955692232078451,10.803525665189358,walking
1970-01-01 00:00:05.800,1.04327070725,-6.149853229500001,-1.8991534115000002,2.4865300655,1.1244171338000002,0.216698059805,0.19955092670000002,1.5681061743,-5.7128143310000015,6.520421166873318,2.737536064884204,5.92748050411839,11.758693365666435,2.81298099890034,-6.710384680983898,2.673335468172838,-0.15298877209612718,-0.23951683285457626,0.10545786165046615,0.49994111830724147,-0.4633820241932068,-0.3137122217996551,10.802483200353164,2.0607394426964967,4.972447202286036,10.819714948248292,walking
1970-01-01 00:00:05.900,1.51241350185,-2.0476579665,-1.7853447795,1.0469922199,2.5907559394999997,-0.41835400465,2.23266482335,6.147135972999999,-6.607137203000001,3.1093011642549198,2.8254608685650466,9.296576515214717,11.581678691340644,2.791304873949501,-6.632672569075834,2.599024130711624,-0.1329890888961917,-0.192345619982,0.09672766387879171,0.5293093166977967,-0.3513393462746779,-0.42038044181999995,10.674263499751527,2.0734847997943056,5.04573752962381,10.832414343966498,walking
1970-01-01 00:00:06.000,-5.030610382500001,-15.2461683775,9.384201883,-1.6686820384999999,1.1175450386,-0.7117134034499999,-3.5484251380000003,-1.2418684959999997,2.5034766175,18.596126908485502,2.130714112114146,4.516741468771139,11.421733674965372,2.663076754991313,-6.773877418394263,2.7102565528802858,-0.15816438315199186,-0.17087200262819674,0.08347453162750004,0.46134707578616674,-0.3661814987700999,-0.3716494908313333,10.804130113009462,2.074422985242172,5.036920928609599,10.842075316605824,walking
1970-01-01 00:00:06.100,-3.4673496485000004,-13.2711930265,3.5857943295,1.00591275115,1.28965127465,-0.22463908046,-1.6652619839999998,-4.241886139,3.5411961080000003,14.177623175449744,1.6509159850223891,5.7712013798610675,11.309721532436434,2.564198909773711,-6.878672831428226,2.7243781299225396,-0.13938894550195974,-0.14731517557532262,0.07850495723899197,0.42648463218311483,-0.42971764041321303,-0.3075044810144262,10.858541291435918,2.067592227174111,5.048958313056344,10.849617997506318,walking
1970-01-01 00:00:06.200,2.5728825330000005,-7.9622669835,-8.085497141000001,-1.2329951525,-1.8479656873,0.55411481855,2.3755946155000003,2.3995227814999995,-13.113704679000001,11.635836199529018,2.2896063984150987,13.54143307645674,11.255704240694016,2.5643367450630175,-6.895872738603968,2.5527928081618643,-0.1567477741844683,-0.174309628142381,0.08605432011694449,0.45792188997854844,-0.38408473038235474,-0.5140560971109677,10.870879305850092,2.0711162616382532,5.185933712466028,10.856063810890252,walking
1970-01-01 00:00:06.300,0.9390333442899998,-9.2657570835,2.7644578815000003,-1.825364292,-0.5656445622499999,-0.32351997495,2.35856092,-1.5914878844999998,1.46820199514,9.714847674086627,1.9381882631734473,3.201758953824383,11.251255054612566,2.538941379425939,-6.9329021814929686,2.5561000749327727,-0.18281990727533598,-0.18042423648781253,0.07965472175652348,0.4880907634709524,-0.40324985981279354,-0.48259168294825394,10.852816311603789,2.069039261662241,5.154438875027271,10.862238674073412,walking
1970-01-01 00:00:06.400,-0.4938187786,-8.6828055385,1.6956139205,-1.6088953615,-1.08280310025,-0.58862769605,-0.243615374,1.0656003951500002,0.465038657,8.860591152564124,2.026694205528885,1.1879030284906928,11.270873676790103,2.4922835308409246,-6.959823771600769,2.542861826403038,-0.20475952964802313,-0.19430698823800002,0.06937345379026928,0.47665785507296876,-0.3802990745789999,-0.46778495888656246,10.82216669377241,2.068387799260189,5.0924617524251365,10.8685253664229,walking
1970-01-01 00:00:06.500,0.6182455716000002,-9.064610481,-0.7274180949,-1.5353646280000002,-1.359287858,0.16462333875,0.09669625749999987,1.2860274315,0.2935169488,9.114742335570766,2.0572089989792004,1.3226371082114154,11.274839316724556,2.4638890163069713,-6.991714479318939,2.4933121306257187,-0.2249202129563864,-0.21195821353742428,0.07081663386541671,0.4708122920333846,-0.35466328217778453,-0.45607262184523073,10.796296627739052,2.0682184234983563,5.034464450206464,10.874681638397165,walking
1970-01-01 00:00:06.600,1.9649560155,-11.75324583,3.109174013,-0.940017611,-0.783106189295,-0.024662956615,2.58046335,-2.590092659,5.858921528,12.315307658616431,1.223722466138167,6.9061083508848,11.21973987622593,2.456442255100897,-7.062782111418657,2.5025040990193648,-0.23559330844957466,-0.2204828101905224,0.06939156535078364,0.5027767020025758,-0.3885334242508484,-0.3603908923021212,10.818968434170056,2.055614006224323,5.062822691125833,10.879831761349834,walking
1970-01-01 00:00:06.700,-0.05802595615000002,-15.51311779,0.4674978254999997,2.8585360645,0.1127776727,-0.003206945949999998,0.5601280332,-5.5426464079999995,6.791539669,15.520268837711829,2.8607617027653847,8.784058497829601,11.077366488497832,2.419464781406031,-7.187051753750736,2.472577536173492,-0.19009140590619858,-0.21558192073625002,0.06832394018459564,0.5036326920204478,-0.465460483709791,-0.25364566004388056,10.888105204810376,2.0674544135263977,5.11836352406171,10.882736683807893,walking
1970-01-01 00:00:06.800,-1.64312142125,-13.120295525,-1.6730317174,2.1762959955000003,1.8775153907,0.36956258115,-0.7915019690999999,-4.2904577255000005,-3.6445947885,13.328204597609238,2.89791387099944,5.684854794429949,10.852900693336913,2.3605867204979725,-7.273040793913769,2.4124962426434413,-0.15579593632060149,-0.18524717709224642,0.07268971758989136,0.48458659406279425,-0.5217104431478823,-0.3035125589917647,10.923468964126302,2.079490057837601,5.126694278037713,10.882304278148894,walking
1970-01-01 00:00:06.900,-0.3526422975,-6.365356922,-2.285743833,1.4147222640000001,-0.2131856978,0.13095038011800006,-0.047074795000000114,2.13649463677,-6.065821409500001,6.772499553675654,1.4366750600107205,6.431252968218544,10.589751634581877,2.321826305955144,-7.260073881457858,2.3453785272771066,-0.1333599620303072,-0.18564629881664288,0.07352201276886434,0.476881356540145,-0.48318573184472446,-0.3870242814628985,10.864169401119863,2.0703069864400745,5.145600925721493,10.878124954669365,walking
1970-01-01 00:00:07.000,-0.7547860145499999,-3.2325538395,-0.9954142309,-0.5542675404999999,1.600190699,-0.6297835112000001,0.5638731718500001,5.899168014500001,-4.920915603499999,3.4655383050984594,1.8067789158049827,7.702827181886,10.355644063295001,2.2784937380607055,-7.203348247064085,2.2983251081478517,-0.13928823778340146,-0.1604936650445775,0.06361630116366906,0.4781240967588572,-0.3920092497540856,-0.45179415749199997,10.759963329344915,2.066595323473383,5.182132729380986,10.87076606887536,walking
1970-01-01 00:00:07.100,-2.23444768805,-14.7782218455,9.186644198,-0.028938889500000013,1.2633084655000002,-0.8096016943500001,-0.893658042,-2.8194599150000004,3.8718280795,17.543746150867904,1.5007466947569297,4.872271706866084,10.216484053633534,2.21581399603139,-7.308554824820139,2.3939962066180205,-0.137755607946132,-0.14071863545368057,0.051488273448201435,0.45880322156507053,-0.42619869574346464,-0.39089806964704227,10.854182535199401,2.05873631474121,5.177768489627255,10.861678818663668,walking
1970-01-01 00:00:07.200,-1.9962122437999998,-10.2330555915,-0.317946434,0.99056518095,-0.9266552923,0.16721944510000006,-0.4192828535,-4.11020278925,0.3059635164999999,10.43078999864918,1.3667010467829666,4.14284669682896,10.210748624263143,2.1581150064446586,-7.3486164791582205,2.3568463074314723,-0.12229915878317128,-0.15148489102691784,0.0530736319639795,0.4466075816336112,-0.47736541926438875,-0.3812194365061111,10.848382637438439,2.0492563795636998,5.16339457583839,10.852761966685579,walking
1970-01-01 00:00:07.300,-0.6447161435000002,-9.4272723215,-3.468546033,-0.7930324674999999,-3.714104056,1.4325895309999999,-1.3560780885,1.218493223,-9.539444446000001,10.065780342946569,4.059037102273837,9.712089057197067,10.334134837833396,2.120238909823785,-7.37670642297365,2.2781247893175336,-0.13136312241447978,-0.19962839325628381,0.0717157387077095,0.4219132573852056,-0.45413447895939707,-0.5066745736224657,10.837806930756116,2.076415578519242,5.225705459144673,10.84575349197136,walking
1970-01-01 00:00:07.400,3.0792635379,-8.828767776500003,1.6764713525,-1.673186958,-1.1993986071,-0.30038414150000003,3.6983740330000003,-0.7930102349,-0.5728372335000002,9.49945054110807,2.080466834054176,3.825569005613253,10.537801682256745,2.1330259048648013,-7.396067241020669,2.2701027434932994,-0.15192077355562006,-0.21295866277420003,0.0667544069716067,0.4661897543529731,-0.4587138810667026,-0.5075686636208108,10.819962178894142,2.076469595259708,5.206784696259113,10.841647467841831,walking
1970-01-01 00:00:07.500,-2.2546371219999997,-8.171638727000001,3.318695545,-0.8859575987,-1.3469945195,0.624056831,-2.2077429294999997,2.374199152,2.727190733,9.103450343518631,1.7288036414165342,4.236569337361993,10.740185213949198,2.07529349661658,-7.406272128994081,2.283900017197335,-0.1615791528338356,-0.2278801872048027,0.07408733360355925,0.43053731856826677,-0.42094170729247987,-0.46443853833253335,10.797376496849727,2.0718950432354557,5.193848491473818,10.840312438185348,walking
1970-01-01 00:00:07.600,1.7327026725,-9.5506525015,1.16395866855,-1.3014101384999999,0.03565821050000004,0.70468866825,2.003644109,0.177536010735,0.3814817664999999,9.776094390797867,1.4803803483316744,2.0473487951030873,10.851431559301737,2.070844265134547,-7.434121224740911,2.2693553243577593,-0.17638215264768187,-0.22445761061123382,0.0822769613262403,0.45123609212657906,-0.4130670004763288,-0.45330800800578946,10.784113092875028,2.064213034210731,5.152447179679466,10.840456842355692,walking
1970-01-01 00:00:07.700,-0.32392835615000004,-10.9954686145,5.024478793,0.995681055135,-0.6358156576,-0.05810684711,1.3119294645,-0.40779352189999996,5.1014630795,12.093413363218811,1.1828012173163893,5.283216825744376,10.806242846571688,2.0401420520411553,-7.479779524609619,2.304677420109583,-0.1613557012658526,-0.2297314317264744,0.08047716891039106,0.4624139281314286,-0.4129985137415713,-0.3811681237524675,10.800898993776872,2.0529128827120857,5.154145486771219,10.840018201384101,walking
1970-01-01 00:00:07.800,0.35847472774000005,-14.124682905,1.0072288515,2.771948516,-0.35261157155,-0.5541911495999999,0.16262349474999993,-4.580813885,0.4526293279999991,14.16508670134149,2.848712222398137,4.605993438838057,10.594506427842228,2.0188551238854444,-7.563892225627218,2.28825402050693,-0.1242252681359051,-0.2312868765343671,0.07244339272671523,0.45857046103679494,-0.4664320441423204,-0.37047841283256405,10.843483648303007,2.0629862920752005,5.147117896413101,10.836910457415218,walking
1970-01-01 00:00:07.900,-1.38574346915,-11.431261064500001,3.30912419015,1.7815359830000002,0.040774053895,-0.7043069005,-1.43365839115,-3.3421502115,-0.7188279630000001,11.980998180155169,1.9161370494530723,3.7070281977798647,10.27488146797321,1.9762976414725018,-7.6122343361131275,2.3010148976274682,-0.1004032524967063,-0.22788611490400004,0.06273401406138128,0.4346181970850634,-0.5028335399316581,-0.374887900809367,10.857702579951159,2.061150676542424,5.128888912886098,10.829885095047192,walking
1970-01-01 00:00:08.000,-1.8824036420500003,-5.5345988275,3.0254250765,0.65902784485,0.9300913216,-0.09689564724500001,-2.61742419,2.478005886,-2.5327947135,6.582433026357542,1.1440176280365166,4.405277700915272,9.960889201531655,1.9286593540216066,-7.586584515019138,2.3099582331691044,-0.09102755993687042,-0.21359009716938276,0.060763277502043245,0.39646766724650007,-0.4655730471075124,-0.40186173596799996,10.804921474351238,2.049828046313956,5.119843772736464,10.819156750682803,walking
1970-01-01 00:00:08.100,-0.93798649335,-5.454289675,2.2209880948,-1.19099944845,2.053668499,0.007941015064999949,-0.7349934577999999,2.8974275590000005,-3.4852391480000002,5.963378458370889,2.374046555927954,4.591535011454586,9.782045066460014,1.8937002583219529,-7.560580919409149,2.3088732314816762,-0.10444185126020128,-0.1859406020941464,0.060119103569884175,0.3824990113817285,-0.4240545211061851,-0.4399281237708641,10.745878266839282,2.053781930577541,5.1133214423502675,10.806509047216672,walking
1970-01-01 00:00:08.200,-2.84611310055,-9.1305625435,4.1506500245,-0.5832063854,3.0901236535,-0.60328800975,1.268490851,2.671037912,7.8094317913,10.425709940707605,3.2020228457335587,8.350493247071046,9.836079205767515,1.8365940732753026,-7.579496360663255,2.3310633133252705,-0.11021009865947597,-0.1464699484122892,0.05212624678289762,0.39330378991365866,-0.38630949143415844,-0.3393261735870731,10.742020817126853,2.067616158470987,5.1527991472858865,10.794817121416079,walking
1970-01-01 00:00:08.300,-1.6525431869999998,-14.171192645,4.3553857805,0.399723179635,-0.5914528371500001,-0.09017632529999994,-1.4583595397,-6.0008716585,4.6332501175,14.91720433806495,0.7195323818667999,7.720380810564742,10.152500907764335,1.795056724938692,-7.657968935476788,2.3551623903154457,-0.10413946439406553,-0.15176736375440478,0.050432168543815506,0.37099459317132544,-0.4539548187482047,-0.27941561586313246,10.791725382852306,2.051567542082842,5.183733866120572,10.787170499824986,walking
1970-01-01 00:00:08.400,-3.4683963060000003,-5.801547884500001,-6.193073749500001,-2.052141428,-1.731446505,0.6360446811,-2.2765150665,2.4911799429499997,-8.150991798,9.167436569639676,2.7593014109636873,8.821970621534689,10.680398600253868,1.7331337481041194,-7.636128687818237,2.254594906317617,-0.12705713455413536,-0.17035182423964706,0.057321727515064744,0.3394766210323811,-0.41889369063274995,-0.37312485612666657,10.772616102696864,2.059893822893205,5.22704620844693,10.785914359830032,walking
1970-01-01 00:00:08.500,4.600799799,-11.752048970499999,1.20822584605,-2.469731808,-0.5571690205000001,0.26823830605,7.3228390215,-1.99881839755,-1.93286710955,12.678242129355779,2.5459702098972903,7.832957397073446,11.301637765029508,1.7664787021843038,-7.683988225988956,2.242427824221482,-0.15429753773373844,-0.17484969861476746,0.059774245870122124,0.4216338257437648,-0.43748104012589406,-0.3914747649904705,10.794774544867316,2.0655458739048806,5.2577039871366535,10.79191114361142,walking
1970-01-01 00:00:08.600,-1.2982558605,-7.5563845635,1.7075780479,-1.9332551955,-0.9354361893,-1.18412741995,-0.8289359211,2.106162548,3.459113121,7.85494995149515,2.45248328472536,4.133826196607946,11.863145084204927,1.7312518681304612,-7.682521517224716,2.236280125643074,-0.1747453269034656,-0.18359207207091957,0.04547652557333911,0.407092317059535,-0.40790378910117436,-0.34670048724639524,10.760983457587177,2.0699934303510927,5.244635640735157,10.804224177411346,walking
1970-01-01 00:00:08.700,-1.0851450487999998,-9.8271732315,-2.2799112795,-1.444348335,-0.615199551,0.1305685956,-0.5013139396999999,0.15615272525,0.65759813805,10.146372205928413,1.5753287779142582,0.841507368302479,12.220140477364307,1.6992473577107967,-7.706892559432389,2.1849597687664484,-0.18917263381365348,-0.18849670251329548,0.046443480914551166,0.39665086583241393,-0.4014203808902413,-0.3351568248866666,10.753999238818327,2.064372241118856,5.194024970937081,10.820314135365358,walking
1970-01-01 00:00:08.800,3.765255928,-13.62054491,5.748756528,-0.8806126412999999,-0.343525216,0.28999973835000004,3.7848810555,-4.2831878660000005,7.108430385499999,15.255969240493659,0.9887305225835185,9.121447552073745,12.280960379965297,1.7224609371522484,-7.773338091461238,2.2250024289825556,-0.1969416226618147,-0.19023859592325845,0.04918006807674721,0.43515348162409107,-0.4455313750392158,-0.25057060658681807,10.80458317142142,2.052286379112841,5.238654772995452,10.83672589092266,walking
1970-01-01 00:00:08.900,0.9115158915000002,-15.965660095,-3.209971428,3.0277407765000004,1.3151541349999998,-0.45737187565,1.38751915085,-5.479952335499999,1.2833266259999998,16.3106431528039,3.332571625805516,5.7967244390541754,12.040424168250574,1.713450436645001,-7.864363891500558,2.1646138305716387,-0.1611118182266834,-0.17351201002411112,0.043551713146450025,0.4458542194805619,-0.5020979026848427,-0.23333580622067404,10.865761615659004,2.0665117707427596,5.244925218681504,10.850100316226303,walking
1970-01-01 00:00:09.000,-2.8866413835,-14.443077563,-0.3142075535000002,3.4079933165,1.39257909751,0.08406785875000006,-2.6912976505,-5.6195816995,-4.3179416655,14.732070945880123,3.6824940452097468,7.580725674208443,11.586792503726867,1.662899977082968,-7.936657448330222,2.1373740351422796,-0.12189088268023633,-0.1563022176336264,0.04399694551571981,0.41099697648077793,-0.5589588337605667,-0.27872031576822215,10.908248531375719,2.084269817714924,5.270878557076249,10.858195834770266,walking
1970-01-01 00:00:09.100,2.09297204015,-3.6551861764999996,-2.9884859325,2.7972986695,1.326073066145,0.09040539292000001,1.9723942578,3.893520117,-6.079130172999999,5.164490886280731,3.097018365817467,7.483693050223606,11.074423121763594,1.667574673420653,-7.890119717114676,2.0816581659287765,-0.09016056146088594,-0.14018944280994566,0.04450138516141851,0.4281551883634067,-0.5100304936423187,-0.3424610834301098,10.84581638305947,2.095277954107343,5.295195199858088,10.86054613136802,walking
1970-01-01 00:00:09.200,-0.9629615359899999,-1.1736795008499998,-0.4136591555000001,-0.4177432059000001,2.7376646995,-0.5054761022500001,1.8995012045,7.111920356500001,-6.922077179,1.5735095765328846,2.815106300463605,10.104586505895659,10.670356980642753,1.6392893378355924,-7.817899929843013,2.0548267968811555,-0.09368295548711297,-0.10924477461306453,0.03858764873763981,0.4441480798431523,-0.4271832017929456,-0.4139786496863042,10.746114159333377,2.1030180438531096,5.347471192315018,10.858501086736565,walking
1970-01-01 00:00:09.300,-8.873184206000001,-16.318751812000002,8.60608554,0.023823022999999943,0.7677586228000001,-0.58801684167,-2.3529123068,-4.02823877355,9.9601988795,20.47192631329691,0.9673596256802188,10.99856652748055,10.497615903306567,1.5274545129011712,-7.908334524334044,2.1245210388292284,-0.09243289188618624,-0.0999149512363298,0.03192164352053726,0.4140721617072044,-0.46590422944624726,-0.3024283536735483,10.84958024607767,2.0909365713193555,5.40823565828454,10.854661882657522,walking
1970-01-01 00:00:09.400,-3.348904848,-9.3279705045,-0.8853445049999995,-0.13400462270000002,-1.13556505725,-0.009926259500000006,-1.9010505675,0.1594200134999999,-4.2910938255,9.95037850065582,1.1434875464034693,4.696050917541316,10.59883161823177,1.4761244143653696,-7.92327806096737,2.092838243631026,-0.09287048905264743,-0.1108165312996316,0.03148113927821582,0.38944319650287246,-0.45925184388298934,-0.34486096507595737,10.840114964546913,2.0809634236886616,5.400659224872378,10.851968932505674,walking
1970-01-01 00:00:09.500,2.854338288,-12.928719999999998,-4.1926737425,-2.7566773895,-2.2496741415,0.2883199081,3.019866973,-2.9329347610000003,-6.7817749975,13.88803661471958,3.5697944397571533,7.982115945262537,10.9306021041903,1.490480808882397,-7.975418081165626,2.027364160442161,-0.12061847759897402,-0.1330962980725521,0.0341565431201094,0.41713186783442113,-0.48529061143158947,-0.41261795489094727,10.871864148402878,2.0964720801060417,5.427832453508064,10.852788028044055,walking
1970-01-01 00:00:09.600,0.3644567725000001,-7.105187654500001,2.2281665206,-2.8474645610000002,-0.8506811262499999,-1.3401225804999999,2.0907311440000003,1.3430769445,2.1177176236,7.4552831192519475,3.2600063397905945,3.264925776896779,11.383804948704395,1.47887231366196,-7.966446633468042,2.0294342878664686,-0.14873029289176812,-0.1404940798063402,0.019988717103407244,0.4345651936278126,-0.46624511605730207,-0.3862602926149999,10.83664166356627,2.108467278659491,5.405302175626697,10.858262429287976,walking
1970-01-01 00:00:09.700,-1.0408778935999998,-8.0244801045,-0.7416254874999999,-1.2840009335,-2.5705217119999997,0.27892813085,-1.84330214585,1.5514354705000002,1.1788687705,8.1256209670776,2.886873944472075,2.68224652075102,11.818865438768556,1.4531605768531646,-7.967038811743878,2.001158167709668,-0.16031468718368885,-0.16529028013484698,0.022630956019188804,0.41108202517958775,-0.4454442852680515,-0.3701249414488659,10.808978187071489,2.116410203820844,5.377229436916639,10.86806450081329,walking
1970-01-01 00:00:09.800,4.2656549215,-13.71281767,2.4892833235,-1.087231740525,-0.32092386495,0.31825142352,5.149412513,-2.9925317765,5.718050599,14.575105894113998,1.1774332054396857,8.256379249715184,12.106516287670376,1.4815696106374758,-8.025076982029294,2.0060887248388632,-0.16967748570228794,-0.16686233654712124,0.025617021347479826,0.45943233627979607,-0.47143497395409184,-0.30800070124020396,10.847019881082018,2.1069255876755797,5.406608516639073,10.880574114821945,walking
1970-01-01 00:00:09.900,0.2196910419,-14.281412125,3.1416264775,2.3874964715,1.0066762567,-0.50898848475,1.4637623133500002,-6.38634634,5.8462576865,14.624527799628853,2.6405692122791584,8.781044847930996,12.16576594241673,1.468950824950101,-8.087640333459001,2.017444102365475,-0.14410574613026506,-0.15512695061465004,0.020270966286505026,0.4695770835229295,-0.531181553409101,-0.24583647510141401,10.884794960267486,2.1122620239216157,5.440693732106668,10.893426033097894,walking
1970-01-01 00:00:10.000,-2.6904299855,-16.114015575,-3.6122649314,3.4832801814999996,0.82403296215,-0.09681929273499999,-2.81126379945,-7.1734700205,-3.60000014305,16.731657700085858,3.5807324838622168,8.504227026312876,11.988820635696861,1.420445317835101,-8.300271039249003,1.8655148162514745,-0.10625841317926506,-0.15325012254215004,0.020669544074155027,0.43676867469320013,-0.59760443808001,-0.2793781117808999,10.92354612191321,2.1408965102620265,5.47132906504873,10.884622567233935,walking
1970-01-01 00:00:10.100,1.2562318445,-6.031408429,-2.0763718485,2.7194156645,1.511617899,0.2169271335,1.5827486515,2.1895256044,-5.6094136235,6.501332643219498,3.1188567793590134,6.226125349336909,11.643105613304774,1.420588886946601,-8.393067691564001,1.7499878474364747,-0.07769290442076505,-0.13586235529365004,0.027475909847155026,0.45618125840170015,-0.56478679300451,-0.3252169875458999,10.88761681030967,2.1667424790006358,5.518185063875271,10.885270357837094,walking
1970-01-01 00:00:10.200,1.1234301926999999,-1.0193424819,-2.781357288,0.2454078794499999,2.76942873,-0.8283089101500001,3.3573402164999995,6.9590358735,-8.0540804865,3.168138705421012,2.9010439790667495,11.161009188286167,11.248181239843454,1.414974726648601,-8.428680370088003,1.6293133136214746,-0.06630671167976505,-0.09721863097315005,0.027165141063655026,0.49264374538270017,-0.47939455033201,-0.4002222518308999,10.82155789245317,2.179528532150448,5.612804318328474,10.893161988603058,walking
1970-01-01 00:00:10.300,-3.644418478,-15.970445630999999,13.98455286,-0.3607816695,1.0082033725,-0.6300889402500001,-6.6476120926,-8.424668313000003,4.840500238,21.538445588984573,1.2424369303883998,11.772689806149916,10.936373799538021,1.3710439981366012,-8.608560807923002,1.6896094533314747,-0.07268090287376505,-0.08599813061465005,0.02128191845963003,0.43866713391170015,-0.5543176686960101,-0.33931393066389987,10.954533466295505,2.1889324081669934,5.710543730874012,10.906204411699372,walking
1970-01-01 00:00:10.400,-4.0203907490000015,-8.264959009450001,0.4733302595000009,-0.1981435865,-1.0687536897499998,-0.10269869865,-1.79217076315,-0.2902963159999996,-4.63442349435,9.203104407594857,1.091806921085283,4.977351617110859,10.811594390303899,1.3061641074566013,-8.730383896172501,1.6198452135414747,-0.07877639496876505,-0.09677653103055006,0.01930048263163003,0.4163606815167002,-0.5658992469490101,-0.3693096272073999,10.958852761298152,2.1956261801068653,5.74129570519411,10.922829141086593,walking
1970-01-01 00:00:10.500,1.9829022285,-10.094122409,-4.6906801465,-2.3477914330000003,-2.20210433,0.53624753655,2.6061059239999995,0.27519798300000003,-9.3036580085,11.306002330286134,3.2632728224175325,9.665690578333312,10.918253037627116,1.309804188741601,-8.873215967942501,1.4837294992264745,-0.10643708595876505,-0.11415742589970006,0.02412999375288003,0.4447713081702001,-0.5727966487555101,-0.46569686094089996,10.972037086546234,2.2219890878445026,5.827471298422729,10.942050747856545,walking
1970-01-01 00:00:10.600,1.4167004824999996,-8.6682994385,2.6041388515,-2.653902173,-0.37147146475,-1.2361257673000001,3.877738714,-0.19164729100000003,1.4120986461000002,9.161222329498772,2.9511344777154167,4.131296262012622,11.227022930928541,1.2769701750416012,-9.009535078352501,1.4114767202114746,-0.13181320728526505,-0.09656349792220005,0.012584980749080028,0.4725727240877001,-0.58934753300051,-0.46195149818189996,10.94392219041187,2.230144476936452,5.847753533366318,10.96315030905065,walking
1970-01-01 00:00:10.700,-2.0069799574,-8.425427675,-0.3632603885000001,-1.281710267,-2.93428123,0.20837529004999994,-3.1410496235000003,1.451133728,1.55839854486,8.66878066200284,3.208770450930846,3.7948106485634345,11.641559137183803,1.1854551797926012,-9.125301334207501,1.3153899356014744,-0.14696909138676506,-0.12009104426010005,0.02288462939158003,0.4191729681327001,-0.57071254254901,-0.46003301242204997,10.909592658002799,2.251898345776576,5.859485653502862,10.985167677091098,walking
1970-01-01 00:00:10.800,4.0381872655,-10.6507530225,2.3288145976599997,-1.5558280049000002,-0.048715055000000014,0.4024719902165,3.800979793,-1.2160081864,3.981729746,11.626214937279181,1.6077803457946607,5.637401446266477,12.02771362107478,1.1898235756026012,-9.256294917422501,1.2801242166230744,-0.15945328244526505,-0.11283570582910006,0.03795270416074503,0.45958396540370017,-0.5637889218480101,-0.40151901582205,10.952881576621685,2.2541431508082628,5.889035797614732,11.006546151156634,walking
1970-01-01 00:00:10.900,1.5879368779999998,-15.952499865,4.3541893960000015,2.164537251,0.5590016097,-0.2744231373,1.4989296195,-5.604102135,6.728975772999999,16.612126918837824,2.252334870506471,8.884360736561012,12.259460232656568,1.163562347277601,-9.4054470298435,1.2955429666730744,-0.11405358740526504,-0.07824342618710006,0.039153018920745034,0.48740590677870016,-0.5789359975030101,-0.30221932867205,11.06728884464531,2.2389708953427045,5.92438522624756,11.025238261953232,walking
1970-01-01 00:00:11.000,-1.731655896,-16.961672784999998,-3.4326536656,3.440291643,1.1197594031000002,-0.44836188855,-0.010532140500000065,-6.537088871,-3.7268239857,17.39195466287554,3.645613267041724,7.524816200660611,12.265460189990241,1.058125609142601,-9.550483486748002,1.2225214963670745,-0.03307280251526503,-0.02199508238110006,0.027818748234745033,0.47500258789850025,-0.59893403174301,-0.32296625056855,11.141877360937285,2.2102656950336743,5.9498047758732495,11.039315698334711,walking
1970-01-01 00:00:11.100,-1.0839486828799998,-7.477421284,-1.6369897720000002,2.811271787,1.490620017,0.1933331564,-2.6894110441500003,-0.5377507209999999,-4.844154358,7.7308802421953295,3.1878793585747314,5.566681151859014,12.0557562333317,0.914755151713801,-9.640084226828002,1.1303604352020746,0.018980547099734967,0.01928139399889994,0.012339114499245034,0.4121674774720002,-0.63083304526301,-0.42442982831355,11.065795862053962,2.202499102049696,5.936142791903475,11.047789108345578,walking
1970-01-01 00:00:11.200,3.0171997995999997,-1.78175553695,-2.9693433044999997,0.5115082264999999,3.058741331,-0.62138438225,4.101850748,5.546771765,-7.118414640499999,4.59294536045632,3.162855947754978,9.912804021363183,11.715941656024068,0.7976848086598008,-9.648020919961501,1.0678748634000745,0.030080405384734964,0.05447154127234993,-0.011492327503254964,0.39731713042700023,-0.6008098137530099,-0.5326460687235499,10.960552359080078,2.2149604376912335,5.963576154718716,11.051183391791197,walking
1970-01-01 00:00:11.300,-7.386493742000001,-15.229418931,7.310970665,-0.4417189359500001,0.97873000795,-0.6907918898500001,-3.894261956,0.2647731305000001,4.4070000645,18.437618686831467,1.2768012695486883,5.887022215100494,11.372255524790312,0.6329105546798008,-9.768119680661501,1.1311754927060746,0.029574165646384962,0.05288562901284994,-0.027846235531754963,0.34554011212200025,-0.6113770282430099,-0.49187070468704996,11.047989041827892,2.2124355698048537,6.003732445858506,11.05154795588017,walking
1970-01-01 00:00:11.400,-3.3918261530000002,-10.4304640315,0.7319047450000002,0.0791810751,-0.8725953697,-0.09666658935,-0.6048194764999999,-3.0523090364999996,1.910769701,10.992486030027218,0.8814968810905873,3.651498035561969,11.143962626679306,0.4997993257398008,-9.839475153486502,1.1199352088610746,0.025068403337884963,0.03791987069034994,-0.03138609555635496,0.32269589589700026,-0.65754126192801,-0.48490232685855,11.051756748812888,2.212670283950455,6.014283705921534,11.051887086169398,walking
1970-01-01 00:00:11.500,0.927069187,-8.158478258999999,-6.3318572045,-2.449802876,-2.6755108830000003,0.5285356045,-0.3500936029999999,0.304108142865,-11.720222475,10.368830234806579,3.6659572421856605,11.729393085616724,11.10178868529316,0.45078085926480077,-9.888852543621503,1.0367517219500746,0.004609602093384962,0.003065690774849936,-0.031062346222354962,0.35291949676200024,-0.6688306045718599,-0.59088961702155,11.085950037296993,2.2390086232810287,6.0932568826010085,11.055244263164044,walking
1970-01-01 00:00:11.600,3.2361430525,-10.192377566000001,2.94765842,-2.9703974725,-0.9071081879999999,-0.09452861544999996,4.9896559715,-2.184136391,-0.31761878725000003,11.09260440406765,3.1072563570632417,5.456005881817786,11.245762186593954,0.41883069482480073,-9.949579391256503,1.0225308774450743,-0.029252715261115038,-0.013072130457150064,-0.040453359010354954,0.4244277088515003,-0.7080916881768599,-0.61315320294405,11.108883846446927,2.2583099967308096,6.114129571131083,11.063750276959814,walking
1970-01-01 00:00:11.700,-2.2284656765,-7.811369419,-0.06774675849999999,-1.7462595705000001,-2.4821015,-0.97246882325,-2.4504144195,2.121198654,2.598948598,8.1233085066809,3.1868394933002717,4.154340907059879,11.508747466263864,0.28204349364980075,-9.961800732386502,0.9606913672400745,-0.05465174392311503,-0.03782213449515007,-0.05000930083135495,0.36508091376600027,-0.6801721883033599,-0.62561214726405,11.044537295830724,2.2822398473394996,6.1033539315795,11.077906501679111,walking
1970-01-01 00:00:11.800,3.8167017105000003,-10.032955648,2.6914767025,-1.7806961535,-1.0889879166,0.7282062769000001,2.212014027035,-0.6599640845,2.5227984191,11.066682331293737,2.210669096745839,3.4195131981091955,11.78483632595696,0.21796519901980071,-9.985011112481502,0.9768399278815746,-0.06450852826561504,-0.044784265905650066,-0.04756896597485495,0.4051344060303503,-0.6689478898268599,-0.56909378450055,11.02668415050851,2.2942433284703934,6.097319898544554,11.096320067635334,walking
1970-01-01 00:00:11.900,1.4023436309000001,-15.61256981,3.462414265,0.14897038045000002,-0.2399866579500001,-0.249607473615,3.0088197289,-5.3908638955,7.770746470500001,16.05326185775728,0.3769478228215293,9.924661727717046,11.972970523464443,0.15609129216880074,-10.075736481946501,1.0081784258810746,-0.05451583043061504,-0.03769232943315007,-0.061470322733504945,0.4418384828533503,-0.72572886230686,-0.44381484667055,11.086975035536218,2.2809108860265486,6.148451391202019,11.116038758272918,walking
1970-01-01 00:00:12.000,-3.0040392280000003,-16.638491629999994,-4.1639600995000015,3.9411865475,0.12484189869999995,-0.313517347,-1.13015142105,-6.8723268504999995,-2.786617637,17.412702809017638,3.9556074159016226,7.501423626848709,12.017686681168852,0.07876124706380075,-10.191336726936502,0.9569929577420747,-0.013257679158115038,-0.026901712860650066,-0.08527427700350496,0.4451995252928503,-0.82140414239686,-0.4714699910105499,11.191055524212198,2.297627065138406,6.1927826349419055,11.133476887593888,walking
1970-01-01 00:00:12.100,-1.549651720145,-9.537491798,-1.985294998,2.732319832,1.28430635943,0.16584502533499995,-1.9458505956,-2.4466543200000004,-4.8231781725000005,9.864409079095891,3.0236598786307325,5.7476516583429085,11.927658362091133,0.027097216727350742,-10.222483799246502,0.9411928512120746,0.02535397608188496,-0.0054960975293500665,-0.10321791568015495,0.4297491384433503,-0.87844629766686,-0.52037243704605,11.215877323614919,2.3036771296069753,6.217431033834483,11.145669581199902,walking
1970-01-01 00:00:12.200,3.2098220585000004,-1.8812072091299998,-2.6306093930000003,2.080240369,2.645350456,-0.13431003689999998,4.0679860114999995,5.9127461915,-7.288956165499999,4.556534208085757,3.367984295374422,10.229269753869916,11.763514990050362,0.010206878067350749,-10.144232513532803,0.9167008158540747,0.05969657261688496,0.025487603071149934,-0.12186784633915496,0.45965919145985024,-0.81446206809686,-0.6042425716975499,11.152702309002482,2.314920710101655,6.303594567714611,11.151375496936337,walking
1970-01-01 00:00:12.300,-2.683101952,-5.1791149677499995,7.6580792655,-1.2764416935,1.9438686369999998,-1.3440166712,0.51654607045,5.528993367999999,-1.5606627464999998,9.626445136740733,2.6859466650104786,5.768210789716187,11.604002742686296,-0.08990134310764926,-10.056166170760303,0.9854122132700747,0.04396343816488496,0.06129394185614993,-0.14012072587065497,0.41802630135435026,-0.7047051429918599,-0.66092870603755,11.090879462150783,2.3244632620739956,6.2785466044252916,11.151548651407625,walking
1970-01-01 00:00:12.400,-4.74810791,-13.74512124,10.672287942,0.9004652050499999,0.8951966761999999,-0.3231381923,-5.6653540135,-8.7784643175,4.746083738,18.038032502029214,1.3102034063107062,11.475320593343323,11.510743482926806,-0.14791084182114925,-10.113804784930302,1.0855338925850746,0.02768206779038496,0.07980337780964993,-0.13920903617165498,0.3645625395493502,-0.8038075065784498,-0.62356928715255,11.19048556913953,2.310217660226679,6.377798064111266,11.148965918698696,walking
1970-01-01 00:00:12.500,-2.0596220494999997,-9.0107722285,-8.0328553935,-1.00591275115,-1.69807896035,0.4416425675,-0.5561791657500001,-0.6754815574999995,-12.104406359,12.245930953323862,2.0224689802163818,12.135990437650182,11.508060367356146,-0.15667305839314927,-9.962473708285303,0.9621659368800747,-0.0034008946661150397,0.023573361156149924,-0.15384340988265496,0.36689317533485016,-0.7804150319239497,-0.7728693689050501,11.067414580374717,2.2820126440926853,6.457091924205899,11.14717660997968,walking
1970-01-01 00:00:12.600,4.559972167,-12.55648613,-0.328714013,-2.967877746,-1.6889927236500002,0.2825168631999999,5.5878469945,-4.1911458965,-5.8193092322,13.362886776405748,3.4264866136812873,9.091429915016649,11.580970479441055,-0.11172538053814925,-10.072589908140303,0.9603219679530747,-0.044894985449615045,-0.007495858531900079,-0.15848737677065497,0.4042267770483502,-0.9092270612939498,-0.7685921848720499,11.185513829833738,2.2963666602030632,6.439386903240774,11.149211646026185,walking
1970-01-01 00:00:12.700,-1.7890835254500002,-6.6382882595,1.26699957275,-2.0844399335,-2.223560393,-1.2801831365,0.01250314699999988,3.1696977614999997,1.3452940580975,6.990921169245211,3.30574946429199,3.443393142046875,11.68480292029327,-0.12633057143914925,-10.098996203440302,0.9542756043203247,-0.05846037600876505,-0.04177966104240008,-0.16566788633815496,0.3860301149783501,-0.9255205917589499,-0.728283990116075,11.211159906771922,2.314266901910668,6.4158555174728225,11.156533903806638,walking
1970-01-01 00:00:12.800,0.7428218130000002,-8.838339329,-0.2365903556500001,-1.290262103,-1.59110435845,0.7128587663,-0.47343421,1.12668609615,1.2730082569499999,8.872654695005513,2.1689990766727694,1.764684541984467,11.760370892966234,-0.08134550776414924,-10.067430389415302,0.8305128384888246,-0.07358189974726505,-0.06729856864840009,-0.15460315158165494,0.3958928329633501,-0.8807050180624499,-0.7838715759900751,11.125142277415575,2.3253395561833834,6.35600465898567,11.168568618052797,walking
1970-01-01 00:00:12.900,4.015305876499999,-13.272388935,2.2163520455000003,-0.7673005091499999,-0.2196759358,0.19730367515,5.4775719645,-4.1639704705,4.414018392999999,14.04247861715865,0.8221534700645322,8.174717308825711,11.753163759156418,-0.00631556358414925,-10.082286828045302,0.8656963045688246,-0.07711183336826505,-0.06669612028940008,-0.15687168551065495,0.4802501053483501,-0.8890260744292999,-0.6893220905400752,11.14196021887555,2.327004298460117,6.370474062570732,11.182938962323652,walking
1970-01-01 00:00:13.000,-1.7161024809499998,-13.681711195,2.2640589475,2.6112956405000003,0.88420141485,-0.49264831840000006,0.2779210509,-4.7096920010000005,5.3818063735,13.97355330137134,2.8006034045789843,7.1569741299422045,11.634632618085849,-0.038002517189649254,-10.117444870915302,0.8991659112038246,-0.033246128233265046,-0.04351904781090009,-0.15738097963565495,0.4474172023823501,-0.9269711923753,-0.5832060019165752,11.17843474014596,2.331768870762334,6.37811367392806,11.19632640193774,walking
1970-01-01 00:00:13.100,-3.260220766,-16.03385544,-2.9537898900000004,3.3262159825,0.422095418,0.002596095200000037,-3.028417826,-7.647872925,-4.26840323205,16.62643781536326,3.352891892657042,9.267175457341763,11.418012158379318,-0.06069993462514926,-10.204231048090302,0.8612307007333247,0.01583926591173495,-0.03308348612505009,-0.15170010013215493,0.4224383054036501,-1.0177238726768,-0.6274739060820752,11.270009280259522,2.3473820369940976,6.455475290092054,11.20569075243694,walking
1970-01-01 00:00:13.200,2.0810079577,-5.7465131285,-1.8656538725,2.6374857425,1.54109123355,0.09071081691499996,3.4539150000000003,2.5046334265,-4.437362193999999,6.390122974404157,3.0560631021496962,6.155720970699258,11.158547467282332,-0.03850650450084926,-10.180912991035301,0.8475960986018246,0.055020535911734954,0.0026296986454499073,-0.15141987397945494,0.4517155308386501,-1.0096594500718,-0.6791802881180752,11.25295955556656,2.353930599172435,6.49780120903682,11.209435185194117,walking
1970-01-01 00:00:13.300,0.2926720975,-1.2551850675,-2.187638164,-0.023517609000000102,2.8529621365000004,-0.9957573714,3.0202342864999996,7.1174292565,-7.719156265,2.5390760616648174,3.0218336772451857,10.92542849549257,10.934554057761323,-0.044216377346349256,-10.0947265099053,0.8089923913443247,0.07246709736673494,0.03965162409744991,-0.16340393349395493,0.47090550401140013,-0.9355310702517999,-0.7845845494650251,11.177833390530022,2.364429156128267,6.5766259805958045,11.208062810090889,walking
1970-01-01 00:00:13.400,-3.2279177905000003,-16.978272675,10.5524976275,-0.4269822539499999,1.1131927670000001,-0.8635089343985001,-6.49038726095,-8.739248751,3.764525771,20.24935560622291,1.4721275968731014,11.518300647642441,10.817125756068828,-0.12444323381634927,-10.122341172555302,0.8634694881643248,0.05746392446273495,0.05939649818794991,-0.16069864312293994,0.35401529469690013,-0.9677340960518,-0.8118633840500251,11.221844694189762,2.3613181056035226,6.5919911848114365,11.204027585887497,walking
1970-01-01 00:00:13.500,-3.2901310919999998,-9.5099746005,-2.4593729975000005,0.34680853790000005,-0.49089214195,-0.15943112970000006,-0.8016912338850001,-1.7003216744999998,1.08362746225,10.359203398212257,0.6218275822975473,2.16980439399613,10.842438647997907,-0.15075381389084927,-10.0523989711603,0.8668687929093248,0.02450871530173495,0.05601087706604991,-0.15258506426843993,0.3627992928895501,-0.9178477549568,-0.7837674630700251,11.157907948174245,2.32981079382156,6.542595073329843,11.200807971195973,walking
1970-01-01 00:00:13.600,-0.26395833449999984,-8.6493058185,-5.2808099985000005,-2.228752613,-2.709336638,0.5627430230499999,-0.2553323510000001,1.1045043466500002,-12.82858276,10.137411868151927,3.5531004683170617,12.878573682337851,10.997371920040276,-0.15507435431584926,-10.051812728450301,0.8271748563465497,-0.015336850848265051,0.018839294788049913,-0.14001993621043993,0.35862878092455014,-0.8954204368653,-0.869044574560025,11.171204762495723,2.343941171033175,6.626862037308854,11.20156933354945,walking
1970-01-01 00:00:13.700,3.418147266,-10.1252291205,2.0629122255000003,-2.611371994,-0.25319620950000005,-0.7669187468549999,4.8474276065,-2.115625858,0.3957483469000001,10.883914843694885,2.7334111245530464,5.303776383424422,11.22208138286554,-0.12826127966684928,-10.1203312061303,0.8643892305895499,-0.04681304594611506,0.000521512808049911,-0.13832712583648993,0.4097644395455001,-0.9694252109553001,-0.8099498955060249,11.242615760822849,2.3521547369710216,6.603478868894804,11.207951077628676,walking
1970-01-01 00:00:13.800,-1.9184455871,-7.907082319000001,0.9976575375,-1.1510653495,-2.4605691430000003,-0.0966665745,-2.4254965785,2.09717226005,2.6427681445,8.197420620673094,2.7182156597534486,4.155164088964767,11.428635685856461,-0.14927026262384926,-10.1361567364203,0.82286329186805,-0.04320981105611505,-0.04329150717695009,-0.13863484012398994,0.4009142274460001,-0.9903841972398001,-0.755542639856025,11.243006850324255,2.3548872451179688,6.592320478894661,11.219443561360071,walking
1970-01-01 00:00:13.900,2.4127129315,-10.2617692935,1.8164513705,-1.6920469405,-0.43438877165,0.7566106915499999,1.75575761475,-0.3102526664,1.5624052284999999,10.696942941992265,1.9037269216877655,2.370664804818483,11.532220312698582,-0.1384950845538493,-10.091255413080301,0.7687077353080499,-0.06261566530206006,-0.06064491447345009,-0.11987419324498994,0.40220020644350013,-0.9510120963988001,-0.808163882841025,11.1851420377678,2.356582586457462,6.534013230669167,11.233571963895455,walking
1970-01-01 00:00:14.000,3.6838998794999998,-14.62732506,2.751297355,0.96597857493,0.14171657715,-0.49837500604999996,4.703459024,-5.196727276000001,5.985651255,15.332951244581524,1.096164149257876,9.217186236485215,11.486529769592215,-0.10951351574384928,-10.1249403772653,0.78720275826605,-0.05362552089826005,-0.06068614654495009,-0.11266161406548994,0.4613778787085001,-0.9725436019838001,-0.7247631839360251,11.225249710992047,2.3552427731283316,6.585835135466312,11.246807551312386,walking
1970-01-01 00:00:14.100,-2.7155545950000004,-15.410226344999998,-1.465903044,3.874222398,0.6662053205399999,-0.33566058057,-0.7112874985000001,-6.7903866765,-1.8743853565000004,15.716175886549694,3.9453893019104296,7.080155477570583,11.308591750399366,-0.1519965862338493,-10.1865645275403,0.79653925128105,0.0019218744517399467,-0.043270891199550084,-0.11995131260863995,0.46200069241350017,-1.0422648668203,-0.6846878627350251,11.285649289379778,2.374361613663605,6.597283180359181,11.25588147152935,walking
1970-01-01 00:00:14.200,-1.4621642419999998,-11.397612097,-1.607079521,2.74308598,1.16030433755,0.19172968528500006,-1.563915074,-3.2493171693500003,-2.6164220569500003,11.602852682469159,2.9845581116187687,4.455284144228244,11.077600707988378,-0.18571744034384927,-10.220620375680301,0.76755917779605,0.04822333292673995,-0.01590035338205009,-0.12101953161093994,0.44144536130250017,-1.0878772067988003,-0.7082900757010252,11.318499217021852,2.3794357055178863,6.627593645283103,11.259031116742337,walking
1970-01-01 00:00:14.300,2.4354447130000003,-3.3140594960000005,-2.102692902,1.62928238535,2.8060795064999997,-0.3804051372949999,3.4467110635000004,4.6452047825000005,-5.890917778,4.619058208469407,3.2670095433731894,8.25594675938324,10.903163468014736,-0.17858084747734929,-10.160409482525301,0.7360651453520499,0.07605658876023995,0.02134834806794991,-0.13407791904088995,0.4780185794095002,-1.0375162863693002,-0.7878159279060252,11.269188411196144,2.3946919578984485,6.689063726018417,11.256703816841103,walking
1970-01-01 00:00:14.400,-1.1389835475,-2.33135697255,3.201447248,-1.2772816420000002,0.96506231487,-1.2442195415,0.5826239288,6.509343386,-4.2283325196,4.120894725258092,2.0275295144640757,7.783944877475635,10.876388090982045,-0.22086052784734928,-10.086815231530801,0.7594789155470498,0.08053180860523995,0.03798477297314991,-0.15315544268888995,0.4644581969825002,-0.9757017016343003,-0.8468394297770252,11.20832248243052,2.3952106399239455,6.7410802108227985,11.251417447108897,walking
1970-01-01 00:00:14.500,-4.5158544780000005,-15.623187305999998,9.714560985,0.5977904051499999,0.8373188822000001,-0.23448898645,-4.9992312793,-7.8511590965,6.776553868500001,18.943326487080252,1.0551973103379324,11.513239981654536,11.028996603369048,-0.3020804042573493,-10.1028187234408,0.8069420500670499,0.07090103807223995,0.048372230730149915,-0.15022643013738995,0.37934778801550023,-1.0152884793293002,-0.8583007568570251,11.244678097483348,2.389164358651614,6.761210936833374,11.246806818637141,walking
1970-01-01 00:00:14.600,-4.2106200455,-11.279317378,-5.1037411095,-1.86170977335,-2.8236414195,0.46149511634999996,-3.1010915039999998,-2.181417465,-9.043855668500001,13.076715757177698,3.413486764075376,9.806460932744677,11.320598471630708,-0.34863276848734925,-10.0528431327208,0.7770512085240499,0.016840292238739948,0.006105418406149914,-0.14156232516188993,0.33365311644750023,-0.9673153853393002,-0.9239504403470251,11.211248371793022,2.3849651695165957,6.783774792493834,11.246230368024774,walking
1970-01-01 00:00:14.700,5.315356373999999,-12.63066387,-1.6120148005000001,-2.338170528,-1.767333865,0.8967237473,4.3666025400000015,-3.4244823454999995,-6.414705037999999,13.798017063932658,3.065065070655987,8.481906495683516,11.656427209173081,-0.28183712461884924,-10.0832125384708,0.7725616740270499,-0.03272003528626005,-0.020754299406150083,-0.13850121716838995,0.39873084328750025,-0.9831631636593002,-0.9586667812420251,11.251630744368521,2.387250485918963,6.82781299319983,11.251493397170345,walking
1970-01-01 00:00:14.800,-0.96296158435,-7.0416281225000015,2.5251756910000003,-2.4801162480000003,-0.5819846989,-1.0859337149,0.4598164555000002,2.4007217885,1.781706929,7.542435541582976,2.7692841722192103,3.024793523428307,11.922374662244781,-0.3243426276173493,-10.1328411735208,0.8115856208510499,-0.06578901550336007,-0.05122641528515008,-0.14584436486138994,0.3716174175525002,-1.0248979473093003,-0.886674797592025,11.28579224233661,2.3887049061976073,6.767162319696343,11.262171165286668,walking
1970-01-01 00:00:14.900,-0.4794618489,-8.347661018,-0.12397813749999995,-1.3179793355,-2.5270751715,0.25052373110000004,-1.454123959,1.10007047645,0.17605715989999995,8.362338112906306,2.861108280205599,1.8318372375423582,12.02156635056241,-0.3136885854028493,-10.1596796704408,0.7414146002160499,-0.06725123158136007,-0.09142398322515008,-0.13628918642788995,0.3499560872395002,-1.0676862430548004,-0.857119898258025,11.278872524683361,2.3970721472277043,6.724517777754872,11.275745547027327,walking
1970-01-01 00:00:15.000,4.5180978775,-13.47338581,2.448455751,-1.2116919161,-0.3006895631500001,0.5680115968,5.1490719315,-3.2955384255,4.919910431,14.42013415958341,1.371586193802166,7.847230971417291,11.903231969658231,-0.24725335950084928,-10.185080971815802,0.6740566446210497,-0.08405182224735007,-0.10311712668605008,-0.12453343103288994,0.42997265017950015,-1.0277306771298003,-0.8375166410780249,11.278711827659608,2.399199175118794,6.719290358807532,11.288452005890298,walking
1970-01-01 00:00:15.100,-0.32138597950000003,-14.489587785,1.7937197085000005,2.05954784175,0.690639168,-0.6199336052000001,1.3262819645000001,-5.9444680215000005,5.3597999215,14.603728069219232,2.2589903602470476,8.113148532259563,11.579635349181542,-0.2208455705058493,-10.217436418625802,0.7453537877160499,-0.049227420508850074,-0.07045512453605007,-0.13691988627038992,0.47688163972450015,-1.0608984160448005,-0.709021476563025,11.296725381902766,2.3917209199254077,6.714212054877405,11.296504907058118,walking
1970-01-01 00:00:15.200,-3.6683466435,-14.299358365,-2.467747867,3.3346915244999997,0.9943829253500002,-0.1311794445,-3.6979191305000003,-5.983531475,-4.6745556595,14.967237429888531,3.482265499995525,8.445633512164559,11.126661483312658,-0.3164657544508493,-10.246308813165802,0.7446598686560499,0.007609625636149922,-0.03890868135255007,-0.14239002349438995,0.38651827550450013,-1.0985955166813006,-0.6972128177435251,11.315736386216868,2.3943604894148742,6.716397091329579,11.297286466000282,walking
1970-01-01 00:00:15.300,1.599751383,-5.5178489685,-2.6485556359999998,2.6300791500000003,0.8546516894499999,0.20486289265000002,1.4857718050500002,2.27910280225,-5.6910765175,6.326192273680456,2.773033474433619,6.307945732799646,10.66431115207584,-0.2945594640993493,-10.2284134913208,0.6996134861110499,0.05759449201614993,-0.02467670359355007,-0.13128100248638994,0.40130867607000015,-1.1030126881638005,-0.771069422145525,11.30337291744941,2.396103316144133,6.747422654681103,11.290135245912014,walking
1970-01-01 00:00:15.400,0.6672984081599999,-1.7446668145,-1.7436199185,0.3856736717999999,2.7817220685,-0.7277481556000001,2.8556306360000003,6.5344533920000005,-7.1326408390000005,2.5552612154807957,2.9010927640251034,10.086043466079884,10.320339432115723,-0.2869218730177493,-10.1652325058708,0.69760202008805,0.07324058103414993,0.02806843004144993,-0.14170969227938993,0.4439551011355002,-1.0503155827583006,-0.8420146469105251,11.246830027997744,2.3973596084048796,6.829345449728676,11.276514205681897,walking
1970-01-01 00:00:15.500,-2.00578355785,-13.4997072225,11.997463225,-0.7154548467999999,1.10044133645,-0.8707627747,-3.6679459808,-8.5364689845,7.046021462000001,18.17152681007811,1.5751427181626168,11.660683894367516,10.189748853581424,-0.3510121309012493,-10.167925925345802,0.7883991722946,0.07875500532814993,0.04601970399594993,-0.15627839934638993,0.35436504161750015,-1.1150285649533005,-0.8344578484455251,11.286086754456669,2.397518922397572,6.861200507838541,11.25953288875514,walking
1970-01-01 00:00:15.600,-4.2130129335,-9.270542857999999,-0.9978070260000004,0.56915693166,-0.19600564199999992,-0.13728791475000002,-3.0331306455,-1.8073120115,-6.08822035847,10.231718414860136,0.6174186554428538,7.037946103294057,10.305711417253733,-0.40576589464824925,-10.1187025714758,0.7405292599096,0.07104611319384993,0.03780915285694993,-0.15131602880188993,0.3004147327585001,-1.0762407136183005,-0.955530758285225,11.240962671881421,2.3876065791836107,6.845475680544631,11.242993524774047,walking
1970-01-01 00:00:15.700,1.1916256545,-11.335398671499998,-2.4844976065,-2.2248584030000003,-2.8853369955000003,0.6380299628,1.5139688255,-0.042396306999999744,-9.1582317355,11.665503122412282,3.698952111670446,9.28262395944985,10.63092318920052,-0.37467864215324925,-10.069610817490801,0.7450187941111,0.013314174833849925,0.00025502751294992907,-0.14118283633688994,0.34242360002350014,-1.0091677379783004,-1.0084715179462251,11.191435094960582,2.3878693282737196,6.8560160799422185,11.230270754008611,walking
1970-01-01 00:00:15.800,2.0211873655000003,-8.83235693,2.0150557456,-2.735373974,-0.5057051479499999,-0.8513683451,3.15634089692,-0.03383636499999998,1.1295342445999998,9.2820351735625,2.9090954837093257,3.3525334251712176,11.069199000095727,-0.36489947557074925,-10.096435854495802,0.7841608856820999,-0.038904865561150075,-0.016046195304550072,-0.1518635003859399,0.3719914997257001,-1.0251871633713003,-0.940048032190225,11.219051235027473,2.3895849224619705,6.830266609152747,11.223375810352904,walking
1970-01-01 00:00:15.900,-1.82482636,-7.9968130585,-1.1629118920000001,-1.143353403,-3.0280462505,-0.12949962914999993,-2.3441495895,1.6438663005,0.423630476,8.284405494982847,3.239304131023942,2.8942695956093245,11.492592190094056,-0.3982718741892493,-10.155927405415802,0.7903852145570999,-0.060808321790150076,-0.07223421720455006,-0.1489749566309399,0.3262233555972001,-1.0702198600963007,-0.869740355400225,11.270802278334752,2.3937233550865598,6.766243539956693,11.222484945340439,walking
1970-01-01 00:00:16.000,4.71086967,-10.285697937,2.0618653300000003,-1.6748667954999998,-0.33833302555,0.9371924401999999,3.6823662515,-0.7492301465000001,4.5523724555000005,11.499528848521924,1.948840088056043,5.902987548369527,11.778667766765555,-0.3008570736642493,-10.106322701010802,0.7171618490270998,-0.06087016936015007,-0.08679299784605005,-0.1324858981944399,0.39853126949220014,-1.0652934766013005,-0.8492513970202249,11.199836297735116,2.391904614845979,6.780106000752677,11.226054286258439,walking
1970-01-01 00:00:16.100,0.25677978980000005,-14.407035355,2.8818556665000004,0.7995990365999999,-0.03367295865,-0.46172419189999997,1.1565334795000002,-4.57115221,5.380979537999999,14.694682564220564,0.9239489795771196,7.1545749702247825,11.850121938744163,-0.26361577928124924,-10.117681124295803,0.7101224623970999,-0.06293330650565007,-0.10002624017905004,-0.13485674930883992,0.42674922412720007,-1.0685861373113006,-0.8308535627202248,11.205006891622824,2.384634944791526,6.793939736656314,11.231458290321516,walking
1970-01-01 00:00:16.200,-2.64496624445,-16.648062705,-3.1513473651400004,3.975088477,0.1930277273,-0.41438350085000003,-1.3819032759499998,-6.7034711840000005,-0.3755557535,17.148901669776603,4.001287516445361,6.854722802767932,11.703742324120324,-0.31579426705574926,-10.204539081510804,0.7594639601556998,-0.010852470210650073,-0.07961630603305003,-0.14454173250283991,0.38917424521270005,-1.1596160769663004,-0.7034720734652248,11.260137546325302,2.4017517559718287,6.727072633919425,11.235938671155779,walking
1970-01-01 00:00:16.300,-1.2611671389499999,-9.767352581,-1.3209876415000001,2.6627595425,1.25559657815,0.24166644366999998,-1.1156683266999998,-2.718476772,-4.3447974920000005,9.93663561488145,2.9538472909466567,5.245197519788421,11.414180927133403,-0.33779627188814926,-10.209555036485803,0.7186095049257,0.03402876813434992,-0.06140389462905004,-0.1388898683166399,0.3544319527457,-1.1708859658413004,-0.7616020683366248,11.262355425733249,2.411908346249561,6.747507019579066,11.237567929880989,walking
1970-01-01 00:00:16.400,2.1539889874,-2.24386945385,-2.6318057775000003,1.6390558779,3.0356054305000004,-0.2881671879600001,3.6610144375,5.498039245999999,-7.0346865654999995,4.074434971163972,3.461855691500789,9.649781206688878,11.106526129390339,-0.31131819422814927,-10.145165675639303,0.6753353079457,0.06650828052834992,-0.020219809321550035,-0.1358852632357399,0.39347825086070004,-1.1265615773328004,-0.8365993205616248,11.214493863919246,2.42625996110928,6.832125801361047,11.235924454406991,walking
1970-01-01 00:00:16.500,-4.03953316785,-7.3229348065,7.9657065854999995,-1.20970666385,1.2223817111500002,-1.1288457509999998,-0.5494645835,4.9369316105,0.1797692774999997,11.549704922667399,2.0571582316068575,4.970666157408665,10.907457864660124,-0.3578959816226493,-10.127748918894303,0.7622665547497001,0.06976486016984992,0.005596886369949967,-0.1488199541332399,0.38701664245070005,-1.0900525355428003,-0.8377367972746248,11.238843489790213,2.4262594534355566,6.86860609185302,11.232250639886345,walking
1970-01-01 00:00:16.600,-1.25279223935,-10.457981110499999,9.3889875395,0.7479824873,0.9608627183,-0.41713233295,-1.6825214030000002,-5.186264279,4.843640089,14.109994483324105,1.2871419299823426,7.293083350336291,10.896541053091438,-0.3900734641711493,-10.114796271699303,0.8250646900147001,0.08664486115284992,0.023036575445899966,-0.1527446478965899,0.3443867949207,-1.1160142517428004,-0.8478896116646247,11.25679035803729,2.426893648073998,6.8724758418475345,11.229018651654998,walking
1970-01-01 00:00:16.700,-3.2961131335000005,-9.435796737999999,-5.1695438624999985,-1.7049511077500001,-2.0879522560000003,0.3149681091,-3.8048226835000003,-2.705042362,-11.290295837999999,11.252679930398536,2.7139653300850166,12.217393745912046,11.078013166557495,-0.4224543359446493,-10.054023061179302,0.7686942731347002,0.04100998943034992,0.0010292761588999615,-0.1495628973460899,0.3007372877537,-1.0876382112828005,-1.0287079667346248,11.214114468964155,2.4254256843471946,6.90680919432836,11.229025118435596,walking
1970-01-01 00:00:16.800,4.8629631995,-12.13026476,-0.7978568075,-2.561053395,-0.8747332100000001,0.14148750899999996,5.9730091095,-2.8295183180000003,-5.0848298655,13.093063419714394,2.7100131726471286,8.338975146572166,11.381685886464432,-0.35739348973714935,-10.044122753529303,0.7774460222337001,-0.006363504474650084,-0.02649320984810004,-0.1518436480675899,0.36838239853969995,-1.0730288172078004,-1.0431103175046248,11.211763057185205,2.423546677363672,6.9333503978497815,11.23431297036687,walking
1970-01-01 00:00:16.900,-1.9244275988,-7.200900316,2.4520450830000002,-1.6024050714999998,-1.9714331630000002,-0.83907507355,-0.6280684470000002,3.0780334469999997,2.6783679725,7.84658601132088,2.6754995250229525,4.128245979963094,11.689345311040261,-0.37311134275014934,-10.052478187469303,0.8248239113937,-0.03653477782965008,-0.04407568450010004,-0.16154390260426993,0.3625724620197,-1.0636134291055004,-0.9556684236846248,11.222503921761657,2.4359349220137942,6.910320327967226,11.245308907131454,walking
1970-01-01 00:00:17.000,0.11545369040000007,-9.3172030465,-1.396511078,-2.0278601645,-0.6900283100000001,0.7618792354999999,-0.35062417365000004,0.8867740631500001,-0.0417398215,9.421987335764817,2.2735029986462494,0.9544882204208481,11.876688071096392,-0.36440894570064936,-10.113324679539303,0.8208129429227,-0.051270704069650085,-0.06697787459010003,-0.14762727513726992,0.3534274885647,-1.1137373686190004,-0.9068766658646248,11.28206841206832,2.4406021628422065,6.842836938352575,11.26051934720947,walking
1970-01-01 00:00:17.100,3.3332020045000004,-13.58001614,3.9173496964999996,0.15798036755000006,-0.6517740042000001,-0.13828054439999998,3.880838394,-5.1990060805,6.8455166814999995,14.521456628387249,0.684754450910467,9.431419272946954,11.858550972978549,-0.3087324487751493,-10.101342622484303,0.7681199979077,-0.04940151149915008,-0.08612869928710003,-0.14091406363776993,0.40117245292470005,-1.1375328302740004,-0.8771397798446249,11.251845516843513,2.4324422404037422,6.888428414013385,11.276940016402918,walking
1970-01-01 00:00:17.200,1.2658032178499998,-15.944125175,-1.9230816365,3.7252520319999998,0.6680378166500001,-0.5479299724000001,1.7817987499,-4.687678814,4.862200141000001,16.109488767897997,3.824134474760124,6.984993175337401,11.62318860305099,-0.27611229415864935,-10.158453318319303,0.7520686458827001,-0.022054642988650078,-0.07018176819760003,-0.14806555781276995,0.4231832689587,-1.1433075905215004,-0.8315774135996249,11.308632504536002,2.4570165746835135,6.916849878798469,11.291064416190798,walking
1970-01-01 00:00:17.300,-3.0520453455000003,-13.51884985,-0.07731807200000007,2.7977567910000003,1.5583476721999998,-0.02000524844999996,-4.0508286955,-5.763237953500002,-4.6838612555,13.859302296367268,3.2025444163982058,8.459472861220323,11.241247257820245,-0.3001855861786493,-10.199369093604302,0.7859809254927,0.01385324959634992,-0.017457250915600023,-0.16259150560726993,0.3962357628887,-1.2131249022865003,-0.7830215816946249,11.34656772407021,2.4484516478247573,6.904323716838701,11.300135540390668,walking
1970-01-01 00:00:17.400,2.59082874675,-4.490729808999999,-2.1073289515,2.350158453,2.067794323,-0.277706433065,2.30042767535,2.9930493835000003,-6.0431790355,5.596416989669143,3.1426324919411224,7.125329813888803,10.842345438347925,-0.3050699340901494,-10.155988713929302,0.7481429224527001,0.054086703706349916,0.015214678385399978,-0.16236472852291992,0.3822562993122,-1.1752643061025005,-0.837724999714625,11.307537388555822,2.459073304403627,6.937321324921457,11.303180977951579,walking
1970-01-01 00:00:17.500,-0.37178482486,-0.5392823964,-1.2023933458,-1.25796353795,1.9958670735,-1.22513055785,1.43122586615,7.197273731500001,-7.258020639500001,1.3692330762464169,2.6583646329408968,10.321241216514842,10.567139858330194,-0.2862414111187494,-10.079665150623303,0.7029320335447001,0.05036664431384992,0.04864329431539998,-0.18085660241141993,0.4186459872687,-1.1270335603075003,-0.937577113439625,11.2301952158831,2.4683689143188707,6.998168043712985,11.301450524395388,walking
1970-01-01 00:00:17.600,-5.8986070777,-14.914612772,12.476176737000001,0.6895701885500001,1.0615761875,-0.254417877635,-2.0619105697,-5.0978131286,9.686548233,20.319798856500967,1.29119305421932,11.138599129235352,10.516061573906487,-0.3625545086207494,-10.133304753328302,0.8160542142292002,0.07027644758434992,0.058902474085399975,-0.19044766787026993,0.37799044048169994,-1.1797870517008504,-0.844526448774625,11.33563226054013,2.4664770413777473,7.089080547054308,11.298096824541435,walking
1970-01-01 00:00:17.700,-3.6336507795,-9.842726232999999,-2.2283160689999995,-1.1460258363,-2.0311434865,0.23303823175000002,-2.6002783775,0.6093535423499999,-5.7472941865000005,10.726046344693412,2.343763191467017,6.337519218609536,10.716480863075056,-0.3956517328542494,-10.121777329513302,0.7435262656092001,0.04885937866999992,0.04494919579639998,-0.18753621708166993,0.3388683620617,-1.1696155810583504,-0.953014021434625,11.321958590354877,2.478086661119254,7.099623570982959,11.29719920470647,walking
1970-01-01 00:00:17.800,3.13684094,-12.8089289655,-2.984896898,-2.648328304,-4.1642985339999985,1.025001645,0.8778628704999999,-1.4994885919999998,-5.754642248,13.521022217930678,5.0404021127579455,6.011240858542197,11.11773770392973,-0.36786807073164945,-10.108619790118302,0.7036050081142001,-0.0053433895300000825,0.006832326171899991,-0.17174428913566991,0.34602075581920005,-1.1388023281283504,-1.0150867371946248,11.315517945520769,2.5000035600228516,7.113676045180001,11.302431517467346,walking
1970-01-01 00:00:17.900,1.1078770159999998,-7.141080141000001,1.3124632239000005,-2.8118826155,-0.014354885000000041,-0.722326892914,2.7745392325,1.1990284920499998,1.360762954,7.344724418033371,2.9032130556163596,3.3147266998062137,11.609762691944155,-0.34293186588014946,-10.065717980883301,0.6836383984517,-0.05127757551500008,0.0062810367829499916,-0.17192448905980992,0.3881027320557,-1.0933905410928504,-0.994290828024625,11.269155207899551,2.5098743200844846,7.109753030200264,11.315780329707055,walking
1970-01-01 00:00:18.000,-1.4860923587,-8.534450531000001,-1.0348958298000002,-1.3663126229999998,-2.698417783,-0.07627955080000001,-2.2165107725,1.24309682835,0.4168468710000001,8.724467075025853,3.025572224431277,2.575261354333743,12.055841419370552,-0.3389687530466495,-10.095716497918302,0.6430351893887,-0.07153098019350007,-0.030004054263050008,-0.17171832809535992,0.3921118662307,-1.1057396316693504,-0.964794412179625,11.290575548386233,2.528689866048432,7.09145286673445,11.336729851885444,walking
1970-01-01 00:00:18.100,5.3382377625,-12.89282751,2.661566496,-1.6056119800000002,-0.16217994503500005,0.8667922914499999,5.816076755499999,-1.57037782665,5.814222932000001,14.205834006640494,1.8318354296738062,8.372456249350966,12.3315834509487,-0.2762065104881495,-10.170101876268301,0.6474409734007,-0.07567710550900009,-0.05216253870340001,-0.16312981533150991,0.4576225683637,-1.1504176855258503,-0.8717997913796249,11.373000103868929,2.523267754785891,7.129262079113414,11.36222523573033,walking
1970-01-01 00:00:18.200,-0.46989054975,-15.503546715,2.5503003075999997,1.51818455765,0.570607692,-0.6611658037,1.042336076275,-7.376667022499999,5.482645034500001,15.718930928402106,1.7514615922819319,9.249923104062589,12.362251700182663,-0.2524442849801495,-10.2338317179833,0.6314374762316999,-0.05466319607850009,-0.0773576983184,-0.16370859327100995,0.45536102061644995,-1.2508947348708503,-0.895067658947625,11.425932313745875,2.5087621422513746,7.13825637768333,11.387486960674483,walking
1970-01-01 00:00:18.300,-4.0706399675,-15.932160855,-3.99750930085,3.7143330575,0.6288672601399999,-0.37941250950000005,-4.2844753265,-6.846271514500001,-3.537541866,16.922882138246575,3.7862511730309674,8.817163088394372,12.147353520036848,-0.2766252527851495,-10.2514414000833,0.5479085254181999,-0.021517097299850088,-0.06515449734550001,-0.16660095511300996,0.4270998627484499,-1.2593487334308504,-0.9767755787826249,11.445989091747693,2.539429330163016,7.149224200461626,11.407435486797208,walking
1970-01-01 00:00:18.400,1.66794688265,-6.219245195499999,-1.933998883,2.8524276019999997,0.9018396138,0.3808632642,0.4613644480000001,2.6789736746,-4.6618885995,6.723199333988018,3.0157444751980367,5.396569504530285,11.761426188089017,-0.2252618208986495,-10.255618373193299,0.5904992740831999,0.027528593000149912,-0.038821636157500006,-0.16915276928200995,0.4544786578934499,-1.2574707961143503,-0.9418845467976249,11.421546719391177,2.5419937608053598,7.114970189291582,11.418245762675559,walking
1970-01-01 00:00:18.500,0.6086742279999999,-1.5506985782,-2.0512472390000003,1.14594946815,2.8539547925,-0.5049416273499999,2.3359260560249995,6.1828439235,-7.208826065,2.642492314419859,3.1166045928570814,9.780147379104303,11.328581783799484,-0.2651830766086495,-10.153604869270298,0.5579045432327,0.06368540576164991,-0.004710398027500003,-0.17688456861600999,0.4046095282386999,-1.1756541729038503,-0.9946441363521248,11.321189221241816,2.5477001046349574,7.134442089111891,11.41851520286326,walking
1970-01-01 00:00:18.600,-4.8079283235000005,-16.015910147,12.32169056,-1.0936456921,0.7184327393499998,-0.8131140472499999,-5.44390863285,-4.412890913,4.27464807,20.771365165946225,1.540571632431971,8.208676113430926,10.980978371489662,-0.3002798012386495,-10.238200125105296,0.6640456683536999,0.07208150079564991,0.011828291258999996,-0.17317443488901,0.3584598011211999,-1.2408447075138505,-0.9864887868621248,11.450353373386326,2.5385809881120234,7.17519058828012,11.409693535736107,walking
1970-01-01 00:00:18.700,-5.071288346999999,-9.4105229375,-2.0883359950000004,0.63986252983,-0.10964709500000004,-0.142403770225,-1.1828374865,-3.89890337005,-1.4694788459999997,10.892063839495444,0.6646242369163806,4.33127234046745,10.817763065762875,-0.34014123422064946,-10.234033622165297,0.6659614211986999,0.09292360944394991,0.016883815818999993,-0.17590415854725996,0.3516445656531999,-1.2813952684668504,-1.007759556702625,11.457810289721998,2.5294739427020447,7.21008823800177,11.395669761620093,walking
1970-01-01 00:00:18.800,0.5273182395,-9.815208913,-1.7412272094999999,-2.4207112790000003,-3.5096992254999995,0.6755970567499999,-0.03215146049999973,0.9757943155000002,-11.576097011,9.982397644185848,4.316742189758658,11.617195456333578,10.877474601387847,-0.37252061110564955,-10.195980262195299,0.5910615838237,0.0775226230669499,-0.014777924276,-0.17204818536325997,0.3134742404931999,-1.2288054466518503,-1.194604830667625,11.405074573758919,2.562754059373796,7.235045717044368,11.381634903834318,walking
1970-01-01 00:00:18.900,4.24277371175,-8.497212173,1.9743778105,-2.766221762,0.11865707484999995,-0.3981197181000001,5.349764823499999,-1.2878861424999997,1.3026592135,9.700613961017675,2.797241792894273,5.654693219735085,11.1296079916999,-0.33920803290314955,-10.121295782975299,0.6429050762087001,0.0195829976819499,-0.0267428948775,-0.17145566378775995,0.35309669721969994,-1.1868847847218504,-1.1944115047926251,11.338974281841056,2.557400761044684,7.233625404851177,11.37252674206881,walking
1970-01-01 00:00:19.000,-2.6724838020000004,-7.910821199499999,-0.5286642309999999,-1.483213544,-2.9025933745000003,-0.4490490631499999,-3.4134767055,1.970919609,1.6848455074000002,8.366764463730876,3.29038231455134,4.286613081202666,11.48659158405736,-0.3370664570881496,-10.055973219340299,0.6407605094337001,-0.0293290709230501,-0.0696946195976,-0.17678683300675996,0.3458749066697,-1.1109797716368504,-1.134383633063625,11.275321217019563,2.5534796437381,7.200684278921119,11.371524732872114,walking
1970-01-01 00:00:19.100,3.886243045,-10.724929811,2.522633314,-1.5585768219999998,-0.64719269405,0.84548893585,3.1303093583,-1.3500976562,4.5445503,11.68292272047496,1.8875570544892362,5.681068366880246,11.834477593506527,-0.3191337470396496,-10.126670655685299,0.6958717018987001,-0.0728878258380501,-0.08942727719955,-0.16923599757745997,0.35745405767469995,-1.1634159493688503,-1.028146828333625,11.340505535361508,2.541385030624818,7.182658032087686,11.379125277589544,walking
1970-01-01 00:00:19.200,2.2366909385,-15.856787205,2.7142086030000003,1.1056335268500002,0.41110021809,-0.46821440755000004,3.843252063,-5.77215004,6.0516495704999995,16.24214933928447,1.2691152888708783,9.20384512191283,12.074485204281897,-0.2871372222947496,-10.273501732726798,0.7271503794837001,-0.057654058510550096,-0.11269292201365,-0.16886338063045997,0.3768915662597,-1.2922566533338502,-0.8984095608386251,11.487191932989024,2.5259251205088904,7.1736506182478585,11.393166559825936,walking
1970-01-01 00:00:19.300,-4.192823529,-17.294425009999998,-2.934647441,3.741668582,0.70560494065,-0.46149508655,-3.900244832,-6.934750557,-1.93969053019,18.03577170998838,3.8354843011939668,8.189326858189462,12.159541894241165,-0.24033361552474955,-10.283258464706796,0.6117430496737001,-0.020475602920550097,-0.11331445883515,-0.16759816307925995,0.36141824100770004,-1.3213217711683505,-1.0174084549355251,11.462830386955938,2.5546063672640282,7.145558221554947,11.409785819735282,walking
1970-01-01 00:00:19.400,-0.419641256,-7.6054375145,-1.0719845295,2.9011427160000003,1.09158408655,0.34726665915,-1.2483204899,-0.4970846175000001,-4.6712646485,7.692069253600655,3.119099070110832,4.860669766481275,12.108300454114474,-0.21104097960474952,-10.266033134806797,0.6098766494287001,0.009875870466449905,-0.09104296739715,-0.16402623389275994,0.3679455417837,-1.3278868174783505,-1.021210163165525,11.440247294485387,2.5743624825011016,7.147204410044346,11.424880508094109,walking
1970-01-01 00:00:19.500,2.30010080355,-1.48743838055,-2.828017235,1.3278292864,2.952301145,-0.4566846937,3.4439340830000003,6.2081394195,-7.560741424500001,3.9370824380347442,3.2692160488486697,10.371426512690968,11.989282626138554,-0.21658335444924956,-10.151620318612295,0.6235232145037002,0.05072093722544991,-0.039023214532150005,-0.17147627991075998,0.3721862128837,-1.2364760756733506,-1.0289998274355252,11.340737752718539,2.5713566985920164,7.171097515718631,11.435467313313591,walking
1970-01-01 00:00:19.600,-8.3775712275,-12.9360482105,7.818548059175,-1.00522552425,1.0248489975,-1.1258678733999998,-1.2507411241500002,3.47485327705,3.182172777,17.281630036829434,1.8243827149572207,4.874954588439262,11.884413116846474,-0.30400363444924955,-10.209928924172296,0.6794270298894501,0.06914332759294992,-0.020267913294650004,-0.16933373283975997,0.33877149020220004,-1.2151583123478504,-1.018355275901525,11.439001221894314,2.5570004623436824,7.187197803834055,11.44047339499501,walking
1970-01-01 00:00:19.700,-1.96375968288,-11.2061867725,6.2647087574999984,0.8328902572000001,0.45928078915,-0.16286715864999998,-0.8217189314999999,-3.4592618943,5.013079882,12.987746143521443,0.9649718831073024,6.145948645982544,11.851568998829675,-0.31323245234204955,-10.241745990852294,0.7494903723394502,0.09031223949994992,0.010030111716849992,-0.17375168573475996,0.34898732234570007,-1.2652652859958504,-0.9800131647865251,11.487622473658753,2.5377814417300346,7.22183482508637,11.44080043059562,walking
1970-01-01 00:00:19.800,-1.3425230385,-7.8795647625,-9.4920282365,-2.210656166,-3.3392729755,0.6058841347499999,-2.3772253692,-1.4190936089500001,-10.9181299225,12.40921065168322,4.050288912401213,11.263684482953199,11.90275361579768,-0.3693142319420496,-10.183413461777294,0.6296772567394502,0.07907799524519993,-0.020153379388650007,-0.17087535862245995,0.2737209435237001,-1.2495309043203506,-1.146374970001525,11.465963521234446,2.5665099987996496,7.251907877418749,11.438762803876896,walking
1970-01-01 00:00:19.900,4.538586378,-11.4922783355,1.861915171,-2.9349684715,-0.13912046701,-0.3650575875000001,5.777535199999999,-2.723680496,-2.2215640547,12.495517426468172,2.960854855482019,6.762669242293677,12.003420173768255,-0.3261252785810496,-10.155522123882294,0.6168801436744502,0.02585334581519993,-0.031611346625750006,-0.16943604964995998,0.31685867239020005,-1.2129042458803505,-1.227053187413525,11.444673417502841,2.569712855231678,7.231724121362377,11.437139346190412,walking
1970-01-01 00:00:20.000,-2.181805551,-7.921439170999999,1.7337495387500002,-1.4808464645,-3.0693547725,-0.698885627005,-2.0834099055,2.14133644125,3.327799916,8.3973425239979,3.478834013074618,4.472155058793281,12.089478633667328,-0.3210390342360496,-10.073596359842293,0.6703402883759502,-0.023787920644800065,-0.07054522397224999,-0.17545671299266,0.32413721132969997,-1.1197561812628505,-1.157775186823025,11.36133026574196,2.568693870523802,7.1914034016871815,11.438145926170115,walking
1970-01-01 00:00:20.100,2.0871396362500003,-10.1216397295,0.572632432,-1.634856343,-0.6499415038,0.99308493745,0.5213394164999999,-0.18529987350000002,1.2303971649999998,10.350442047428547,2.0202467457217224,1.3490767264895327,12.0951876025555,-0.3127299563185496,-10.114498672847294,0.6968303311809503,-0.06733064071980006,-0.09216081800025,-0.16769513495316002,0.3135231189796999,-1.1435044360418505,-1.089377078938025,11.39982135978405,2.557707770187429,7.142632915458708,11.442666746062626,walking
1970-01-01 00:00:20.200,2.77417879935,-13.808680535,4.4857946635,0.6806365772499999,-0.01007896659999996,-0.5062396526,4.7872447372,-3.49677372,6.821899414,14.781680550314162,0.8483197049007454,9.03788970044807,11.98349632237687,-0.2962224702520496,-10.242392053378294,0.7695018506959502,-0.06297835374180007,-0.11995589496624999,-0.16447444237766004,0.32782216418669996,-1.2480625319768504,-0.940617279933025,11.515956778232983,2.5371805274457695,7.121401720580327,11.450019896887959,walking
1970-01-01 00:00:20.300,-1.2587742508000002,-17.02268982,-2.6101210114999995,3.93324554,0.34337250885,-0.43545773625,0.15877658149999996,-7.6918730735,-1.312911749,17.267576929525536,3.972146598229201,7.804733092318366,11.767463751216173,-0.2723660279800496,-10.252914495268294,0.6035551119809502,-0.020038081646800068,-0.12660420360275,-0.16252813033766003,0.39588605092769996,-1.2407345795818505,-1.002151399803025,11.473248091638393,2.5644776241241773,7.08172215344201,11.458330796404741,walking
1970-01-01 00:00:20.400,-1.49461681416,-12.278769490999998,-1.5197414457499998,2.6613851785,1.22154183675,0.20180865748999996,-2.5780666770500003,-3.4234280588,-1.8948746325,12.46241042881402,2.935278906936776,4.685812345579662,11.510790711228033,-0.2471082886316496,-10.293052600083795,0.5836243949284502,0.00855720600319993,-0.10370124833775,-0.15948305677626004,0.3880270917886999,-1.2720658970098504,-0.974755911184525,11.505841151850586,2.5829123439826924,7.078806760726698,11.465322759613983,walking
1970-01-01 00:00:20.500,3.3450164795,-2.495265335,-2.162513435,1.81681242605,3.041866541,-0.21265120805000004,3.6497518419999997,5.3379101755,-6.3085751535000005,4.700207303591485,3.5495041880507925,9.033941222813352,11.303151584868813,-0.23348714612164959,-10.217064029343796,0.6089060620434502,0.05020324459369993,-0.05126153962775,-0.16697204422226006,0.3984635509686999,-1.2214387750848505,-0.9448050826345251,11.439783201583639,2.585774657639025,7.072489267171498,11.469171745086399,walking
1970-01-01 00:00:20.600,-1.0145568104,-2.21994130662,3.2313574550000004,-1.2874369620000001,1.3066022282049998,-1.2403253315,0.8524400590500001,7.1573910715,-5.2751907110000005,4.049584661215372,2.2142967826907585,8.932107144570187,11.220581696052761,-0.2577997190506495,-10.152580448024997,0.6151782480784501,0.06386789670369993,-0.0344808026982,-0.16701403986426006,0.3682105644191999,-1.1479483914598505,-1.0116779762055252,11.388666824900806,2.578406280688778,7.120497375997075,11.46910733273764,walking
1970-01-01 00:00:20.700,-6.890880585,-17.323138715,8.6108715535,0.98598384865,0.98415128905,-0.13499724678,-8.25473249,-8.879105089,6.035194874149999,20.53588271993043,1.3996221512164,13.542625034753556,11.291732136107113,-0.30663872532664954,-10.241557558424995,0.7049195674984502,0.08654483786019992,0.004703522492299998,-0.17044776523256006,0.3170737357541999,-1.2512507796298504,-0.9669100129126252,11.507337845480084,2.560314797691634,7.217975519858976,11.465609062726873,walking
1970-01-01 00:00:20.800,-3.6252758505,-9.038289545,-7.321738408235,-1.9706696270500001,-3.3085014825,0.4949389994,-1.6073672176499998,-1.9076209069999999,-7.423605203999999,12.183642977783714,3.8826132245961817,7.831510781583288,11.487096343558699,-0.38327335648664956,-10.225432923649995,0.6084140374395002,0.08239642163869992,-0.0278943417827,-0.16952309514072506,0.2629902656476999,-1.2581669068358503,-1.0809633624126251,11.512912125885128,2.5830631264796495,7.239916613212143,11.460202889951713,walking
1970-01-01 00:00:20.900,5.9581284525,-12.651002885,-1.3881361485,-2.6571092605000004,-0.5483117701,0.07757762080000002,5.1018726825,-4.4649186135,-5.624696017000001,14.052547477932277,2.7142022228850307,8.80918886034771,11.733046419625719,-0.3395714407416496,-10.192417953849993,0.5509907819945001,0.03417995652369993,-0.0389674755807,-0.16600308755972507,0.2990196962776999,-1.24677507162085,-1.2045000803126253,11.48731633147607,2.5876818000034354,7.239164894450011,11.454938751821405,walking
1970-01-01 00:00:21.000,-1.02173529545,-6.965058087999999,1.94940269,-2.259371281,-1.5420838590000001,-1.39670229,0.8218071459999999,2.6199290755,1.8666341305,7.304529281956623,3.071409855504009,3.320198536686389,11.939410209347068,-0.33247223473614956,-10.092451806879994,0.6048113455505001,-0.022816672716300074,-0.0655859082017,-0.17548649157422505,0.3073430891426999,-1.1552048921558502,-1.1485654991506253,11.38644207766688,2.581939765888058,7.197118717810267,11.451678252014972,walking
1970-01-01 00:00:21.100,-1.0097711534,-8.1847996715,-0.059371888500000074,-1.442744851,-2.6577200885,0.13881503045000002,-1.6846167149000002,1.5729055405,0.58818042265,8.247066658271251,3.0272526136056594,2.3786385864701676,12.027902677171198,-0.3317304594413496,-10.099525590754993,0.6205875243855001,-0.06535683909630008,-0.1070693092567,-0.17603167283372506,0.3173910324351999,-1.1340983295408504,-1.0942421513441254,11.391603941827638,2.5803334984383675,7.165238292156379,11.451399716453366,walking
1970-01-01 00:00:21.200,4.650002241,-13.794323445,2.82682091,-1.0795198531,-0.4824929981,0.5691569337049999,6.171001434500001,-3.520413399,6.2201395035,14.828917580315663,1.312288924603515,9.442706425991492,11.954892182481425,-0.31540243502734966,-10.219651269835495,0.6785491665305001,-0.08126711989230007,-0.14248165254769998,-0.16412625967417507,0.3380825393001999,-1.2247701811808505,-0.9608566099041255,11.493963664026232,2.561827828206853,7.160537316202661,11.453789221717939,walking
1970-01-01 00:00:21.300,-0.7727321980000001,-15.47139311,-1.012313485,2.29266244155,1.25032800435,-0.5815266072999999,0.317054987,-6.660557747,5.934197307000001,15.52372050785166,2.675405461673746,8.926267475507853,11.725668653887459,-0.24926481958734967,-10.222071011625495,0.5953163250305,-0.05392330611730006,-0.13976567258369998,-0.16303360684867507,0.38019570873019987,-1.2940234899558505,-0.9455846374791254,11.464824682236435,2.5758138701281035,7.190929768806735,11.45732335300891,walking
1970-01-01 00:00:21.400,-3.5702409745000003,-14.378321645,-0.025722846400000027,3.4037173985000004,0.7640935183500001,-0.07895200325500001,-3.284896493,-7.0037617685,-4.563728571,14.814972683332938,3.4893214888361994,8.981694848378432,11.39601561907034,-0.25104896780234964,-10.261549587760493,0.5877400491165,-0.020677942883300063,-0.12339878370319997,-0.16285646098772508,0.3533949385651999,-1.3335380172758504,-1.0103296201991254,11.503049548769491,2.6018921162055597,7.2442317369349,11.459843882932821,walking
1970-01-01 00:00:21.500,2.4305096715,-4.3818564415,-2.476122737,2.626719594,1.4812282771499998,0.20127416773499998,2.33747053155,3.2417860035,-6.3577935695,5.589206289434882,3.0222846201391587,7.509626092604657,11.057148214007505,-0.23601456295734966,-10.223783369585494,0.6262973937915001,0.030087281816699937,-0.08183139210169997,-0.16612907535537505,0.3802705799106999,-1.3041612386695005,-0.9567053311441255,11.455253309315774,2.5954553899850947,7.202034067004779,11.459397478219966,walking
1970-01-01 00:00:21.600,-0.10244274154999994,-1.05044916295,-1.943420589,0.16981554019999995,2.875105262,-0.5922927707500001,2.6038229465,7.344388485,-7.582764625499999,2.2115201886909697,2.9403874424225487,10.872821874796564,10.806964683092634,-0.26940042089784966,-10.132364085554995,0.5773866037015002,0.061489411943699945,-0.04400925760169998,-0.17110671690837506,0.3564122496606999,-1.2088759899095005,-1.0293567895266256,11.366442467162006,2.5937867008386877,7.256202226934567,11.455009503184954,walking
1970-01-01 00:00:21.700,-4.9444690346,-13.8336558325,15.0583319645,-0.345510483,0.8819870946999999,-0.974606809085,-2.009022355,-6.3884491930000005,7.3439533710000005,21.03737553211574,1.359094243014474,9.93891870526439,10.719074700485528,-0.29656045447884966,-10.192586949689995,0.7286473909315001,0.07549690281869995,-0.01036837165469998,-0.17112809676672505,0.3608261703056999,-1.2939724683795006,-0.9819067417966256,11.495583137416354,2.5755092483358295,7.3140480049166126,11.44711277552717,walking
1970-01-01 00:00:21.800,-3.905535221,-10.141978741,-2.1278176305,0.15210098025000002,-0.8348754941500001,-0.282440491,-3.4678304795,-2.3368482575,-5.9606683254999995,11.074319212214993,0.8943849450217387,7.28122756818855,10.822023999545184,-0.37378282379384964,-10.193677180619995,0.6804544476015001,0.09482487415619996,-0.007827247430199979,-0.18123456444572505,0.3040277252403499,-1.310741310109501,-1.0667414092426255,11.495659506225566,2.5623464068185884,7.352665148617407,11.437484652263052,walking
1970-01-01 00:00:21.900,2.5897819399,-11.079217433,-3.4482070802499996,-2.346951485,-2.6324462294999997,0.5900020896999999,1.4859770534999999,0.4170069694999998,-5.429117441500001,11.888909180080802,3.575759624192157,5.644230577301005,11.093510898308255,-0.36190844070384964,-10.148343656849995,0.6113482341490001,0.06986565550169996,-0.031751843145699975,-0.17283846881257503,0.2887992984863499,-1.2526626014595008,-1.1987400483626256,11.454015979448803,2.594334524832294,7.309860837113246,11.42869005601149,walking
1970-01-01 00:00:22.000,1.300499201,-7.504788875499999,2.24745874115,-2.838912606,-0.27251422415000004,-1.0128611026,3.02843672,0.22341775899999994,1.5381358265,7.941298699255792,3.0264792085903838,3.4039985726853326,11.466951630032993,-0.3188630564138496,-10.057006629304995,0.6754624225554999,0.0020646639666999623,-0.03572540437419997,-0.17983190636857502,0.3303851798968499,-1.1817051553645008,-1.1554925137276255,11.359301938351184,2.585043242759182,7.268886586571612,11.42318270550013,walking
1970-01-01 00:00:22.100,-1.3855939132550001,-8.487640857999999,-0.7559823991499999,-1.1596935395,-2.9095418455,0.13675342499999998,-2.2676588294999998,1.4545893669999999,0.8996999265000001,8.633158588527426,3.1351274863269625,2.8403462379334803,11.847235405256082,-0.3172224783449496,-10.046508119904995,0.687755548544,-0.036855469748300035,-0.07766388642349996,-0.180122822371925,0.3271670975578499,-1.1426927184945008,-1.0982637327376255,11.3469894334455,2.586157918836144,7.239813532367517,11.42237847593178,walking
1970-01-01 00:00:22.200,4.6642096045,-11.722138885,2.9416762595,-1.32240802045,-0.2344889639,0.4810422258485,5.088223219,-1.319660663605,5.3968720435,12.954414324455003,1.42658672003866,7.533773798525476,12.135085013850345,-0.3026786028849496,-10.144917436663695,0.743478405069,-0.07088195364280005,-0.10646228062249996,-0.17396929974444,0.3373694696328499,-1.215016787045551,-0.9714054506476256,11.430968234609193,2.5667439430827863,7.2128585728140715,11.426094176169778,walking
1970-01-01 00:00:22.300,0.9186943622,-15.847215655,3.512663603,2.1494951246000005,0.7657733859999999,-0.5588488877000001,1.6539710910499998,-6.624287605,6.4410910605,16.257830388309998,2.3492658956935046,9.386397641983786,12.257204003683428,-0.26666063974294957,-10.251598443536196,0.7020242484440001,-0.03662258546180004,-0.11824323313249996,-0.16611762190944002,0.3487437198388499,-1.336549596775551,-0.8913879125776256,11.497282087124884,2.563377135389617,7.249040441336748,11.43262618877975,walking
1970-01-01 00:00:22.400,-3.9749269485000003,-16.68141365,-4.162763655,3.5533747675000003,0.70453596125,-0.1336991936,-3.931173444000001,-7.701406955499999,-3.4734129905,17.646478596470935,3.625012914924502,9.318282649909731,12.192218298963468,-0.25892883012794954,-10.280961367636197,0.5536737324740001,-0.010093489837300035,-0.12014984028199996,-0.16422323192244,0.3660855255338499,-1.3257790231555509,-0.9735828798626255,11.4933665480693,2.586525230475755,7.227470061902412,11.439440936940118,walking
1970-01-01 00:00:22.500,1.7482559683,-6.2623159885,-2.131406784,2.7406425475,1.1982532738,0.4885251075,1.544152498,1.8697009088049998,-4.570500135500001,6.842214213936928,3.0307737068276137,5.173940462942283,11.979035855418408,-0.22085004994994953,-10.253476805236197,0.6126882185690001,0.027372063149199963,-0.09118651794049995,-0.16375440652244003,0.3870888421713499,-1.300327198492501,-0.8982438176276255,11.439329380675433,2.596608277741867,7.157849562155333,11.444150691820742,walking
1970-01-01 00:00:22.600,0.5955137609000001,-0.8313563077099999,-2.3265713455,0.14515259884999998,2.4743895535,-0.70591035485,3.1584132315,7.045978546000001,-7.454019069499999,2.5414020098150836,2.5772043707295103,10.732371038129282,11.701366010787781,-0.2604946340109495,-10.136225507013295,0.5927096452440002,0.058502366597699966,-0.049552695168999954,-0.17363867870294006,0.3627945045413499,-1.1879559540675009,-0.9145909160006255,11.331114533009528,2.5881154553123498,7.174258973386459,11.44535464713421,walking
1970-01-01 00:00:22.700,-3.01121783275,-17.2980141635,11.6980614665,-0.48111850000000006,1.19489359855,-0.8968765104319999,-5.408924310850001,-8.286856653500001,5.805401447,21.098184019268825,1.569596507979901,11.473061551172428,11.455319923448222,-0.2727159770839495,-10.242822766053294,0.6970202641815001,0.07453558093269998,-0.015368155253499948,-0.16980561244226006,0.30858022996284995,-1.3025214982175009,-0.8699898421116005,11.472187161509762,2.5707539257492287,7.254555657477715,11.443059817165759,walking
1970-01-01 00:00:22.800,-6.115157366,-9.2896852495,-1.838136435,0.35398598015000005,-0.8858048765000001,-0.18340688944999994,-1.9829822778,-2.80820632,-4.542683123000001,11.27262822945015,0.9713878939289191,5.696859784630991,11.315012353965654,-0.3412957688739495,-10.247336225258293,0.6810048033880001,0.09097806176419997,-0.008315160433999949,-0.17876826899976006,0.2934847492848499,-1.341870422379001,-0.9281467559111004,11.496186896854208,2.5587778139217905,7.29387740990418,11.438606231775752,walking
1970-01-01 00:00:22.900,0.7966603045000002,-11.536545755499999,-1.25518506775,-2.5981624125,-2.500045061,0.78646585345,1.2908709049999996,0.8268430235000002,-10.186781883999998,11.631940730755709,3.6904202697526403,10.30148252588319,11.308791817680802,-0.37348222459394953,-10.229977793463293,0.6462894322555001,0.07266944273069997,-0.031118851685999944,-0.17287664721676005,0.25161773868984993,-1.2919622874390009,-1.0741547586811004,11.47208151799018,2.5874604819186713,7.315145062074755,11.434162512360997,walking
1970-01-01 00:00:23.000,2.6208886505000004,-8.132157326,2.117049813,-2.7407189605,-0.33741676815000005,-1.28865861885,4.623890757999999,-0.13632154500000015,0.63725948335,8.802439434830466,3.0472990551977963,4.669587664309184,11.411852821350593,-0.33011231327944957,-10.174482254773292,0.6448193409105,0.019149296720699965,-0.043335033515999946,-0.18083675022126006,0.2950774357608499,-1.2462285828790007,-1.1216002275826005,11.42037037932477,2.58992743842486,7.290271197418425,11.431934714393645,walking
1970-01-01 00:00:23.100,-2.924926698,-8.2171025275,-0.2460120914999999,-1.1617551444999998,-2.7254477739999996,0.2522035539,-3.5892018080000003,1.47235774975,0.6572956444999999,8.725622733380366,2.9734402999175145,3.9347483434240145,11.55663860103742,-0.32675937259944954,-10.096314725648291,0.6718971188954999,-0.025730414549300033,-0.07481046543599995,-0.17834067563426007,0.28946959594084987,-1.1550262761315007,-1.0723432388171004,11.341362228504941,2.5861329224974643,7.236946926279248,11.433320978820225,walking
1970-01-01 00:00:23.200,5.2268220185,-10.338339805499999,2.118096709,-1.26498830305,-0.46218231305,0.6640673501000001,4.3466887475,-0.6769828795,4.140078366,11.776556033736636,1.5015969308767259,6.040882200755156,11.659831820279626,-0.2953012319914495,-10.142232992418291,0.7117346247104999,-0.06475515500480004,-0.09484320090199995,-0.17260711030241005,0.29839733341584984,-1.1868424391915007,-0.9865688332171004,11.395226559098264,2.570588260784734,7.2357985385798065,11.438333822350199,walking
1970-01-01 00:00:23.300,1.2898809684499999,-15.061771395,2.0941684245,1.612025972325,0.72286137935,-0.5745018422999999,2.4727070330000003,-5.599354743999998,4.7661436795,15.261267701543753,1.8577428982537494,7.757781847528374,11.658941057810388,-0.28532914328194947,-10.280298855693292,0.7545526905954999,-0.04839971919155004,-0.11614420847349996,-0.16839455501141004,0.2929220608808498,-1.3140102791965007,-0.8617158337721004,11.522448475497054,2.5589473529948203,7.204122072100164,11.445577692350689,walking
1970-01-01 00:00:23.400,-4.261018872,-16.384703639999998,-2.59591341,3.5753653045,0.7863894663400001,-0.16500511019999994,-3.3218968510000004,-5.982749939,0.4263352155,17.127567300419145,3.664542555324607,6.8563880605799765,11.543431131341679,-0.29566015409694946,-10.274363165343294,0.6230685802204999,-0.00837624360705004,-0.11941224148009998,-0.16140951676942503,0.3246069649803498,-1.2864452910765007,-0.8950977393271004,11.491230592439015,2.580871502579335,7.157502946229539,11.452840746103417,walking
1970-01-01 00:00:23.500,0.1896311639999999,-8.242227316000001,-0.96909320345,2.7224698065000004,1.11502531185,0.2440334782,-0.6076846418999999,-1.3598489765,-4.019624114,8.301169360032931,2.952062945103429,4.2867059475475475,11.36318884090766,-0.2608625315369495,-10.261685692498293,0.6379713781609999,0.015380369078949963,-0.10335306694209997,-0.15737487069042502,0.32654703090019976,-1.2830405640965006,-0.9461302550896002,11.47065025205722,2.6041738562073937,7.178671961765053,11.458048248032517,walking
1970-01-01 00:00:23.600,2.1098713876499997,-2.0152053235,-2.3241785765,0.7766159512999999,2.8385307789999996,-0.6218425184499999,3.353622198,5.83057189,-7.0153422354999995,3.730203187997732,3.0078360056519347,9.718918514555343,11.206990747347927,-0.2371242343154495,-10.195344687548292,0.6675376923809999,0.04543405472194996,-0.04787439277209998,-0.16922072610542505,0.36263657639019975,-1.2357798886630007,-0.8879978498446002,11.406578165255677,2.5987212115807425,7.147075410087227,11.460144436305592,walking
1970-01-01 00:00:23.700,-5.29397077875,-9.7446203235,9.00344348085,-0.9405521006,1.1269368233,-0.97506491835,-0.7004986999999999,4.176026821000001,1.1453464034999996,14.28445821052687,1.7622078346918844,4.386538136437827,11.160789639080733,-0.3242454147629495,-10.191538599578292,0.7369430049344998,0.06214225365594996,-0.03407306244409998,-0.171302187820375,0.3071573133251998,-1.1728633618730004,-0.8805018692786003,11.440583598924,2.5890091786821308,7.137903027617361,11.459531518867745,walking
