"Time (s)","Acceleration x (m/s^2)","Acceleration y (m/s^2)","Acceleration z (m/s^2)"
7.487401800E-2,2.160120726E0,5.149055004E0,1.158066368E1
1.248740180E-1,1.824826360E0,3.947260141E0,1.079073238E1
1.748740180E-1,6.589235067E-1,2.549253464E0,8.161917686E0
2.248740180E-1,1.688435435E0,3.849154234E0,8.375178337E0
2.748740180E-1,1.681257010E0,1.234696507E0,1.019701385E1
3.248740180E-1,1.968096644E-1,1.275374413E0,8.714959145E0
3.748740180E-1,1.300499082E0,2.759821892E0,7.194918633E0
4.248740180E-1,2.526222467E0,3.908974886E0,7.015157700E0
4.748740180E-1,2.408974171E0,3.925724745E0,7.884350777E0
5.248740180E-1,1.817647934E0,4.105186462E0,9.342177391E0
5.748740180E-1,1.420140266E0,4.272983074E0,8.499605179E0
6.248740180E-1,4.587639332E0,5.429314613E0,1.039801121E1
6.748740180E-1,4.812564373E0,4.497908592E0,9.260822296E0
7.248740180E-1,7.398308277E0,4.718048096E0,1.055384350E1
7.748740180E-1,6.890730858E0,1.584347725E0,7.936992645E0
8.248740180E-1,3.919742584E0,2.869891644E0,6.146264076E0
8.748740180E-1,3.282952785E0,2.027318954E0,5.564508915E0
9.248740180E-1,3.637090445E0,5.682953820E-2,3.550948858E0
9.748740180E-1,4.791028976E0,-2.131406784E0,2.073679924E0
1.024874018E0,7.161418915E0,-4.087240219E0,1.595115423E0
1.074874018E0,1.046261692E1,-8.288139701E-1,6.143871307E0
1.124874018E0,1.262692547E1,1.469492197E0,7.946564198E0
1.174874018E0,1.387926865E1,1.495813251E0,7.211668491E0
1.224874018E0,1.512892056E1,-7.953144312E-1,6.380760670E0
1.274874018E0,1.431954765E1,-1.180858016E0,1.776670814E-1
1.324874018E0,1.149212933E1,-2.538485765E0,1.058823988E-1
1.374874018E0,6.689733982E0,-3.900599957E0,1.855933070E0
1.424874018E0,1.246421337E1,-2.799303293E0,2.605185747E0
1.474874018E0,7.374380112E0,-3.790530205E0,1.106680512E0
1.524874018E0,6.493223190E0,-3.838386536E0,4.435695112E-1
1.574874018E0,5.164608479E0,-2.603091955E0,3.529413462E0
1.624874018E0,4.989932537E0,-3.309273720E0,4.089632988E0
1.674874018E0,7.872386456E0,-4.930111885E0,4.649852753E0
1.724874018E0,1.438654709E1,-6.531807423E0,6.258726597E0
1.774874018E0,8.513961792E0,-6.646663189E0,5.973681927E0
1.824874018E0,1.235892868E1,-7.458128929E0,8.742775917E-1
1.874874018E0,8.090133667E0,-7.965706348E0,1.278963685E0
1.924874018E0,5.892325878E0,-7.522735119E0,-6.266204119E-1
1.974874018E0,9.287142754E0,-5.557330608E0,1.283749342E0
2.024874018E0,4.446462631E0,-5.825326920E0,5.847460628E-1
2.074874018E0,5.011467934E0,-4.331607342E0,1.324427366E0
2.124874018E0,4.666602135E0,-6.017051697E0,1.403390527E0
2.174874018E0,2.566900492E0,-6.828517437E0,-2.213959217E0
2.224874018E0,4.731208801E0,-7.211668491E0,-6.242275834E-1
2.274874018E0,5.066503048E0,-1.220100307E1,2.614158690E-1
2.324874018E0,6.845267296E0,-1.393430328E1,1.784148335E0
2.374874018E0,7.810173035E0,-1.403719521E1,-2.102692872E-1
2.424874018E0,2.763411045E0,-8.997611046E0,2.674876690E0
2.474874018E0,-6.577271223E-1,-6.964908600E0,-1.354636669E0
2.524874018E0,8.335995674E-1,-9.390333176E0,5.499902725E0
2.574874018E0,-3.200400352E0,-3.889742661E1,3.107977629E0
2.624874018E0,-2.975175858E0,-1.111466169E0,-8.422735929E-1
2.674874018E0,3.105584621E0,-1.978266120E0,5.536393523E-1
2.724874018E0,-1.215553880E0,-3.165704250E0,-6.161518395E-2
2.774874018E0,5.584250093E-1,-4.829613209E0,3.804887056E0
2.824874018E0,-5.694917679E0,-1.986192322E1,2.058006859E1
2.874874018E0,-1.816451430E0,-4.127918243E0,3.699303865E0
2.924874018E0,-4.399802685E0,-1.581117344E1,1.482353687E0
2.974874018E0,-2.575574398E0,-7.762316704E0,-4.086342812E0
3.024874018E0,2.504687071E0,-1.052991486E1,-6.375077724E0
3.074874018E0,4.004986882E-1,-9.801898956E0,4.209274292E0
3.124874018E0,-1.272981644E0,-7.836493969E0,5.368895531E-1
3.174874018E0,-7.079764009E-1,-6.873981476E0,1.142572761E0
3.224874018E0,-2.572284266E-2,-7.379166126E0,7.618148923E-1
3.274874018E0,-2.509472668E-1,-8.777471542E0,-1.766202211E0
3.324874018E0,-6.218347549E-1,-9.507581711E0,2.733799815E-1
3.374874018E0,2.349153519E0,-1.024008465E1,3.072085142E0
3.424874018E0,6.364010811E0,-1.381944847E1,3.778566122E0
3.474874018E0,3.225524902E0,-1.461416435E1,6.431009769E0
3.524874018E0,-9.092726111E-1,-1.814776421E1,-7.296613693E0
3.574874018E0,-4.088735580E-1,-1.486062527E1,1.698006749E0
3.624874018E0,2.253440619E0,-1.200209904E1,-6.580262445E-3
3.674874018E0,-1.917249203E0,-5.413761139E0,-2.616252422E0
3.724874018E0,2.133799553E0,-3.404986620E0,-2.805285454E0
3.774874018E0,-6.601199508E-1,-3.141776085E0,-5.117649436E-1
3.824874018E0,-9.786644578E-1,-3.534198999E0,-2.365903407E-1
3.874874018E0,1.343569875E0,-9.114859581E0,1.053709316E1
3.924874018E0,4.649852753E0,-2.008236313E1,9.969695091E0
3.974874018E0,-1.979462504E0,-9.421440125E0,4.494318962E0
4.024874018E0,4.623531342E0,-1.397737408E1,2.638685226E0
4.074874018E0,-3.052045345E0,-8.540283203E0,-8.350951076E-1
4.124874018E0,1.738684773E0,-8.837292671E0,-6.968796730E0
4.174874018E0,1.326820135E0,-9.658329964E0,2.169692039E0
4.224874018E0,1.101894855E0,-7.376772881E0,1.384247899E0
4.274874018E0,2.717947483E0,-8.607281685E0,1.197607756E0
4.324874018E0,9.269196987E-1,-1.005105114E1,2.621935368E0
4.374874018E0,2.516651154E0,-8.619246483E0,-5.285146832E-1
4.424874018E0,2.887837887E0,-6.594020844E0,-3.856332779E0
4.474874018E0,3.290131092E0,-1.278754330E1,5.576473236E0
4.524874018E0,5.566901684E0,-1.311536026E1,3.598805189E0
4.574874018E0,1.645364642E0,-1.493031597E1,6.337689877E0
4.624874018E0,2.248655081E0,-1.471466255E1,-9.475577474E-1
4.674874018E0,-1.359422326E0,-1.783909035E1,-3.281756163E0
4.724874018E0,-8.255237937E-1,-1.282104301E1,-9.403793216E-1
4.774874018E0,-1.902892232E0,-6.366403580E0,-1.385743380E0
4.824874018E0,4.551746845E0,-2.713161707E0,-2.204387903E0
4.874874018E0,2.023430586E0,-1.444367528E0,-5.500500798E-1
4.924874018E0,1.393819153E-1,-2.145763636E0,-1.074377418E0
4.974874018E0,-3.229114056E0,-9.181859016E0,1.486062527E1
5.024874018E0,6.972087026E-1,-1.903849411E1,1.135573769E1
5.074874018E0,-4.948058128E0,-2.828017235E0,7.012764931E0
5.124874018E0,-3.918546200E0,-1.566760445E1,-7.102795124E0
5.174874018E0,-2.005783558E0,-6.840481758E0,-3.569194078E0
5.224874018E0,6.160621166E0,-9.897911072E0,-6.379863262E0
5.274874018E0,5.626722336E0,-1.292632675E1,1.583151340E0
5.324874018E0,8.742775917E-1,-6.409474373E0,1.578365684E0
5.374874018E0,-2.056032896E0,-8.205287933E0,2.133799553E0
5.424874018E0,-1.510170221E0,-8.341678619E0,-7.633104324E-1
5.474874018E0,1.317248821E0,-7.783852100E0,-2.321636200E0
5.524874018E0,5.143073082E0,-1.297896957E1,5.779862881E0
5.574874018E0,3.663411379E0,-1.348176098E1,5.563312769E-2
5.624874018E0,2.694019079E0,-1.286411381E1,3.946063757E0
5.674874018E0,-1.692921966E-1,-1.552164268E1,3.632304668E0
5.724874018E0,-1.818844318E0,-1.667797470E1,-6.712465763E0
5.774874018E0,-2.015354872E0,-1.581117344E1,8.455637097E-1
5.824874018E0,9.966106415E-1,-7.867600918E0,-2.228316069E0
5.874874018E0,1.089930773E0,-4.432105541E0,-1.569990754E0
5.924874018E0,3.369094372E0,-3.129812002E0,-1.749452472E0
5.974874018E0,-3.442673683E-1,-9.655039310E-1,-1.821237087E0
6.024874018E0,-1.656132340E0,-3.462414265E0,3.761517286E0
6.074874018E0,-8.405088425E0,-2.702992249E1,1.500688648E1
6.124874018E0,-1.512562990E0,-7.585247993E0,3.831208229E0
6.174874018E0,-5.422136307E0,-1.895713806E1,3.340380430E0
6.224874018E0,-2.458326101E0,-1.966302037E0,-8.941379547E0
6.274874018E0,7.604091167E0,-1.395823193E1,-7.229614735E0
6.324874018E0,1.908575177E0,-1.052034378E1,4.326522350E0
6.374874018E0,-3.050848842E-2,-8.011170387E0,1.202393413E0
6.424874018E0,1.202393398E-1,-8.985647202E0,1.233500123E0
6.474874018E0,-1.107876897E0,-8.379963875E0,2.157727718E0
6.524874018E0,-8.733802438E-1,-8.540283203E0,-7.345965505E-1
6.574874018E0,2.109871387E0,-9.588937759E0,-7.202396393E-1
6.624874018E0,9.942178130E-1,-1.163839054E1,4.295415878E0
6.674874018E0,2.935694218E0,-1.186810112E1,1.922932148E0
6.724874018E0,-5.476573110E-1,-1.561735535E1,5.571687698E0
6.774874018E0,4.316053987E-1,-1.540888023E1,-4.636692047E0
6.824874018E0,-2.475075960E0,-1.443709564E1,-3.104687452E0
6.874874018E0,-8.111668825E-1,-1.180349541E1,-2.413759828E-1
6.924874018E0,-2.630609512E0,-7.798209190E0,-1.220339537E0
6.974874018E0,1.925324917E0,-4.932504654E0,-3.351148129E0
7.024874018E0,-7.390831113E-1,-2.861516714E0,-2.099103689E0
7.074874018E0,-7.704889178E-1,-3.603590965E0,1.082752272E-1
7.124874018E0,8.359923959E-1,-6.641877651E0,3.747160196E0
7.174874018E0,-5.304887772E0,-2.291456604E1,1.462612820E1
7.224874018E0,-3.028116941E0,-8.698508263E0,4.013062477E0
7.274874018E0,-9.643075466E-1,-1.176760292E1,-4.648955345E0
7.324874018E0,-4.802095890E0,-7.371987343E0,-1.574776411E0
7.374874018E0,3.512663603E0,-1.148255730E1,-5.362315655E0
7.424874018E0,6.431009769E0,-7.934599876E0,1.688435435E0
7.474874018E0,-2.724826932E-1,-9.722935677E0,1.664507270E0
7.524874018E0,-3.248256683E0,-7.383951664E0,3.455235958E0
7.574874018E0,-1.261017561E0,-8.959325790E0,3.182155132E0
7.624874018E0,2.358724833E0,-8.854042053E0,-7.417750359E-1
7.674874018E0,1.106680512E0,-1.024726295E1,3.069692373E0
7.724874018E0,2.015953064E-1,-9.588937759E0,3.744767427E0
7.774874018E0,-8.494520187E-1,-1.240199947E1,6.304190159E0
7.824874018E0,7.570292354E-1,-1.320897961E1,5.909075737E0
7.874874018E0,-4.007977992E-2,-1.504038620E1,-3.894618034E0
7.924874018E0,-3.203391433E-1,-1.358704472E1,6.505187511E0
7.974874018E0,-2.451147795E0,-9.275477409E0,1.130608693E-1
8.024874018E0,-2.850749016E0,-5.954838276E0,4.029812336E0
8.074874018E0,-9.140582681E-1,-5.114359379E0,2.021037817E0
8.124874018E0,-1.345065475E0,-5.174180031E0,6.684948206E-1
8.174874018E0,-5.309075117E-1,-5.734399319E0,3.773481369E0
8.224874018E0,1.896311939E-1,-6.158228397E0,5.684150219E0
8.274874018E0,-5.881857395E0,-1.210289669E1,2.617149830E0
8.324874018E0,-1.471885085E0,-1.082662487E1,6.263512135E0
8.374874018E0,-1.833201289E0,-1.751576042E1,2.447259426E0
8.424874018E0,-5.778666496E0,-2.643769979E0,-7.148258686E0
8.474874018E0,-1.158126116E0,-8.959325790E0,-5.237888813E0
8.524874018E0,5.552545071E0,-1.506670666E1,3.714857101E-1
8.574874018E0,3.649054527E0,-8.437391281E0,2.044965982E0
8.624874018E0,-1.558026671E0,-7.060920715E0,2.954836845E0
8.674874018E0,-1.038485050E0,-8.051848412E0,4.603192508E-1
8.724874018E0,-1.740778536E-1,-9.110074043E0,-2.405683994E0
8.774874018E0,-1.996212244E0,-1.054427242E1,-2.154138565E0
8.824874018E0,2.873480797E0,-1.205952740E1,7.733603001E0
8.874874018E0,4.657031059E0,-1.518156242E1,3.763910055E0
8.924874018E0,2.993122101E0,-1.662772369E1,2.179263115E0
8.974874018E0,-1.170090318E0,-1.530359650E1,-8.599205971E0
9.024874018E0,-3.966402531E0,-1.892603111E1,2.732304335E0
9.074874018E0,-1.806880236E0,-9.960124016E0,-3.360719442E0
9.124874018E0,-6.409773827E-1,-5.071288586E0,-2.264208317E0
9.174874018E0,4.826921463E0,-2.239083767E0,-3.712763548E0
9.224874018E0,-8.315058798E-2,-7.929216027E-1,-2.618645191E0
9.274874018E0,-1.842772484E0,-1.554437399E0,1.791326880E0
9.324874018E0,-1.672702599E1,-2.492543602E1,1.127438164E1
9.374874018E0,-1.019342422E0,-7.712067604E0,5.937789440E0
9.424874018E0,-4.249054909E0,-1.335015583E1,5.255535603E0
9.474874018E0,-2.448754787E0,-5.305785179E0,-7.026224613E0
9.524874018E0,1.906182289E0,-1.055384350E1,-9.420243263E0
9.574874018E0,3.802494287E0,-1.530359650E1,1.034895778E0
9.624874018E0,3.605983734E0,-7.702496052E0,9.005986452E-1
9.674874018E0,-2.877070189E0,-6.507879257E0,3.555734396E0
9.724874018E0,-2.546860695E0,-7.709674358E0,1.343569875E0
9.774874018E0,4.651049078E-1,-8.339285851E0,-2.826820850E0
9.824874018E0,3.761816263E0,-1.283061409E1,2.667698145E0
9.874874018E0,4.769493580E0,-1.459502125E1,2.310868502E0
9.924874018E0,5.584250093E-1,-1.406830120E1,4.077668667E0
9.974874018E0,-1.190429255E-1,-1.449452305E1,2.205584288E0
1.002487402E1,-1.811665893E0,-1.707757568E1,-6.959225655E0
1.007487402E1,-3.569194078E0,-1.515045547E1,-2.653042078E-1
1.012487402E1,-4.136592150E-1,-8.348856926E0,-2.527718067E0
1.017487402E1,2.926122904E0,-3.713959932E0,-1.625025630E0
1.022487402E1,2.787339211E0,-1.482652783E0,-2.613859653E0
1.027487402E1,-5.404788256E-1,-5.560321808E-1,-2.948854923E0
1.032487402E1,-2.886641502E0,-6.026622772E0,1.516002655E1
1.037487402E1,-4.402195454E0,-2.591426849E1,1.280907917E1
1.042487402E1,-1.438385487E0,-7.833502889E-1,8.403892517E0
1.047487402E1,-6.602396011E0,-1.574656773E1,-7.457231998E0
1.052487402E1,-1.127019525E0,-7.647460938E0,-3.777369738E0
1.057487402E1,5.092823982E0,-1.254078388E1,-5.603990555E0
1.062487402E1,5.583651543E0,-1.092233849E1,2.255833626E0
1.067487402E1,-2.750250578E0,-6.414260387E0,2.952444077E0
1.072487402E1,-3.763012648E0,-7.618747234E0,2.761018276E0
1.077487402E1,-2.509472668E-1,-9.232108116E0,-3.487539053E0
1.082487402E1,2.703590393E0,-9.627223015E0,-4.486542568E-2
1.087487402E1,5.372784138E0,-1.167428303E1,4.702494621E0
1.092487402E1,-7.271189690E-1,-1.660858154E1,4.439284325E0
1.097487402E1,3.902992725E0,-1.529641819E1,4.269094467E0
1.102487402E1,1.479960799E0,-1.714726639E1,-7.045367241E0
1.107487402E1,-4.943272591E0,-1.677607918E1,1.800599098E-1
1.112487402E1,-2.257030010E0,-9.943374634E0,-1.076770186E0
1.117487402E1,8.913264424E-2,-5.011467934E0,-2.197209358E0
1.122487402E1,5.643472195E0,-2.883052111E0,-3.011367321E0
1.127487402E1,3.909274042E-1,-6.804589629E-1,-2.927319288E0
1.132487402E1,-1.378564954E0,-1.010967612E0,1.808076620E0
1.137487402E1,-1.339442253E1,-2.944787025E1,1.281386471E1
1.142487402E1,-1.275374413E0,-4.142275333E0,4.838885784E0
1.147487402E1,-5.508277893E0,-1.671865273E1,-3.375076294E0
1.152487402E1,-2.800499916E0,-5.542973518E0,-5.062913418E0
1.157487402E1,4.654638290E0,-1.077398300E1,-7.600800991E0
1.162487402E1,4.721637249E0,-1.445623779E1,3.048156977E0
1.167487402E1,1.750648856E0,-5.928517342E0,2.847159863E0
1.172487402E1,-2.506182671E0,-7.594819069E0,2.653042078E0
1.177487402E1,-1.950748682E0,-8.027919769E0,-2.788535595E0
1.182487402E1,1.149751306E0,-8.063812256E0,1.073180914E0
1.187487402E1,6.483652115E0,-1.200209904E1,4.309772491E0
1.192487402E1,2.353939295E0,-1.600768471E1,1.400997639E0
1.197487402E1,4.507479668E-1,-1.521745491E1,5.523830891E0
1.202487402E1,-1.517348647E0,-1.657268906E1,-5.932106495E0
1.207487402E1,-4.490729809E0,-1.670429420E1,-2.395813704E0
1.212487402E1,-3.111865759E0,-1.284975624E1,-1.215553880E0
1.217487402E1,1.256231871E-2,-6.225227356E0,-2.755036116E0
1.222487402E1,4.946861744E0,-3.668496132E0,-3.087937593E0
1.227487402E1,1.472782373E0,-9.391828626E-2,-2.173281193E0
1.232487402E1,-1.299302697E0,-9.678967595E-1,-1.785344839E0
1.237487402E1,-4.066901207E0,-9.390333176E0,1.710150337E1
1.242487402E1,-2.788535595E0,-2.030489540E1,1.231346512E1
1.247487402E1,-6.707680225E0,-7.185347080E0,9.031110764E0
1.252487402E1,-1.648953915E0,-8.315358162E0,-1.440479279E1
1.257487402E1,-2.470290184E0,-9.706186295E0,-1.660917997E0
1.262487402E1,2.593221426E0,-1.401326656E1,-1.840678811E0
1.267487402E1,6.526722908E0,-1.109970570E1,1.183250785E0
1.272487402E1,-3.801597059E-1,-5.928517342E0,1.676471353E0
1.277487402E1,-3.198007345E0,-7.348059177E0,8.575277925E-1
1.282487402E1,-2.879462957E0,-9.179466248E0,-7.944171429E-1
1.287487402E1,4.365106583E0,-8.497212410E0,3.212364316E-1
1.292487402E1,4.858027935E0,-1.153789139E1,3.230310678E0
1.297487402E1,3.172583818E0,-1.500688648E1,1.202393413E0
1.302487402E1,-3.131606579E-1,-1.243310642E1,3.182155132E0
1.307487402E1,-3.119044304E0,-1.493031597E1,1.345962763E0
1.312487402E1,-3.583550930E0,-1.707996750E1,-4.682454586E0
1.317487402E1,-2.936890602E0,-1.498774338E1,-1.225125194E0
1.322487402E1,2.542374134E-1,-7.206882477E0,-1.574776411E0
1.327487402E1,3.907778502E0,-4.286143780E0,-2.156531334E0
1.332487402E1,1.051645517E0,-1.006181955E0,-1.711167336E0
1.337487402E1,-4.663013220E-1,-1.504188180E0,-2.664108992E0
1.342487402E1,-1.993819475E0,-5.858826160E0,7.510771275E0
1.347487402E1,-4.462016106E0,-2.809771919E1,1.359422398E1
1.352487402E1,-3.801297903E0,-3.579662561E0,5.135894775E0
1.357487402E1,-2.778964281E0,-1.544028664E1,-1.005464077E1
1.362487402E1,-4.105186462E0,-6.067300797E0,-3.300898790E0
1.367487402E1,3.577269793E0,-1.123131084E1,-7.260721207E0
1.372487402E1,5.569294930E0,-1.368754387E1,2.056930065E0
1.377487402E1,1.266999602E0,-6.562914371E0,2.068894386E0
1.382487402E1,-3.008974552E0,-7.166204929E0,3.285345554E0
1.387487402E1,-8.279166222E-1,-8.647959709E0,-1.290030479E0
1.392487402E1,1.061216831E0,-8.995218277E0,-1.074377418E0
1.397487402E1,3.764209032E0,-1.152832031E1,4.707280159E0
1.402487402E1,3.043371201E0,-1.468355656E1,1.827219248E0
1.407487402E1,4.324428558E0,-1.457109356E1,3.675375462E0
1.412487402E1,-2.494218588E0,-1.448016644E1,3.455235958E0
1.417487402E1,-2.936890602E0,-1.634028625E1,-6.387042046E0
1.422487402E1,-2.822035313E0,-1.467877007E1,-4.519443810E-1
1.427487402E1,-1.022931710E-1,-8.116454124E0,-2.762214661E0
1.432487402E1,2.672483683E0,-4.264608383E0,-2.467897415E0
1.437487402E1,2.198405743E0,-2.363510609E0,-1.737488389E0
1.442487402E1,-1.237089276E0,-9.320043921E-1,-2.388635159E0
1.447487402E1,-1.040877819E0,-3.730709553E0,8.791529655E0
1.452487402E1,-6.111567974E0,-2.660848618E1,1.347697544E1
1.457487402E1,-2.920140982E0,-4.637888432E0,5.952146530E0
1.462487402E1,-5.797809124E0,-1.718794441E1,-8.584849358E0
1.467487402E1,-2.623430967E0,-5.370690346E0,-1.622632861E0
1.472487402E1,3.139084101E0,-1.280189991E1,-4.160520554E0
1.477487402E1,7.491628647E0,-1.245942783E1,9.364909530E-1
1.482487402E1,5.009972453E-1,-6.007480145E0,3.263810158E0
1.487487402E1,-2.426920414E0,-8.075776100E0,1.786541224E0
1.492487402E1,-1.859522343E0,-8.537890434E0,-1.447956800E0
1.497487402E1,9.005986452E-1,-8.157431602E0,1.200000525E0
1.502487402E1,6.524330139E0,-1.126241779E1,3.605983734E0
1.507487402E1,2.511865616E0,-1.568435383E1,1.290927768E0
1.512487402E1,9.655039310E-1,-1.480080414E1,4.922933578E0
1.517487402E1,-1.608275890E0,-1.417837143E1,-1.335494161E0
1.522487402E1,-4.404588223E0,-1.621825218E1,-3.691227913E0
1.527487402E1,-2.932105064E0,-1.238046455E1,-1.244267821E0
1.532487402E1,-8.135597110E-1,-7.161418915E0,-2.833999395E0
1.537487402E1,4.013062477E0,-3.874279022E0,-2.463111877E0
1.542487402E1,1.379462242E0,-1.741077542E0,-1.565205097E0
1.547487402E1,-4.486542568E-2,-1.748256087E0,-1.922034740E0
1.552487402E1,-3.741477251E0,-8.585746765E0,1.230389404E1
1.557487402E1,-2.700898647E-1,-1.841366768E1,1.169103241E1
1.562487402E1,-3.853940010E0,-7.123134136E0,5.724828243E0
1.567487402E1,-4.572085857E0,-1.141795158E1,-7.720442295E0
1.572487402E1,-1.170090318E0,-8.118846893E0,-3.238685369E0
1.577487402E1,3.553341627E0,-1.455195045E1,-1.730309844E0
1.582487402E1,5.856433392E0,-1.090558815E1,8.718847632E-1
1.587487402E1,-1.814058661E0,-6.759125710E0,3.158226728E0
1.592487402E1,-2.395813704E0,-8.116454124E0,2.193620205E0
1.597487402E1,-1.253839016E0,-7.877171993E0,-4.519443989E0
1.602487402E1,2.521436930E0,-8.183753014E0,1.724327803E0
1.607487402E1,6.900302410E0,-1.238764286E1,2.399402857E0
1.612487402E1,1.219143152E0,-1.467877007E1,1.537687659E0
1.617487402E1,-7.055835724E-1,-1.413530064E1,4.226023674E0
1.622487402E1,-9.451649189E-1,-1.666840172E1,-6.379863262E0
1.627487402E1,-4.344767570E0,-1.662772369E1,7.716853172E-2
1.632487402E1,-2.127817631E0,-1.303639698E1,-1.043270707E0
1.637487402E1,-3.945166469E-1,-6.498308182E0,-1.598704576E0
1.642487402E1,3.728017569E0,-3.694817305E0,-3.066402197E0
1.647487402E1,5.799604058E-1,-7.929216027E-1,-2.197209358E0
1.652487402E1,-5.596213937E-1,-1.393819213E0,-7.848458290E-1
1.657487402E1,-7.519444942E0,-1.325205040E1,1.671625900E1
1.662487402E1,8.958129883E-1,-1.358943844E1,1.040758228E1
1.667487402E1,-3.401397467E0,-7.326523781E0,8.370392799E0
1.672487402E1,-4.471587181E0,-1.293111229E1,-8.132307053E0
1.677487402E1,-2.120639086E0,-5.940481186E0,-2.206780672E0
1.682487402E1,2.916551590E0,-1.290479183E1,-3.265006542E0
1.687487402E1,6.809374809E0,-1.135573769E1,1.669292927E0
1.692487402E1,-8.350951076E-1,-5.964409351E0,2.887837887E0
1.697487402E1,-3.013760090E0,-8.437391281E0,2.016252279E0
1.702487402E1,-7.992027402E-1,-8.312965393E0,-4.131806374E0
1.707487402E1,1.030110121E0,-1.032144070E1,1.338784218E0
1.712487402E1,5.614758492E0,-1.209093285E1,5.147858620E0
1.717487402E1,1.051645517E0,-1.506909943E1,2.686840773E0
1.722487402E1,3.507878065E0,-1.473141289E1,4.108775616E0
1.727487402E1,-9.762716293E-1,-1.715683746E1,-7.954938889E0
1.732487402E1,-4.711168766E0,-1.628046608E1,1.726720691E0
1.737487402E1,-1.392921925E0,-1.075723362E1,-1.881356835E0
1.742487402E1,9.053842425E-1,-5.885147095E0,-1.826022744E0
1.747487402E1,4.276273251E0,-3.096312523E0,-2.388635159E0
1.752487402E1,4.606183618E-2,-4.124628007E-1,-2.283350945E0
1.757487402E1,-7.896314859E-1,-6.661019921E-1,-1.214357466E-1
1.762487402E1,-1.087837029E1,-2.100629044E1,1.664896011E1
1.767487402E1,-9.188438654E-1,-8.822935104E0,8.303393364E0
1.772487402E1,-2.893819809E0,-1.527727509E1,5.648257732E0
1.777487402E1,-4.373481750E0,-4.408177376E0,-1.010488987E1
1.782487402E1,1.786541224E0,-9.734899521E0,-9.870393753E0
1.787487402E1,4.487140656E0,-1.588295841E1,3.900599957E0
1.792487402E1,5.109573841E0,-7.800601959E0,-2.964109182E-1
1.797487402E1,-2.893819809E0,-6.481558323E0,2.921337366E0
1.802487402E1,-2.347957134E0,-8.708079338E0,1.968096644E-1
1.807487402E1,-6.242275834E-1,-8.360821724E0,-2.266601324E0
1.812487402E1,4.688137531E0,-1.242353535E1,3.208476067E0
1.817487402E1,5.988337994E0,-1.336211967E1,2.114656925E0
1.822487402E1,-5.620142221E-1,-1.594517231E1,5.052145958E0
1.827487402E1,-3.777668774E-1,-1.506192112E1,4.845465720E-2
1.832487402E1,-3.674478292E0,-1.674018669E1,-7.306184769E0
1.837487402E1,-4.466801643E0,-1.512413502E1,-6.888338327E-1
1.842487402E1,-2.222333997E-1,-8.097311974E0,-1.900499344E0
1.847487402E1,3.558127165E0,-4.341178417E0,-1.967498422E0
1.852487402E1,2.744268417E0,-2.475973129E0,-1.845464468E0
1.857487402E1,-1.526919961E0,-6.254240274E-1,-2.257030010E0
1.862487402E1,-2.199602127E0,-3.605983734E0,1.137966633E1
1.867487402E1,-7.416254520E0,-2.842583656E1,1.326371479E1
1.872487402E1,-4.411766529E0,-5.135894775E0,1.007258701E1
1.877487402E1,-5.730810165E0,-1.368515110E1,-1.424925900E1
1.882487402E1,-4.004687786E0,-6.275476456E0,1.374676585E0
1.887487402E1,5.059324265E0,-1.335494137E1,-4.857131004E0
1.892487402E1,8.183453560E0,-1.114756203E1,1.896611094E0
1.897487402E1,3.020938635E-1,-5.846862316E0,2.052144527E0
1.902487402E1,-3.109472990E0,-7.580461979E0,1.408176184E0
1.907487402E1,-2.235494614E0,-8.241180420E0,-2.465504646E0
1.912487402E1,1.204786181E0,-9.967302322E0,1.324427366E0
1.917487402E1,6.567699909E0,-1.148255730E1,3.720839262E0
1.922487402E1,1.705185294E0,-1.514806271E1,2.607578516E0
1.927487402E1,2.768196583E0,-1.656551170E1,2.820838690E0
1.932487402E1,-3.064009428E0,-1.774577141E1,-8.517551422E0
1.937487402E1,-5.321637630E0,-1.684307861E1,2.648256540E0
1.942487402E1,-2.668894529E0,-1.022572803E1,-1.201196909E0
1.947487402E1,1.829612017E0,-4.985146999E0,-9.427721500E-1
1.952487402E1,4.063312054E0,-2.646162748E0,-3.480360508E0
1.957487402E1,5.368895531E-1,-3.287140131E-1,-2.175673962E0
1.962487402E1,-1.424028635E0,-1.975873351E0,-2.333002165E-2
1.967487402E1,-1.533111382E1,-2.389622307E1,1.566042614E1
1.972487402E1,7.238288224E-2,-8.487641335E0,7.431807995E0
1.977487402E1,-3.999902248E0,-1.392473221E1,5.097609520E0
1.982487402E1,-4.191627026E0,-5.449653625E0,-9.626026154E0
1.987487402E1,1.506580949E0,-1.030947590E1,-9.358030319E0
1.992487402E1,4.640281200E0,-1.621346664E1,2.499901533E0
1.997487402E1,4.436891556E0,-6.771090031E0,1.223928809E0
2.002487402E1,-1.905285001E0,-7.161418915E0,2.557329178E0
2.007487402E1,-2.458326101E0,-8.681459427E0,9.101698995E-1
2.012487402E1,-7.247261405E-1,-7.486843109E0,-1.364207983E0
2.017487402E1,4.899005413E0,-1.275643635E1,2.509472847E0
2.022487402E1,5.490331650E0,-1.326879978E1,2.413759947E0
2.027487402E1,5.802594870E-2,-1.434856129E1,6.557829380E0
2.032487402E1,6.541379094E-1,-1.604118347E1,2.179263115E0
2.037487402E1,-3.171686411E0,-1.800419617E1,-7.399505138E0
2.042487402E1,-3.025724173E0,-1.637139320E1,-3.586242795E-1
2.047487402E1,3.649054468E-2,-8.186145782E0,-2.680858612E0
2.052487402E1,3.546163082E0,-4.048954964E0,-1.675274968E0
2.057487402E1,3.143869877E0,-9.415757060E-1,-2.649751902E0
2.062487402E1,-3.323032558E-1,-8.913264424E-2,-3.126222849E0
2.067487402E1,-1.696810365E0,-4.350749969E0,9.588937759E0
2.072487402E1,-7.770691395E0,-2.972573662E1,1.106351471E1
2.077487402E1,-6.011069775E0,-4.920540810E0,6.158228397E0
2.082487402E1,-3.863511324E0,-1.302921867E1,-1.466082478E1
2.087487402E1,-3.387040377E0,-5.047360420E0,1.734796353E-2
2.092487402E1,4.257130623E0,-1.315364552E1,-4.155734539E0
2.097487402E1,7.659126282E0,-1.214836025E1,1.379462242E0
2.102487402E1,3.619144261E-1,-6.158228397E0,2.186441660E0
2.107487402E1,-2.405385017E0,-7.771887779E0,1.712363720E0
2.112487402E1,-2.376671076E0,-8.365607262E0,-1.629811287E0
2.117487402E1,3.571287692E-1,-8.003992081E0,1.511067510E0
2.122487402E1,6.603592396E0,-1.212921810E1,4.566103935E0
2.127487402E1,2.696412086E0,-1.545942879E1,1.087537885E0
2.132487402E1,1.300499082E0,-1.432223988E1,3.742374659E0
2.137487402E1,-2.845963478E0,-1.662054634E1,-5.767001629E0
2.142487402E1,-5.070092201E0,-1.689811325E1,4.818546474E-1
2.147487402E1,-2.070389748E0,-1.185853004E1,-5.333003402E-1
2.152487402E1,3.379862010E-1,-6.124728680E0,-1.821237087E0
2.157487402E1,4.523033142E0,-2.638984203E0,-3.131008387E0
2.162487402E1,9.173483849E-1,-4.698905349E-1,-2.060818434E0
2.167487402E1,-1.122233868E0,-1.631007791E0,-1.826022744E0
2.172487402E1,-1.065314579E1,-1.798983955E1,2.013500404E1
2.177487402E1,7.642077208E-1,-9.677472115E0,9.981659889E0
2.182487402E1,-2.570788860E0,-8.308178902E0,3.086441994E0
2.187487402E1,-5.240281582E0,-1.197577858E1,-7.342077255E0
2.192487402E1,8.694919348E-1,-7.000801086E0,-7.251150131E0
2.197487402E1,4.310071945E0,-1.515763378E1,3.547359705E-1
2.202487402E1,5.763113499E0,-8.600103378E0,4.339981973E-1
2.207487402E1,-3.162115097E0,-6.409474373E0,4.060919285E0
2.212487402E1,-2.673680305E0,-8.906683922E0,6.637091637E-1
2.217487402E1,-9.750752151E-2,-8.068597794E0,-2.175673962E0
2.222487402E1,5.073681355E0,-1.051077271E1,3.419343472E0
2.227487402E1,4.254737854E0,-1.293350506E1,2.464009047E0
2.232487402E1,4.818546474E-1,-1.544028664E1,5.056931496E0
2.237487402E1,1.355534077E0,-1.625414467E1,1.968395710E0
2.242487402E1,-3.162115097E0,-1.708236122E1,-7.193722248E0
2.247487402E1,-4.787738800E0,-1.628046608E1,-1.131805062E0
2.252487402E1,-6.002993584E-1,-7.920242786E0,-2.132603168E0
2.257487402E1,4.096811295E0,-4.604389191E0,-2.130210400E0
2.262487402E1,1.800898194E0,-1.623829246E0,-2.067996979E0
2.267487402E1,-6.098706722E-1,-3.888336942E-2,-2.585145712E0
2.272487402E1,-7.486543655E-1,-4.326821327E0,9.239286423E0
2.277487402E1,-5.273781300E0,-3.026920700E1,1.415683651E1
2.282487402E1,-5.046164036E0,-4.530211449E0,5.451747417E0
2.287487402E1,-7.184150696E0,-1.404915905E1,-9.128020287E0
2.292487402E1,-2.924926519E0,-6.756732941E0,-1.641775489E0
2.297487402E1,4.518247128E0,-1.631635857E1,-8.685946465E-1
2.302487402E1,7.089335442E0,-1.015872860E1,1.542473316E0
2.307487402E1,-1.847558141E0,-6.105586052E0,2.691626310E0
2.312487402E1,-4.016652107E0,-7.853243828E0,2.672483683E0
2.317487402E1,-1.833201289E0,-8.580961227E0,-3.164507866E0
2.322487402E1,3.072085142E0,-9.478867531E0,1.281356573E0
2.327487402E1,7.381558895E0,-1.119781208E1,2.954836845E0
2.332487402E1,-1.716850251E-1,-1.541605854E1,2.054537296E0
2.337487402E1,2.751446962E0,-1.470748425E1,2.133799553E0
2.342487402E1,-3.253042459E0,-1.618953896E1,-6.925725937E0
2.347487402E1,-5.268995285E0,-1.657986832E1,1.733899117E0
2.352487402E1,-1.074377418E0,-1.075723362E1,-7.944171429E-1
2.357487402E1,1.453639746E0,-5.727221012E0,-1.143769264E0
2.362487402E1,3.800101519E0,-2.813660383E0,-2.611466885E0
2.367487402E1,4.196412563E-1,-1.216750264E0,-2.036890268E0
2.372487402E1,-4.256233275E-1,-1.604686737E0,-3.442673683E-1
2.377487402E1,-1.016231823E1,-1.788455391E1,1.835115433E1
2.382487402E1,2.213360928E-2,-9.917053223E0,7.680661678E0
2.387487402E1,-2.312064886E0,-1.352243900E1,2.059323072E0
2.392487402E1,-4.768596649E0,-5.904589176E0,-9.341280937E0
2.397487402E1,2.294118643E0,-1.029511929E1,-1.003071213E1
2.402487402E1,4.975575447E0,-1.534906006E1,3.223132133E0
2.407487402E1,4.412963390E0,-7.515556812E0,3.020938635E-1
2.412487402E1,-2.977568626E0,-6.644270420E0,2.420938253E0
2.417487402E1,-3.049652576E0,-8.595317841E0,5.177469850E-1
2.422487402E1,4.148556292E-1,-7.814958572E0,-3.308077335E0
2.427487402E1,3.984348774E0,-1.080987549E1,2.665305376E0
2.432487402E1,5.109573841E0,-1.364925861E1,4.070490360E0
2.437487402E1,2.277369022E0,-1.558624840E1,5.909075737E0
2.442487402E1,5.536393523E-1,-1.644556999E1,2.868695259E0
2.447487402E1,-3.564408541E0,-1.681197166E1,-5.668596745E0
2.452487402E1,-1.998605132E0,-1.657747459E1,-5.667998791E-1
2.457487402E1,6.086742878E-1,-8.193324089E0,-3.209971666E0
2.462487402E1,2.890230656E0,-4.400999069E0,-1.711167336E0
2.467487402E1,2.542972326E0,-1.336391449E0,-2.532503605E0
2.472487402E1,-2.988037169E-1,4.064807594E-1,-2.106282234E0
2.477487402E1,-2.008176327E0,-5.497509956E0,7.369594574E0
2.482487402E1,-4.818845749E0,-2.962763023E1,1.364447308E1
2.487487402E1,-2.482254505E0,-3.311666489E0,5.100002289E0
2.492487402E1,-4.272983074E0,-1.544028664E1,-1.193659592E1
2.497487402E1,-5.022235394E0,-4.084847450E0,-1.974676847E0
2.502487402E1,3.649054527E0,-1.178913784E1,-5.761917114E0
2.507487402E1,8.439785004E0,-1.278993607E1,9.077770710E-1
2.512487402E1,5.847460628E-1,-5.947659969E0,3.598805189E0
2.517487402E1,-2.762214661E0,-8.030312538E0,1.477568030E0
2.522487402E1,-1.299302697E0,-8.430212975E0,-3.360719442E0
2.527487402E1,1.669292927E0,-8.265108109E0,1.458425403E0
2.532487402E1,6.277869225E0,-1.240199947E1,4.657031059E0
2.537487402E1,1.025324464E0,-1.511217022E1,2.229512453E0
2.542487402E1,2.351546526E0,-1.418076420E1,5.614758492E0
2.547487402E1,-4.663013220E-1,-1.654607010E1,-8.247162819E0
2.552487402E1,-4.170091629E0,-1.770748520E1,1.652543187E0
2.557487402E1,-2.180459738E0,-1.267508030E1,-2.197209358E0
2.562487402E1,3.649054468E-2,-5.542973518E0,-1.531705618E0
2.567487402E1,4.927719116E0,-3.089133978E0,-2.700001240E0
2.572487402E1,-4.950151742E-1,2.075773627E-1,-2.063211441E0
2.577487402E1,-1.067198873E0,-9.320043921E-1,-9.020941257E-1
2.582487402E1,-1.035165024E1,-2.391536522E1,1.555962849E1
2.587487402E1,3.092723191E-1,-7.738388538E0,9.217751503E0
2.592487402E1,-1.701596022E0,-9.804291725E0,2.552543640E0
2.597487402E1,-4.232305050E0,-1.149930763E1,-3.193221807E0
2.602487402E1,-2.726322412E0,-6.476772785E0,-3.166900873E0
2.607487402E1,4.310071945E0,-1.338844109E1,-1.483849168E0
2.612487402E1,7.230811119E0,-1.061844921E1,6.493522525E-1
2.617487402E1,-1.601097465E0,-6.148656845E0,2.839981318E0
2.622487402E1,-1.840379715E0,-8.952147484E0,-5.380859971E-1
2.627487402E1,-3.050848842E-2,-7.113562584E0,-2.347957134E0
2.632487402E1,3.237488985E0,-1.063519955E1,2.684448004E0
2.637487402E1,5.274678230E0,-1.300050449E1,2.806481838E0
2.642487402E1,-5.596213937E-1,-1.488485241E1,7.266703129E0
2.647487402E1,1.367498159E0,-1.705125427E1,4.118346691E0
2.652487402E1,-4.351946115E-1,-1.647907066E1,-7.615158081E0
2.657487402E1,-2.850749016E0,-1.723819351E1,8.359923959E-1
2.662487402E1,-1.409671664E0,-8.868398666E0,-1.718345761E0
2.667487402E1,2.727518797E0,-4.427320004E0,-7.322037220E-1
2.672487402E1,3.577269793E0,-2.437688112E0,-1.627418518E0
2.677487402E1,-4.710869491E-1,5.213362575E-1,-2.807678223E0
2.682487402E1,-6.266204119E-1,-2.801696301E0,5.200500965E0
2.687487402E1,-9.092127800E0,-3.309901810E1,1.411855125E1
2.692487402E1,-3.533002615E0,-1.578365684E0,3.381058455E0
2.697487402E1,-3.983152390E0,-1.829163361E1,-5.822036743E0
2.702487402E1,-4.634299278E0,-6.072086334E0,-2.841177702E0
2.707487402E1,4.209274292E0,-1.000798035E1,-7.751548767E0
2.712487402E1,5.669793129E0,-1.414726448E1,1.683649778E0
2.717487402E1,2.423331022E0,-7.103991508E0,1.398604870E0
2.722487402E1,-3.549752474E0,-7.017849922E0,2.193620205E0
2.727487402E1,-1.620239973E0,-9.215357780E0,6.493522525E-1
2.732487402E1,7.019943595E-1,-7.051349163E0,-2.795714140E0
2.737487402E1,3.934099436E0,-1.137966633E1,3.170190811E0
2.742487402E1,3.491128206E0,-1.402762318E1,2.425724030E0
2.747487402E1,-4.854438901E-1,-1.326401424E1,6.658627033E0
2.752487402E1,-1.860419661E-1,-1.639532089E1,2.408974171E0
2.757487402E1,-1.629811287E0,-1.787976837E1,-5.651846886E0
2.762487402E1,-8.733802438E-1,-1.556471348E1,-4.232304990E-1
2.767487402E1,-8.614161611E-1,-8.183753014E0,-2.513360977E0
2.772487402E1,2.713161707E0,-4.460819721E0,-2.168495417E0
2.777487402E1,1.506580949E0,-1.161715388E0,-2.106282234E0
2.782487402E1,-1.148554921E0,-2.614158690E-1,-2.292922258E0
2.787487402E1,-1.960319996E0,-4.958825588E0,9.553045273E0
2.792487402E1,-4.517050743E0,-2.823650360E1,1.290000629E1
2.797487402E1,-2.118246317E0,1.501496136E-1,4.927719116E0
2.802487402E1,-3.727120399E0,-1.944078636E1,-7.744370461E0
2.807487402E1,-5.223232746E0,-4.465605259E0,-2.700001240E0
2.812487402E1,3.677768469E0,-8.899505615E0,-8.256733894E0
2.817487402E1,6.335297108E0,-1.583749485E1,2.119442701E0
2.822487402E1,1.228714466E0,-6.007480145E0,2.377867460E0
2.827487402E1,-2.494218588E0,-7.278667450E0,1.714756489E0
2.832487402E1,-1.953141451E0,-8.578568459E0,-1.739881158E0
2.837487402E1,7.378866673E-1,-7.585247993E0,-1.182054400E0
2.842487402E1,3.958027840E0,-1.291675568E1,5.698507309E0
2.847487402E1,3.170190811E0,-1.359422398E1,8.599206209E-1
2.852487402E1,1.176072359E0,-1.462134266E1,5.521438122E0
2.857487402E1,-1.584347725E0,-1.667797470E1,-2.206780672E0
2.862487402E1,-4.545764923E0,-1.714248085E1,-3.097508907E0
2.867487402E1,-2.398206472E0,-1.351526070E1,-7.513462901E-1
2.872487402E1,-5.069792867E-1,-6.708876610E0,-2.197209358E0
2.877487402E1,4.017848492E0,-3.302095175E0,-3.061616659E0
2.882487402E1,1.015753269E0,-1.113858938E0,-1.902892232E0
2.887487402E1,-8.781659007E-1,-1.410868049E0,-1.933998942E0
2.892487402E1,-5.036592484E0,-1.003190899E1,1.527727509E1
2.897487402E1,-3.059822023E-1,-1.484148216E1,1.167667580E1
2.902487402E1,-3.140579700E0,-4.044169426E0,6.275476456E0
2.907487402E1,-5.257031441E0,-1.549532127E1,-6.137889385E0
2.912487402E1,-2.719143867E0,-7.925028801E0,-2.410469770E0
2.917487402E1,4.671388149E0,-1.072612667E1,-3.186043262E0
2.922487402E1,6.749554634E0,-1.254078388E1,1.039681435E0
2.927487402E1,-1.993819475E0,-6.012266159E0,1.520638824E0
2.932487402E1,-2.956033230E0,-7.309773922E0,3.354737282E0
2.937487402E1,-9.188438654E-1,-8.741579056E0,-5.103591442E0
2.942487402E1,2.444866419E0,-9.900303841E0,2.174477577E0
2.947487402E1,5.499902725E0,-1.092233849E1,2.820838690E0
2.952487402E1,2.830410004E0,-1.686940002E1,3.247060299E0
2.957487402E1,2.674876690E0,-1.657508278E1,2.361117840E0
2.962487402E1,-3.760619879E0,-1.622543144E1,-7.100401878E0
2.967487402E1,-6.128317833E0,-1.638574982E1,3.428914785E0
2.972487402E1,1.106680483E-1,-9.871589661E0,-1.859821439E0
2.977487402E1,2.071586132E0,-5.715256691E0,-2.605185509E-1
2.982487402E1,4.700101852E0,-3.093919754E0,-1.756630898E0
2.987487402E1,-8.566305041E-1,-1.393819153E-1,-2.000998020E0
2.992487402E1,-4.854438901E-1,-7.594220638E-1,7.594220638E-1
2.997487402E1,-8.259126663E0,-1.977099609E1,2.042214394E1
3.002487402E1,-1.380957723E0,-7.628318787E0,7.254739285E0
3.007487402E1,-3.274577856E0,-1.553360653E1,-1.107876897E0
3.012487402E1,-4.768596649E0,-4.357928276E0,-7.612765312E0
3.017487402E1,5.140680313E0,-1.136291695E1,-9.398708344E0
3.022487402E1,6.385546207E0,-1.377398491E1,3.259024382E0
3.027487402E1,1.927717686E0,-7.025028229E0,1.654935956E0
3.032487402E1,-3.468396425E0,-7.027420998E0,1.188036442E0
3.037487402E1,-2.383849621E0,-8.121239662E0,2.901297510E-1
3.042487402E1,-3.418745399E-1,-8.214859009E0,-2.151745796E0
3.047487402E1,3.993920088E0,-1.299571896E1,5.205286503E0
3.052487402E1,6.452545166E0,-1.398933887E1,2.341975212E0
3.057487402E1,5.703890920E-1,-1.457109356E1,5.526223660E0
3.062487402E1,-2.860320330E0,-1.606989861E1,-5.180161953E0
3.067487402E1,-3.648157120E0,-1.695554161E1,-3.427718401E0
3.072487402E1,-3.212364435E0,-1.478166199E1,-2.475075960E0
3.077487402E1,-1.788634956E-1,-7.103991508E0,-1.304387450E0
3.082487402E1,3.443271875E0,-3.199203968E0,-2.762214661E0
3.087487402E1,1.202393413E0,-2.494517565E-1,-2.503789902E0
3.092487402E1,-8.638089895E-1,-8.359923959E-1,-1.593919039E0
3.097487402E1,-6.267101765E0,-1.148973656E1,1.678086472E1
3.102487402E1,9.702895880E-1,-1.369711494E1,9.984052658E0
3.107487402E1,-1.553241014E0,-1.123430252E0,6.249155521E0
3.112487402E1,-5.201697350E0,-1.991695786E1,-8.663812637E0
3.117487402E1,-2.309672117E0,-5.727221012E0,-2.254637241E0
3.122487402E1,3.653840065E0,-1.011565781E1,-4.658526421E0
3.127487402E1,6.582056999E0,-1.407548046E1,8.383852243E-1
3.132487402E1,-1.268195987E0,-6.845267296E0,2.674876690E0
3.137487402E1,-3.047259569E0,-7.807780266E0,1.477568030E0
3.142487402E1,-7.199404836E-1,-8.236394882E0,-4.718347073E0
3.147487402E1,1.400997639E0,-9.131608963E0,2.895016193E0
3.152487402E1,6.957729816E0,-1.253121185E1,4.702494621E0
3.157487402E1,1.504188180E0,-1.715923119E1,3.972384691E0
3.162487402E1,2.947658300E0,-1.750140381E1,2.452044964E0
3.167487402E1,-2.762214661E0,-1.713769531E1,-8.280661583E0
3.172487402E1,-4.208376884E0,-1.706800461E1,2.251047850E0
3.177487402E1,-9.032905847E-2,-8.540283203E0,-1.893320918E0
3.182487402E1,2.016252279E0,-4.070490360E0,-9.379864931E-1
3.187487402E1,4.714458942E0,-2.066800594E0,-1.787737608E0
3.192487402E1,-4.088735580E-1,-3.789632916E-1,-2.415255308E0
3.197487402E1,-7.752745152E-1,-2.859123945E0,4.889134884E0
3.202487402E1,-1.209212875E1,-2.979991341E1,1.187049389E1
3.207487402E1,-3.123830080E0,-3.733102322E0,5.150251865E0
3.212487402E1,-4.816452980E0,-2.007757568E1,-6.202495575E0
3.217487402E1,-4.019044876E0,-3.804887056E0,-6.054140568E0
3.222487402E1,3.326023579E0,-1.029511929E1,-7.246364117E0
3.227487402E1,8.234002113E0,-1.478405476E1,1.676471353E0
3.232487402E1,1.451246977E0,-5.478367329E0,2.801696301E0
3.237487402E1,-4.100400925E0,-7.304988384E0,1.934896231E0
3.242487402E1,-1.495813251E0,-8.183753014E0,-8.733802438E-1
3.247487402E1,9.221340418E-1,-8.322536469E0,-1.735095501E0
3.252487402E1,5.715256691E0,-1.387926865E1,5.933003902E0
3.257487402E1,3.451646566E-1,-1.563649750E1,1.930110574E0
3.262487402E1,1.520937920E0,-1.320419312E1,3.687339783E0
3.267487402E1,-4.974080026E-1,-1.601486206E1,-4.217947960E0
3.272487402E1,-4.507479668E0,-1.649821281E1,-4.184448719E-1
3.277487402E1,-2.989532709E0,-1.262961674E1,-8.422735929E-1
3.282487402E1,-1.094716340E-1,-6.529414654E0,-1.898106575E0
3.287487402E1,4.130311012E0,-2.655734062E0,-3.327219963E0
3.292487402E1,5.416752100E-1,-5.967101455E-1,-1.931606054E0
3.297487402E1,-3.299104273E-1,-3.191427290E-1,-6.984050870E-1
3.302487402E1,-1.028913784E1,-1.903131485E1,2.071915245E1
3.307487402E1,1.089930773E0,-1.151396370E1,9.919147491E0
3.312487402E1,-3.157329559E0,-1.029033375E1,1.068395257E0
3.317487402E1,-4.225126743E0,-7.539484978E0,-8.766703606E0
3.322487402E1,3.717848063E-1,-9.694221497E0,-7.607979774E0
3.327487402E1,5.375176907E0,-1.419751358E1,1.046859860E0
3.332487402E1,3.292523861E0,-8.444570541E0,1.427318692E0
3.337487402E1,-3.875475407E0,-6.567699909E0,3.440878868E0
3.342487402E1,-1.663310885E0,-8.267500877E0,1.877468467E0
3.347487402E1,7.450651526E-1,-7.960920811E0,-3.614657640E0
3.352487402E1,3.098406315E0,-1.141077328E1,2.210369825E0
3.357487402E1,5.873183250E0,-1.274686527E1,4.793421745E0
3.362487402E1,-1.129412293E0,-1.558864117E1,6.509973049E0
3.367487402E1,1.767398596E0,-1.489203072E1,1.173679471E0
3.372487402E1,-3.116651535E0,-1.832513237E1,-6.985546589E0
3.377487402E1,-2.491825581E0,-1.608904076E1,-1.031306505E0
3.382487402E1,-2.030908167E-1,-8.293822289E0,-2.393420935E0
3.387487402E1,2.887837887E0,-4.300500393E0,-1.402493119E0
3.392487402E1,3.151048422E0,-8.434699774E-1,-2.534896374E0
3.397487402E1,-1.615155302E-2,1.022931710E-1,-2.917748213E0
3.402487402E1,-1.495813251E0,-4.379463673E0,9.306285858E0
3.407487402E1,-5.300102234E0,-2.585684204E1,1.313689518E1
3.412487402E1,-4.213162422E0,-6.093621731E0,6.411867142E0
3.417487402E1,-3.640978813E0,-8.655138969E0,-1.014556789E1
3.422487402E1,-4.059722900E0,-8.966505051E0,-1.605883121E0
3.427487402E1,4.046562195E0,-1.378594875E1,-1.715952992E0
3.432487402E1,7.750352383E0,-1.003190899E1,1.604686737E0
3.437487402E1,-1.701596022E0,-6.349654198E0,3.910171270E0
3.442487402E1,-2.922533751E0,-8.274680138E0,2.047358990E0
3.447487402E1,-1.392921925E0,-8.614460945E0,-3.760619879E0
3.452487402E1,2.899801970E0,-9.498010635E0,2.722733021E0
3.457487402E1,8.714959145E0,-1.239960670E1,4.247559071E0
3.462487402E1,-8.566305041E-1,-1.510977745E1,7.611269951E0
3.467487402E1,4.196412563E-1,-1.592363644E1,2.296511650E0
3.472487402E1,-9.260223508E-1,-1.848066711E1,-8.251948357E0
3.477487402E1,-2.194816589E0,-1.755643845E1,-3.825525343E-1
3.482487402E1,-1.040877819E0,-9.076574326E0,-2.175673962E0
3.487487402E1,1.702792406E0,-4.111168385E0,-1.502991676E0
3.492487402E1,4.159024715E0,-1.561316848E-1,-2.817249537E0
3.497487402E1,1.752742529E-1,1.371087432E0,-3.272184849E0
3.502487402E1,-2.118246317E0,-4.398606300E0,6.371189594E0
3.507487402E1,-4.971986294E0,-2.639073944E1,1.368275833E1
3.512487402E1,-1.517348647E0,-4.788935184E0,6.148656845E0
3.517487402E1,-5.395814896E0,-1.415683651E1,-1.119182968E1
3.522487402E1,-5.132305622E0,-7.395915508E0,1.135394335E0
3.527487402E1,3.771387577E0,-1.141555882E1,-4.756632328E0
3.532487402E1,9.059824944E0,-1.197338581E1,4.938187599E-1
3.537487402E1,-6.218347549E-1,-6.084050655E0,4.874777794E0
3.542487402E1,-2.915355206E0,-7.817351341E0,1.214357495E0
3.547487402E1,-1.507777333E0,-7.960920811E0,-3.073580742E0
3.552487402E1,3.239881754E0,-1.076919746E1,3.507878065E0
3.557487402E1,7.455736160E0,-1.218664551E1,1.810469389E0
3.562487402E1,-7.414759398E-1,-1.580878067E1,6.797410965E0
3.567487402E1,2.274976015E0,-1.629960823E1,1.571187139E0
3.572487402E1,-2.891427040E0,-1.767129517E1,-7.945367813E0
3.577487402E1,-4.109972000E0,-1.633550072E1,-2.676970363E-1
3.582487402E1,-4.543372095E-1,-8.135597229E0,-2.237887383E0
3.587487402E1,3.270988464E0,-4.508676052E0,-1.936391711E0
3.592487402E1,3.311666489E0,-1.389033556E0,-2.611466885E0
3.597487402E1,-9.511470050E-2,1.214357466E-1,-3.312862873E0
3.602487402E1,-6.888338327E-1,-3.682853222E0,9.617651939E0
3.607487402E1,-9.022735596E0,-3.278525925E1,1.265563869E1
3.612487402E1,-2.606681108E0,3.323032558E-1,5.300999641E0
3.617487402E1,-5.237589836E0,-1.767129517E1,-4.464408875E0
3.622487402E1,-2.781357288E0,-7.580461979E0,-4.945665359E0
3.627487402E1,3.268595695E0,-9.675079346E0,-6.535397053E0
3.632487402E1,5.801398277E0,-1.435095406E1,2.087737769E-1
3.637487402E1,1.508973837E0,-6.225227356E0,2.353939295E0
3.642487402E1,-3.028116941E0,-7.058527470E0,2.107478619E0
3.647487402E1,-1.296909928E0,-8.631210327E0,-5.187340260E0
3.652487402E1,2.210369825E0,-9.244071960E0,1.171286702E0
3.657487402E1,7.343273640E0,-1.279232883E1,4.365106583E0
3.662487402E1,3.170489892E-2,-1.592602921E1,1.290927768E0
3.667487402E1,-4.187439568E-3,-1.560299778E1,4.714458942E0
3.672487402E1,1.073180914E0,-1.609621811E1,-6.092425346E0
3.677487402E1,-3.212364435E0,-1.623978806E1,7.666005492E-1
3.682487402E1,-1.629811287E0,-1.097767162E1,-1.311565876E0
3.687487402E1,-4.423730969E-1,-6.088836193E0,-2.343171597E0
3.692487402E1,4.901398182E0,-3.538984776E0,-3.351148129E0
3.697487402E1,2.590230405E-1,-9.631111473E-2,-2.376671076E0
3.702487402E1,-2.413759828E-1,-3.837489188E-1,7.450651526E-1
3.707487402E1,-1.396899986E1,-2.714956474E1,1.963699722E1
3.712487402E1,4.004986882E-1,-7.017849922E0,6.699305058E0
3.717487402E1,-3.703192234E0,-1.521984768E1,3.495913982E0
3.722487402E1,-5.359922886E0,-5.183751106E0,-8.637491226E0
3.727487402E1,1.159322619E0,-9.407083511E0,-8.809774399E0
3.732487402E1,5.329713345E0,-1.509781361E1,2.593221426E0
3.737487402E1,4.479962349E0,-7.462914944E0,1.791326880E0
3.742487402E1,-3.367897987E0,-6.553342819E0,1.623829246E0
3.747487402E1,-2.633002281E0,-8.444570541E0,1.621436477E0
3.752487402E1,-1.836491376E-1,-8.415856361E0,-3.712763548E0
3.757487402E1,3.369094372E0,-1.121934700E1,3.641875982E0
3.762487402E1,6.292226315E0,-1.261735344E1,3.141477108E0
3.767487402E1,-4.136592150E-1,-1.460220051E1,6.244369984E0
3.772487402E1,8.503493667E-1,-1.610339737E1,2.545365095E0
3.777487402E1,-3.648157120E0,-1.787019730E1,-6.956832886E0
3.782487402E1,-4.313661098E0,-1.578485298E1,-1.378564954E0
3.787487402E1,-5.548357368E-1,-7.688138962E0,-2.149353027E0
3.792487402E1,4.343571186E0,-3.613162279E0,-2.668894529E0
3.797487402E1,1.870290041E0,-1.473081470E0,-1.510170221E0
3.802487402E1,-3.753740489E-1,-3.409772366E-2,-2.101496458E0
3.807487402E1,-2.898605585E0,-7.345666409E0,1.273460197E1
3.812487402E1,-1.172483087E0,-2.008954048E1,1.132941723E1
3.817487402E1,-3.935296059E0,-9.845269203E0,6.244369984E0
3.822487402E1,-5.486742496E0,-7.316952705E0,-9.257532120E0
3.827487402E1,-6.433702111E-1,-9.402297020E0,-7.255935669E0
3.832487402E1,3.792922974E0,-1.462612820E1,1.808076620E0
3.837487402E1,6.136693001E0,-9.184251785E0,1.712363720E0
3.842487402E1,-1.950748682E0,-6.799803734E0,2.291725874E0
3.847487402E1,-2.941676378E0,-7.843672752E0,2.203191519E0
3.852487402E1,-1.191625714E0,-8.358428955E0,-3.949652910E0
3.857487402E1,3.393022537E0,-1.090080261E1,2.411366940E0
3.862487402E1,6.981658459E0,-1.150170040E1,3.689732552E0
3.867487402E1,-6.409773827E-1,-1.571546078E1,5.550152302E0
3.872487402E1,2.737090111E0,-1.623500252E1,2.346760750E0
3.877487402E1,-1.761416554E0,-1.762583160E1,-7.629515171E0
3.882487402E1,-3.681656837E0,-1.668515205E1,-5.443671346E-2
3.887487402E1,-1.205982566E0,-8.485248566E0,-2.304886341E0
3.892487402E1,2.583650351E0,-4.987539768E0,-9.595218897E-1
3.897487402E1,3.958027840E0,-2.124228239E0,-2.127817631E0
3.902487402E1,2.709871531E-1,8.638089895E-1,-3.095116138E0
3.907487402E1,-1.119840980E0,-3.807279825E0,7.936992645E0
3.912487402E1,-5.754738331E0,-3.050370216E1,1.371147156E1
3.917487402E1,-3.629014730E0,-7.127919674E0,5.401497841E0
3.922487402E1,-5.922534943E0,-1.099920750E1,-8.857631683E0
3.927487402E1,-2.542074919E0,-7.795815945E0,-4.924129963E0
3.932487402E1,5.234000206E0,-1.444905949E1,-1.409671664E0
3.937487402E1,6.885945320E0,-9.804291725E0,1.626222134E0
3.942487402E1,-2.228316069E0,-6.460022926E0,2.835195780E0
3.947487402E1,-3.444468260E0,-8.102097511E0,6.924230456E-1
3.952487402E1,-1.268195987E0,-8.305786133E0,-2.745464802E0
3.957487402E1,4.194917202E0,-1.118584728E1,2.356332064E0
3.962487402E1,7.048657417E0,-1.249532032E1,4.341178417E0
3.967487402E1,-1.022931710E-1,-1.529402542E1,6.179763794E0
3.972487402E1,1.853540182E0,-1.503081417E1,1.743470430E0
3.977487402E1,-2.201995134E0,-1.851655960E1,-8.793025017E0
3.982487402E1,-4.177269936E0,-1.732433510E1,1.465603828E0
3.987487402E1,-1.110269666E0,-8.492426872E0,-2.101496458E0
3.992487402E1,3.055335522E0,-4.154239178E0,-1.067198873E0
3.997487402E1,4.690530777E0,-1.348355532E0,-2.924926519E0
4.002487402E1,-7.836493850E-2,8.036893010E-1,-3.236292601E0
4.007487402E1,-1.467099428E0,-4.484747887E0,1.090558815E1
4.012487402E1,-7.737192154E0,-2.896930504E1,1.150648594E1
4.017487402E1,-2.747857809E0,-1.266999602E0,8.176275253E0
4.022487402E1,-5.592026711E0,-1.631635857E1,-9.264710426E0
4.027487402E1,-2.908176899E0,-7.039385319E0,-7.202396393E-1
4.032487402E1,4.118346691E0,-1.344108295E1,-2.896212816E0
4.037487402E1,6.481259346E0,-1.138205910E1,1.190429211E0
4.042487402E1,-9.690931439E-1,-6.155835152E0,2.198405743E0
4.047487402E1,-3.343969584E0,-7.194918633E0,2.914158821E0
4.052487402E1,-1.395314693E0,-8.475676537E0,-3.494717360E0
4.057487402E1,2.148156643E0,-9.222537041E0,5.895316601E-1
4.062487402E1,6.739983082E0,-1.304596806E1,6.814160824E0
4.067487402E1,-3.179463148E-1,-1.593320751E1,4.276273251E0
4.072487402E1,3.558127165E0,-1.634267998E1,1.839183331E0
4.077487402E1,-2.441576481E0,-1.770987892E1,-8.072485924E0
4.082487402E1,-4.478765965E0,-1.817887115E1,2.172084808E0
4.087487402E1,4.818546474E-1,-9.261120796E0,-2.386242390E0
4.092487402E1,2.076371908E0,-4.561318398E0,-1.141376376E0
4.097487402E1,4.757529736E0,-1.290927768E0,-2.848356247E0
4.102487402E1,5.608177781E-1,6.577271223E-1,-3.379862070E0
4.107487402E1,-1.129412293E0,-2.212762833E0,3.129513025E0
4.112487402E1,-1.471346664E1,-3.558157349E1,1.312253857E1
4.117487402E1,-2.783750057E0,-3.062513828E0,5.983253002E0
4.122487402E1,-3.351148129E0,-1.599302864E1,-1.025593662E1
4.127487402E1,-3.906582117E0,-6.091228962E0,-1.450349569E0
4.132487402E1,5.724828243E0,-1.191595745E1,-6.025426388E0
4.137487402E1,7.029514790E0,-1.348893929E1,1.307677627E0
4.142487402E1,2.853440940E-1,-5.803791523E0,2.531008244E0
4.147487402E1,-3.320041418E0,-7.197311401E0,1.439282775E0
4.152487402E1,-3.049652576E0,-8.418249130E0,-3.741477251E0
4.157487402E1,2.033001900E0,-9.131608963E0,1.159322619E0
4.162487402E1,7.721638680E0,-1.105184937E1,4.527818680E0
4.167487402E1,7.474579811E-1,-1.689572144E1,2.725125790E0
4.172487402E1,2.449652195E0,-1.696032715E1,2.428116798E0
4.177487402E1,-3.406183004E0,-1.726451492E1,-8.881559372E0
4.182487402E1,-5.948856354E0,-1.710389709E1,3.771088600E0
4.187487402E1,-1.725524187E0,-9.107681274E0,-7.465606928E-1
4.192487402E1,2.018645048E0,-4.781756878E0,-1.684846282E0
4.197487402E1,4.812564373E0,-2.567199707E0,-2.475075960E0
4.202487402E1,2.279163599E-1,2.315055877E-1,-2.429612398E0
4.207487402E1,-8.494520187E-1,-9.702895880E-1,1.427318692E0
4.212487402E1,-1.804846382E1,-3.087249756E1,1.301246834E1
4.217487402E1,-2.721536636E0,-3.093919754E0,5.995217323E0
4.222487402E1,-2.422134638E0,-1.740329742E1,-4.692026138E0
4.227487402E1,-5.237589836E0,-7.190133095E0,-3.281756163E0
4.232487402E1,5.231607437E0,-9.794720650E0,-8.359624863E0
4.237487402E1,5.375176907E0,-1.416640759E1,2.554936409E0
4.242487402E1,1.992323995E0,-6.186942101E0,1.884646893E0
4.247487402E1,-3.631407499E0,-6.919445038E0,2.605185747E0
4.252487402E1,-3.020938635E0,-8.403892517E0,-4.205984116E0
4.257487402E1,1.314856052E0,-8.875576973E0,6.182455420E-1
4.262487402E1,6.775875568E0,-1.168146133E1,6.335297108E0
4.267487402E1,2.200798512E0,-1.529641819E1,4.025924206E-1
4.272487402E1,1.412961721E0,-1.490878105E1,4.714458942E0
4.277487402E1,-1.464706540E0,-1.607468414E1,-7.524230957E0
4.282487402E1,-5.582455158E0,-1.769312859E1,7.187440991E-1
4.287487402E1,-1.859522343E0,-1.157856941E1,-2.461616248E-1
4.292487402E1,8.072785139E-1,-5.123930454E0,-2.015354872E0
4.297487402E1,4.822135925E0,-2.567199707E0,-3.466003656E0
4.302487402E1,7.211369276E-1,-2.691925503E-2,-2.223530531E0
4.307487402E1,-4.184448719E-1,-7.666005492E-1,-4.615156651E-1
4.312487402E1,-1.468714523E1,-2.337668037E1,1.962742615E1
4.317487402E1,-9.738788009E-1,-8.265108109E0,4.716851711E0
4.322487402E1,-2.556432009E0,-1.507149220E1,2.368296146E0
4.327487402E1,-5.108377457E0,-6.881159782E0,-7.287042141E0
4.332487402E1,3.266202927E0,-9.801898956E0,-9.334101677E0
4.337487402E1,5.348855972E0,-1.501645756E1,3.064906597E0
4.342487402E1,3.208775282E0,-6.893123627E0,1.736291885E0
4.347487402E1,-3.638586044E0,-6.799803734E0,2.617149830E0
4.352487402E1,-2.879462957E0,-8.334500313E0,-1.210768223E0
4.357487402E1,2.446661144E-1,-8.312965393E0,-1.912463546E0
4.362487402E1,4.704887390E0,-1.198774242E1,5.052145958E0
4.367487402E1,4.120739460E0,-1.386969757E1,1.484746456E0
4.372487402E1,1.226321578E0,-1.529641819E1,5.296213627E0
4.377487402E1,-1.134197950E0,-1.475534058E1,1.001396298E0
4.382487402E1,-3.789333820E0,-1.672822380E1,-4.627120972E0
4.387487402E1,-3.241078377E0,-1.540409470E1,-1.198804140E0
4.392487402E1,-2.126621157E-1,-7.326523781E0,-2.637787819E0
4.397487402E1,3.182454109E0,-3.436093330E0,-2.448754787E0
4.402487402E1,1.973181367E0,-1.140179992E0,-2.257030010E0
4.407487402E1,-8.039883971E-1,-1.013360381E0,-1.948355794E0
4.412487402E1,-3.207578659E0,-8.155038834E0,1.730519295E1
4.417487402E1,1.537388563E-1,-2.133440590E1,1.142752266E1
4.422487402E1,-3.746263027E0,-7.264310360E0,6.368796349E0
4.427487402E1,-4.933701038E0,-9.780363083E0,-9.436993599E0
4.432487402E1,-3.209971666E0,-6.481558323E0,-1.948355794E0
4.437487402E1,3.936492443E0,-1.320897961E1,-2.506182671E0
4.442487402E1,7.628019333E0,-1.044855881E1,6.349952817E-1
4.447487402E1,-9.571290612E-1,-6.323332787E0,3.594019651E0
4.452487402E1,-2.889034271E0,-8.075776100E0,1.724327803E0
4.457487402E1,-1.543669701E0,-8.403892517E0,-2.738286495E0
4.462487402E1,2.595614433E0,-1.008933640E1,2.598007202E0
4.467487402E1,6.747161865E0,-1.086491013E1,2.351546526E0
4.472487402E1,-5.237290859E-1,-1.508106422E1,4.733601570E0
4.477487402E1,1.906182289E0,-1.540170193E1,4.448855400E0
4.482487402E1,8.934201598E-1,-1.766650963E1,-8.278268814E0
4.487487402E1,-3.952045679E0,-1.728126335E1,1.961217284E0
4.492487402E1,2.709871531E-1,-9.043074608E0,-2.257030010E0
4.497487402E1,1.204786181E0,-4.420141697E0,-1.182054400E0
4.502487402E1,4.295415878E0,-1.403689623E0,-2.848356247E0
4.507487402E1,-1.142572835E-1,6.314060688E-1,-3.037688255E0
4.512487402E1,-1.534098387E0,-2.629412889E0,4.235595226E0
4.517487402E1,-1.042343426E1,-3.690091324E1,1.497069454E1
4.522487402E1,-2.218744755E0,-1.784148335E0,4.132703781E0
4.527487402E1,-1.651346684E0,-2.020678902E1,-8.259126663E0
4.532487402E1,-5.297709465E0,-3.586841106E0,-4.433301926E0
4.537487402E1,3.596412420E0,-1.130548859E1,-8.285447121E0
4.542487402E1,6.368796349E0,-1.427169132E1,2.033001900E0
4.547487402E1,9.391828626E-2,-6.203691959E0,3.218346357E0
4.552487402E1,-2.132603168E0,-7.534699440E0,2.068894386E0
4.557487402E1,-1.371386528E0,-8.387142181E0,-2.487040043E0
4.562487402E1,1.367498159E0,-7.891529083E0,1.832004786E0
4.567487402E1,5.966503143E0,-1.208136177E1,4.544568539E0
4.572487402E1,1.497009635E0,-1.577288914E1,1.372283816E0
4.577487402E1,9.487541914E-1,-1.463091373E1,4.869992256E0
4.582487402E1,-5.189434290E-1,-1.688854218E1,-7.131508827E0
4.587487402E1,-4.282554150E0,-1.699143410E1,-1.405783296E-1
4.592487402E1,-2.652144909E0,-1.229432297E1,-5.596213937E-1
4.597487402E1,-5.644070506E-1,-5.928517342E0,-1.838286042E0
4.602487402E1,4.625924587E0,-2.734697104E0,-3.121437073E0
4.607487402E1,1.008574724E0,-2.781656384E-1,-1.656132340E0
4.612487402E1,-7.680960894E-1,-1.252642632E0,-4.256233275E-1
4.617487402E1,-9.547062874E0,-1.773141479E1,1.834876251E1
4.622487402E1,2.925225794E-1,-1.013479996E1,8.547461510E0
4.627487402E1,-4.009473324E0,-1.502363586E1,1.018505001E1
4.632487402E1,-2.781357288E0,-4.310071945E0,-1.268106270E1
4.637487402E1,8.910273314E-1,-1.089123154E1,-1.014317513E1
4.642487402E1,5.126323223E0,-1.516720581E1,2.557329178E0
4.647487402E1,4.551746845E0,-8.403892517E0,1.111466169E0
4.652487402E1,-2.635395050E0,-6.603592396E0,3.450450182E0
4.657487402E1,-2.395813704E0,-8.389534950E0,6.373881102E-1
4.662487402E1,4.366901144E-2,-8.612068176E0,-2.554039001E0
4.667487402E1,3.680161238E0,-1.078116131E1,3.110370398E0
4.672487402E1,5.281857014E0,-1.272293663E1,3.512663603E0
4.677487402E1,5.895316601E-1,-1.489203072E1,6.653841496E0
4.682487402E1,-5.443671346E-2,-1.543310738E1,5.016253471E0
4.687487402E1,-6.242275834E-1,-1.726930046E1,-6.702894211E0
4.692487402E1,-2.283350945E0,-1.671625900E1,2.925225794E-1
4.697487402E1,-1.229910851E0,-9.462118149E0,-2.822035313E0
4.702487402E1,2.320439816E0,-4.008276939E0,-1.905285001E0
4.707487402E1,3.302095175E0,-1.461117268E0,-2.709572554E0
4.712487402E1,-9.236295223E-1,3.442673683E-1,-2.123031855E0
4.717487402E1,-2.178066730E0,-4.757529736E0,8.525926590E0
4.722487402E1,-6.305386543E0,-2.928276443E1,1.190399361E1
4.727487402E1,-3.059223652E0,-9.511470199E-1,5.562116146E0
4.732487402E1,-3.806083441E0,-1.867209244E1,-6.355935097E0
4.737487402E1,-4.102793694E0,-5.775077343E0,-5.187340260E0
4.742487402E1,4.879862785E0,-9.328120232E0,-8.285447121E0
4.747487402E1,5.315356255E0,-1.508584976E1,1.822433591E0
4.752487402E1,7.378866673E-1,-5.882754326E0,1.760220170E0
4.757487402E1,-4.031008720E0,-7.309773922E0,2.868695259E0
4.762487402E1,-1.572383523E0,-8.387142181E0,-2.194816589E0
4.767487402E1,1.901396751E0,-8.382356644E0,-1.392921925E0
4.772487402E1,4.700101852E0,-1.192792225E1,6.103193283E0
4.777487402E1,1.410568953E0,-1.457587910E1,1.271785259E0
4.782487402E1,1.168893814E0,-1.459980774E1,4.977968216E0
4.787487402E1,2.662015259E-1,-1.629243088E1,-2.120639086E0
4.792487402E1,-3.317648649E0,-1.700100517E1,-3.126222849E0
4.797487402E1,-2.836392164E0,-1.394866085E1,-1.565205097E0
4.802487402E1,-8.446664214E-1,-7.800601959E0,-1.818844318E0
4.807487402E1,2.887837887E0,-3.967599154E0,-2.056032896E0
4.812487402E1,1.836790442E0,-8.359923959E-1,-2.194816589E0
4.817487402E1,-7.585247755E-1,-5.464608669E-1,-1.541276932E0
4.822487402E1,-3.537788391E0,-7.096812725E0,1.179392338E1
4.827487402E1,-3.059822023E-1,-2.365664101E1,1.169581795E1
4.832487402E1,-4.261018753E0,-7.161418915E0,8.635995865E0
4.837487402E1,-4.531407833E0,-8.375178337E0,-9.096913338E0
4.842487402E1,1.283749342E0,-7.984848976E0,-6.379863262E0
4.847487402E1,4.807778835E0,-1.610818291E1,2.983550787E0
4.852487402E1,4.233202457E0,-8.739186287E0,1.245464206E0
4.857487402E1,-3.827618837E0,-6.299404621E0,2.013859272E0
4.862487402E1,-4.426123619E0,-7.740781307E0,2.983550787E0
4.867487402E1,9.343972206E-1,-9.227322578E0,-3.612264872E0
4.872487402E1,2.437688112E0,-9.612865448E0,5.488536954E-1
4.877487402E1,4.927719116E0,-1.146102238E1,3.718446493E0
4.882487402E1,-3.155534863E-1,-1.420947838E1,3.242274761E0
4.887487402E1,2.957229614E0,-1.454477215E1,4.422534466E0
4.892487402E1,-6.577271223E-1,-1.675454330E1,-8.907880783E0
4.897487402E1,-3.667299747E0,-1.707518196E1,2.169692039E0
4.902487402E1,-2.868396044E-1,-1.091515923E1,-2.376671076E0
4.907487402E1,8.120641708E-1,-5.648257732E0,-1.440778375E0
4.912487402E1,4.377070904E0,-2.720340252E0,-2.688037157E0
4.917487402E1,-2.940180898E-1,9.044869542E-1,-2.762214661E0
4.922487402E1,-6.672984362E-1,-8.793623447E-1,1.016949583E-2
4.927487402E1,-1.470150185E1,-3.143271637E1,1.592602921E1
4.932487402E1,3.140579760E-1,-5.300999641E0,6.265905380E0
4.937487402E1,-2.302493572E0,-1.965614128E1,8.470890999E0
4.942487402E1,-5.405386448E0,-3.644268990E0,-1.097647572E1
4.947487402E1,1.360319614E0,-1.010130119E1,-1.015513897E1
4.952487402E1,5.542973518E0,-1.614886093E1,3.390629768E0
4.957487402E1,4.118346691E0,-6.529414654E0,2.040180445E0
4.962487402E1,-2.460718870E0,-6.395117760E0,2.184048891E0
4.967487402E1,-3.123830080E0,-9.328120232E0,-1.491027594E0
4.972487402E1,-6.409773827E-1,-8.463712692E0,-9.260223508E-1
4.977487402E1,4.436891556E0,-1.052991486E1,4.278666019E0
4.982487402E1,3.943670750E0,-1.360618782E1,9.990034699E-1
4.987487402E1,5.823532343E-1,-1.377159119E1,6.356832504E0
4.992487402E1,1.949253201E0,-1.464766407E1,4.439284325E0
4.997487402E1,-1.711167336E0,-1.751336861E1,-8.656634331E0
5.002487402E1,-5.024628639E0,-1.670668793E1,-1.002592683E0
5.007487402E1,-2.010569334E0,-9.224929810E0,-1.290030479E0
5.012487402E1,4.408177376E0,-4.939683437E0,-1.495813251E0
5.017487402E1,4.527818680E0,-2.157727718E0,-2.022533417E0
5.022487402E1,-3.610171080E-1,8.347960114E-1,-3.288934708E0
5.027487402E1,-2.010569334E0,-2.528914452E0,7.539484978E0
5.032487402E1,-8.529515266E0,-3.360181046E1,1.106112194E1
5.037487402E1,-4.778167725E0,-3.189632654E0,7.941778183E0
5.042487402E1,-3.861118555E0,-1.468116379E1,-1.435693550E1
5.047487402E1,-3.669692516E0,-7.017849922E0,2.487937450E0
5.052487402E1,4.824528694E0,-1.257667542E1,-3.997509241E0
5.057487402E1,7.740781307E0,-1.182503033E1,1.231107235E0
5.062487402E1,-6.936194897E-1,-6.795018196E0,2.796910524E0
5.067487402E1,-3.276970625E0,-7.752745152E0,2.875873804E0
5.072487402E1,-1.687239051E0,-7.989634991E0,-3.128615618E0
5.077487402E1,1.590329766E0,-9.052646637E0,1.369890928E0
5.082487402E1,5.308177948E0,-1.232064342E1,4.202095509E0
5.087487402E1,1.338784218E0,-1.551685619E1,2.365903378E0
5.092487402E1,1.022931695E0,-1.401326656E1,5.178965569E0
5.097487402E1,3.308077157E-1,-1.715683746E1,-5.800501347E0
5.102487402E1,-4.586442947E0,-1.724776459E1,-7.836493850E-2
5.107487402E1,-2.257030010E0,-1.324726391E1,-9.930213690E-1
5.112487402E1,2.063809484E-1,-6.852446079E0,-1.756630898E0
5.117487402E1,4.096811295E0,-2.940479994E0,-3.518645763E0
5.122487402E1,4.196412563E-1,9.511470050E-2,-2.221137524E0
5.127487402E1,-5.213362575E-1,2.506481707E-1,-1.203589797E0
5.132487402E1,-7.758727551E0,-1.687418556E1,1.671386528E1
5.137487402E1,3.068794906E-1,-9.746864319E0,8.118846893E0
5.142487402E1,-2.991925716E0,-1.288086319E1,6.974479675E0
5.147487402E1,-4.004687786E0,-4.738387108E0,-1.213520050E1
5.152487402E1,1.853540182E0,-9.893125534E0,-8.924630165E0
5.157487402E1,4.671388149E0,-1.518874073E1,4.216452599E0
5.162487402E1,5.686542988E0,-7.000801086E0,1.178465188E-1
5.167487402E1,-3.154936552E0,-6.237191200E0,2.749054193E0
5.172487402E1,-3.205185890E0,-9.703793526E0,6.517450809E-1
5.177487402E1,-6.744768620E-1,-7.537092209E0,-3.521337509E0
5.182487402E1,2.643769979E0,-1.150439262E1,2.966800928E0
5.187487402E1,6.529115677E0,-1.224407387E1,3.498306751E0
5.192487402E1,8.673982322E-2,-1.501167202E1,6.476473808E0
5.197487402E1,1.027717352E0,-1.672104454E1,2.547757864E0
5.202487402E1,-2.398206472E0,-1.734587097E1,-8.797810555E0
5.207487402E1,-4.134199142E0,-1.657029724E1,-5.021936297E-1
5.212487402E1,-9.499505758E-1,-8.257929802E0,-2.137388945E0
5.217487402E1,3.110370398E0,-4.774578571E0,-2.134995937E0
5.222487402E1,3.946063757E0,-9.535398483E-1,-2.429612398E0
5.227487402E1,-5.682953820E-2,1.501496136E-1,-2.805285454E0
5.232487402E1,-1.095912814E0,-3.452843189E0,7.738388538E0
5.237487402E1,-8.168199539E0,-3.227798080E1,1.073330498E1
5.242487402E1,-2.788535595E0,1.597209126E-1,7.072585583E0
5.247487402E1,-4.596014023E0,-2.149233246E1,-1.065075302E1
5.252487402E1,-3.990330935E0,-6.929016113E0,-2.113460541E0
5.257487402E1,5.751149178E0,-1.226560879E1,-4.397409916E0
5.262487402E1,6.423831463E0,-1.256231880E1,1.075573802E0
5.267487402E1,-1.069591761E0,-6.340082645E0,6.541379094E-1
5.272487402E1,-3.875475407E0,-6.107978821E0,2.009073734E0
5.277487402E1,-1.318744421E0,-8.609675407E0,-3.516252756E0
5.282487402E1,6.972087026E-1,-8.521140099E0,-1.863410622E-1
5.287487402E1,4.652245522E0,-1.231585789E1,3.809672832E0
5.292487402E1,2.959622622E0,-1.503559971E1,3.786641955E-1
5.297487402E1,1.061216831E0,-1.395823193E1,4.807778835E0
5.302487402E1,-1.342672586E0,-1.676890182E1,-2.307279348E0
5.307487402E1,-5.036592484E0,-1.668036652E1,-3.839582920E0
5.312487402E1,-1.742274046E0,-1.408265877E1,-2.008176327E0
5.317487402E1,7.498508096E-1,-7.328916550E0,-2.142174482E0
5.322487402E1,3.656233072E0,-3.701995850E0,-2.843570709E0
5.327487402E1,8.742775917E-1,2.003988922E-1,-2.688037157E0
5.332487402E1,6.589235067E-1,-2.518445849E-1,-1.826022744E0
5.337487402E1,-4.802095890E0,-1.138684464E1,1.513370609E1
5.342487402E1,1.188036442E0,-1.588295841E1,1.115952682E1
5.347487402E1,-3.995116472E0,-7.805387497E0,7.297810078E0
5.352487402E1,-3.365504980E0,-9.486045837E0,-1.209930801E1
5.357487402E1,-8.925228715E-1,-8.734400749E0,-3.626621723E0
5.362487402E1,4.161417484E0,-1.466680622E1,-2.437688112E-1
5.367487402E1,4.719244480E0,-1.025444126E1,1.944467545E0
5.372487402E1,-2.726322412E0,-5.385047436E0,2.373081923E0
5.377487402E1,-2.324028969E0,-8.217251778E0,2.169692039E0
5.382487402E1,3.355933726E-1,-8.978468895E0,-3.169293642E0
5.387487402E1,2.222334146E0,-8.346464157E0,-1.695913076E-1
5.392487402E1,3.026621580E0,-1.307946777E1,5.557330608E0
5.397487402E1,6.541379094E-1,-1.561735535E1,3.723232031E0
5.402487402E1,3.919742584E0,-1.561496258E1,2.734697104E0
5.407487402E1,-1.081555843E0,-1.770748520E1,-1.062921715E1
5.412487402E1,-3.104687452E0,-1.675215149E1,2.564507723E0
5.417487402E1,7.737790346E-1,-1.072851944E1,-2.573181629E0
5.422487402E1,1.128215909E0,-5.456831932E0,-2.948854923E0
5.427487402E1,4.259523392E0,-2.016551256E0,-2.489432812E0
5.432487402E1,-3.323032558E-1,6.816553473E-1,-3.195614576E0
5.437487402E1,-6.840481758E-1,-1.403689623E0,1.302891970E0
5.442487402E1,-1.358106327E1,-3.065235710E1,1.142752266E1
5.447487402E1,-6.002993584E-1,-5.317749023E0,4.209274292E0
5.452487402E1,-1.086341500E0,-1.437248898E1,6.924230456E-1
5.457487402E1,-6.559325218E0,-9.270691872E0,-6.384648800E0
5.462487402E1,8.335995674E-1,-7.161418915E0,-8.180163383E0
5.467487402E1,7.505985737E0,-1.601247025E1,-6.792625189E-1
5.472487402E1,4.046562195E0,-7.793423176E0,4.154239178E0
5.477487402E1,-3.078366280E0,-6.294619083E0,1.130608678E0
5.482487402E1,-3.377469063E0,-8.234002113E0,-2.032104731E0
5.487487402E1,-1.094716340E-1,-8.669495583E0,-3.329612732E0
5.492487402E1,4.101597309E0,-1.152832031E1,5.916254044E0
5.497487402E1,4.515854359E0,-1.317518044E1,2.447259426E0
5.502487402E1,2.344367981E0,-1.514566994E1,4.604389191E0
5.507487402E1,9.870393276E-1,-1.745594025E1,5.703890920E-1
5.512487402E1,-4.651049137E0,-1.820997810E1,-5.958427429E0
5.517487402E1,-2.984747171E0,-1.547378540E1,-1.936391711E0
5.522487402E1,2.614158690E-1,-7.529913902E0,-1.376172066E0
5.527487402E1,3.342773199E0,-3.831208229E0,-2.364706993E0
5.532487402E1,2.318047047E0,3.323032558E-1,-2.771785975E0
5.537487402E1,-3.035893738E-1,8.494520187E-1,-2.589931488E0
5.542487402E1,-3.040081263E0,-8.051848412E0,1.757797432E1
5.547487402E1,-1.052842021E0,-2.152343941E1,1.241157150E1
5.552487402E1,-4.316053867E0,-1.066869926E1,8.336893082E0
5.557487402E1,-2.163709879E0,-3.718745470E0,-1.417956829E1
5.562487402E1,1.999502420E0,-9.833304405E0,-1.019103146E1
5.567487402E1,5.894718647E0,-1.473619843E1,6.098407745E0
5.572487402E1,1.626222134E0,-7.539484978E0,8.886345029E-1
5.577487402E1,-2.979961395E0,-6.419045925E0,2.284547329E0
5.582487402E1,-1.663310885E0,-7.570591927E0,1.307677627E0
5.587487402E1,8.434699476E-2,-8.918647766E0,-4.564907551E0
5.592487402E1,2.531008244E0,-1.093430233E1,2.497508526E0
5.597487402E1,4.810171604E0,-1.075244808E1,2.720340252E0
5.602487402E1,9.774680734E-1,-1.533470345E1,3.850350618E0
5.607487402E1,4.051347733E0,-1.654607010E1,1.580758452E0
5.612487402E1,-3.152543783E0,-1.563649750E1,-9.087342262E0
5.617487402E1,-3.489931822E0,-1.729322815E1,1.427318692E0
5.622487402E1,1.106680483E-1,-8.942576408E0,-8.685946465E-1
5.627487402E1,1.616650820E0,-4.350749969E0,-2.257030010E0
5.632487402E1,3.479164124E0,-1.966302037E0,-2.582752943E0
5.637487402E1,-4.232304990E-1,-7.956135273E-2,-3.226721287E0
5.642487402E1,-1.022931710E-1,-2.792124987E0,4.544568539E0
5.647487402E1,-1.074885845E1,-3.168396378E1,1.335254860E1
5.652487402E1,-2.407777786E0,-3.567698479E0,5.116752148E0
5.657487402E1,-3.073580742E0,-1.980928230E1,1.975574136E0
5.662487402E1,-3.576372623E0,-3.196810961E0,-8.199305534E0
5.667487402E1,1.693221092E0,-9.301798820E0,-7.993224144E0
5.672487402E1,7.482057095E0,-1.631635857E1,3.019443035E0
5.677487402E1,2.200798512E0,-7.273881912E0,1.872682810E0
5.682487402E1,-3.406183004E0,-6.658627033E0,8.790631890E-1
5.687487402E1,-1.945963025E0,-8.530712128E0,1.704886109E-1
5.692487402E1,4.100699723E-1,-7.489235878E0,-3.566801310E0
5.697487402E1,2.722733021E0,-1.227757263E1,3.974777460E0
5.702487402E1,4.053740501E0,-1.531795311E1,2.945265532E0
5.707487402E1,4.627120793E-1,-1.190638638E1,4.786243439E0
5.712487402E1,1.736291885E0,-1.667558098E1,2.174477577E0
5.717487402E1,-3.032902718E0,-1.747269058E1,-5.589633465E0
5.722487402E1,-3.693620920E0,-1.544985771E1,-2.099103689E0
5.727487402E1,-3.705884218E-1,-8.818149567E0,-1.318744421E0
5.732487402E1,3.031407118E0,-4.281357765E0,-2.223530531E0
5.737487402E1,1.930110574E0,-9.224331379E-1,-2.417648077E0
5.742487402E1,-4.495515525E-1,8.542376757E-1,-1.902892232E0
5.747487402E1,-3.351148129E0,-7.273881912E0,1.213131142E1
5.752487402E1,-1.922034740E0,-1.830120468E1,9.684650421E0
5.757487402E1,-4.433301926E0,-1.272533035E1,5.363213062E0
5.762487402E1,-3.803690672E0,-4.286143780E0,-1.249173069E1
5.767487402E1,6.565307379E-1,-1.059212875E1,-9.666704178E0
5.772487402E1,4.587639332E0,-1.515284824E1,2.102692842E0
5.777487402E1,4.695316315E0,-8.758329391E0,3.304488182E0
5.782487402E1,-1.854736686E0,-5.602794170E0,1.377069473E0
5.787487402E1,-2.451147795E0,-8.497212410E0,5.727819204E-1
5.792487402E1,-4.280161560E-1,-8.226823807E0,-3.729513168E0
5.797487402E1,2.284547329E0,-1.083619690E1,2.231905222E0
5.802487402E1,6.423831463E0,-1.278036499E1,4.906183720E0
5.807487402E1,-1.262213886E-1,-1.561017704E1,4.139882088E0
5.812487402E1,1.374676585E0,-1.657508278E1,-5.045864582E-1
5.817487402E1,-3.224328518E0,-1.749661827E1,-8.472087860E0
5.822487402E1,-4.438087940E0,-1.721426582E1,1.128215909E0
5.827487402E1,3.909274042E-1,-8.674281120E0,-2.053640127E0
5.832487402E1,3.259024382E0,-3.625126362E0,-1.407278776E0
5.837487402E1,4.482355118E0,-1.341177106E0,-2.723929405E0
5.842487402E1,-6.577271223E-1,2.650051117E-1,-3.119044304E0
5.847487402E1,-1.083948612E0,-3.113062143E0,1.427318692E0
5.852487402E1,-1.189322567E1,-2.804029274E1,9.923933029E0
5.857487402E1,-5.687739372E0,-7.247560501E0,5.226821899E0
5.862487402E1,-7.691728592E0,-1.478405476E1,9.677472115E0
5.867487402E1,3.789632916E-1,-2.138585329E0,-1.233380413E1
5.872487402E1,3.332005441E-1,-1.567238998E1,-9.252745628E0
5.877487402E1,5.760720730E0,-1.369472218E1,2.377867460E0
5.882487402E1,3.328416348E0,-7.673782349E0,2.004287958E0
5.887487402E1,-2.414956331E0,-5.957231045E0,2.978765011E0
5.892487402E1,-1.790130496E0,-7.082456112E0,7.546364665E-1
5.897487402E1,3.044866920E-1,-8.652746201E0,-2.568396091E0
5.902487402E1,2.772982359E0,-1.169821072E1,1.961217284E0
5.907487402E1,4.221238136E0,-1.091994476E1,4.353142738E0
5.912487402E1,2.200798512E0,-1.525813293E1,2.255833626E0
5.917487402E1,1.202393413E0,-1.579203129E1,2.902194738E0
5.922487402E1,-1.763809443E0,-1.650778389E1,-9.530313492E0
5.927487402E1,-3.159722328E0,-1.806162262E1,2.485544443E0
5.932487402E1,1.046859860E0,-1.016112137E1,-2.728715181E0
5.937487402E1,1.173679471E0,-5.245964527E0,-6.744768620E-1
5.942487402E1,4.257130623E0,-1.319641709E0,-2.757428885E0
5.947487402E1,-5.922235921E-2,4.423730969E-1,-2.453540564E0
5.952487402E1,-6.768696904E-1,-2.428116798E0,1.417747378E0
5.957487402E1,-1.430907917E1,-2.703470802E1,1.265085316E1
5.962487402E1,-6.649056077E-1,-6.500700951E0,6.196513176E0
5.967487402E1,-3.131008387E0,-7.915457249E0,4.477569580E0
5.972487402E1,-5.285745144E0,-1.639292908E1,-3.253042459E0
5.977487402E1,-3.059223652E0,-7.968099594E0,-4.117449760E0
5.982487402E1,2.550150633E0,-1.160249805E1,-2.350350142E0
5.987487402E1,8.403892517E0,-1.198295689E1,3.451646566E-1
5.992487402E1,-1.510170221E0,-6.332904339E0,2.677269459E0
5.997487402E1,-3.351148129E0,-7.779066563E0,1.010967612E0
6.002487402E1,-1.138983607E0,-7.553842068E0,-2.716751099E0
6.007487402E1,2.708376169E0,-1.102552891E1,4.387838542E-1
6.012487402E1,5.583651543E0,-1.152832031E1,5.427819252E0
6.017487402E1,1.729113460E0,-1.521266937E1,2.035394669E0
6.022487402E1,2.701197624E0,-1.554078484E1,2.923730135E0
6.027487402E1,-3.013760090E0,-1.716640854E1,-8.721240044E0
6.032487402E1,-5.838786125E0,-1.851655960E1,2.684448004E0
6.037487402E1,6.110670567E-1,-1.080269718E1,-1.129412293E0
6.042487402E1,8.551349640E-1,-4.286143780E0,-2.324028969E0
6.047487402E1,4.420141697E0,-2.600699186E0,-1.969891191E0
6.052487402E1,-4.806582630E-1,4.040879309E-1,-2.752643347E0
6.057487402E1,-6.816553473E-1,-1.032503009E0,6.517450809E-1
6.062487402E1,-1.307827091E1,-2.632374191E1,1.663460350E1
6.067487402E1,6.493522525E-1,-5.736792088E0,7.503592491E0
6.072487402E1,-4.680061817E0,-1.845673752E1,1.855933070E0
6.077487402E1,-3.971188307E0,-3.450450182E0,-9.391530037E0
6.082487402E1,2.279761791E0,-1.049402237E1,-1.298495102E1
6.087487402E1,6.596413612E0,-1.642403603E1,1.915753603E0
6.092487402E1,4.245166302E0,-6.960123062E0,2.502294302E0
6.097487402E1,-3.044866800E0,-5.480760098E0,2.332403898E0
6.102487402E1,-2.855534792E0,-8.437391281E0,-1.780559182E0
6.107487402E1,1.544866085E0,-8.813364029E0,-4.064807594E-1
6.112487402E1,5.198108196E0,-1.108534908E1,3.800101519E0
6.117487402E1,4.389034748E0,-1.424776363E1,2.859123945E0
6.122487402E1,1.824527234E-1,-1.449691582E1,6.170192242E0
6.127487402E1,-1.445564032E0,-1.683589935E1,-3.064009428E0
6.132487402E1,-3.339184046E0,-1.751336861E1,-6.090032578E0
6.137487402E1,-2.814856768E0,-1.664447403E1,-2.204387903E0
6.142487402E1,4.028915167E-1,-6.828517437E0,-2.731107950E0
6.147487402E1,3.352344513E0,-3.938885212E0,-2.618645191E0
6.152487402E1,2.416152716E0,5.596213937E-1,-2.338385820E0
6.157487402E1,-2.916252613E-1,4.328017831E-1,-2.539682150E0
6.162487402E1,-5.043771267E0,-8.640781403E0,1.704646873E1
6.167487402E1,-1.158126116E0,-1.746790504E1,1.119781208E1
6.172487402E1,-5.536991596E0,-1.134138107E1,1.091037369E1
6.177487402E1,-1.275374413E0,-3.512663603E0,-1.268824100E1
6.182487402E1,-3.997509241E0,-1.225125217E1,-4.660919189E0
6.187487402E1,5.775077343E0,-1.424537086E1,1.142572761E0
6.192487402E1,7.072585583E0,-1.027358437E1,2.552543640E0
6.197487402E1,-2.568396091E0,-5.736792088E0,2.030609131E0
6.202487402E1,-4.059722900E0,-8.222037315E0,2.813660383E0
6.207487402E1,-5.715855360E-1,-8.097311974E0,-6.365506649E0
6.212487402E1,2.016252279E0,-9.854840279E0,8.407780528E-1
6.217487402E1,7.367201805E0,-1.265833092E1,4.532604218E0
6.222487402E1,5.563312769E-2,-1.614168167E1,5.471189022E0
6.227487402E1,3.780958891E0,-1.692682648E1,3.314059258E0
6.232487402E1,-1.926820397E0,-1.740329742E1,-9.434600830E0
6.237487402E1,-3.894618034E0,-1.796830368E1,2.763411045E0
6.242487402E1,5.297111273E-1,-1.034058285E1,-2.130210400E0
6.247487402E1,2.315654039E0,-6.031408787E0,-1.414457321E0
6.252487402E1,4.910969257E0,-1.738684773E0,-2.941676378E0
6.257487402E1,-4.112663865E-1,9.355936646E-1,-3.617050648E0
6.262487402E1,-1.725524187E0,-1.391426325E0,6.517151356E0
6.267487402E1,-1.206820107E1,-3.138725281E1,1.571067524E1
6.272487402E1,-3.075973511E0,-3.577269793E0,6.189334869E0
6.277487402E1,-4.208376884E0,-1.537538147E1,-6.023033619E0
6.282487402E1,-3.983152390E0,-7.750352383E0,-2.676073074E0
6.287487402E1,3.464807272E0,-1.090080261E1,-6.595217228E0
6.292487402E1,7.369594574E0,-1.389123249E1,1.424925923E0
6.297487402E1,1.441675663E0,-6.050550938E0,2.083251238E0
6.302487402E1,-3.786941051E0,-7.149455070E0,1.791326880E0
6.307487402E1,-3.753740489E-1,-8.365607262E0,-9.379864931E-1
6.312487402E1,2.422732860E-1,-7.216454029E0,-1.996212244E0
6.317487402E1,4.276273251E0,-1.246660614E1,3.515056372E0
6.322487402E1,2.703590393E0,-1.608664703E1,2.440080881E0
6.327487402E1,3.469592810E0,-1.411376572E1,2.751446962E0
6.332487402E1,-2.369492531E0,-1.490878105E1,2.780160904E0
6.337487402E1,-3.676871061E0,-1.658465385E1,-6.190531254E0
6.342487402E1,-2.556432009E0,-1.493749428E1,-1.603490233E0
6.347487402E1,-4.725824669E-2,-8.138288498E0,-2.388635159E0
6.352487402E1,3.280559778E0,-3.369094372E0,-1.763809443E0
6.357487402E1,1.860718727E0,-1.820040703E0,-2.008176327E0
6.362487402E1,-7.728816867E-1,-4.435695112E-1,-2.723929405E0
6.367487402E1,-2.554039001E0,-5.423332691E0,1.199013519E1
6.372487402E1,-5.424529076E0,-2.634049034E1,1.145862961E1
6.377487402E1,-5.991927147E0,-7.642675400E0,7.199704170E0
6.382487402E1,-7.609176040E-1,-6.244369984E0,-1.321017551E1
6.387487402E1,-4.150949001E0,-8.054241180E0,4.893920422E0
6.392487402E1,6.680162430E0,-1.570349693E1,2.150549412E0
6.397487402E1,2.057229280E0,-9.067003250E0,1.130608678E0
6.402487402E1,-1.045663476E0,-6.411867142E0,1.054038405E0
6.407487402E1,-1.996212244E0,-7.307381153E0,3.259024382E0
6.412487402E1,1.487139225E0,-8.791828156E0,-1.215553880E0
6.417487402E1,2.111666054E-1,-8.231609344E0,-5.209175110E0
6.422487402E1,4.166203499E0,-1.277797222E1,7.494021416E0
6.427487402E1,-7.680960894E-1,-1.395105362E1,-3.801597059E-1
6.432487402E1,7.091727853E-1,-1.502842140E1,2.260619164E0
6.437487402E1,-1.371386528E0,-1.394387531E1,4.973182678E0
6.442487402E1,-1.660917997E0,-1.500927925E1,-4.414159775E0
6.447487402E1,-1.407278776E0,-1.488485241E1,-1.924427629E0
6.452487402E1,-2.161317110E0,-9.160323143E0,-2.762214661E0
6.457487402E1,1.966002941E0,-4.312464714E0,-2.106282234E0
6.462487402E1,2.138585329E0,-1.999801517E0,-7.274180651E-1
6.467487402E1,-8.542376757E-1,-9.056833982E-1,-1.727917075E0
6.472487402E1,-1.641775489E0,-4.551746845E0,9.282357216E0
6.477487402E1,-6.276672840E0,-2.799004364E1,1.279950714E1
6.482487402E1,-4.347160339E0,-3.993920088E0,5.286642551E0
6.487487402E1,-2.819642305E0,-1.947667885E1,-5.692524910E0
6.492487402E1,-4.893023014E0,-3.634697676E0,-7.505088329E0
6.497487402E1,5.985944748E0,-1.094178009E1,-5.936892033E0
6.502487402E1,5.550152302E0,-1.314407349E1,3.038585663E0
6.507487402E1,-3.658027649E-1,-6.536593437E0,1.204786181E0
6.512487402E1,-2.369492531E0,-6.653841496E0,1.755434513E0
6.517487402E1,3.499503136E-1,-9.490832329E0,-1.663310885E0
6.522487402E1,-9.595218897E-1,-8.499605179E0,-4.644169807E0
6.527487402E1,2.710768938E0,-1.420708561E1,1.023529911E1
6.532487402E1,1.434497118E0,-1.340997601E1,2.794517756E0
6.537487402E1,4.494318962E0,-1.595952892E1,3.333201885E0
6.542487402E1,-1.670489311E0,-1.389123249E1,-8.949156404E-1
6.547487402E1,-4.720739841E0,-1.657029724E1,-4.730311394E0
6.552487402E1,-3.569194078E0,-1.315843105E1,-1.225125194E0
6.557487402E1,9.343972206E-1,-6.756732941E0,-2.347957134E0
6.562487402E1,3.203989506E0,-3.424129248E0,-2.367099762E0
6.567487402E1,1.609472275E0,-2.006979942E0,-1.766202211E0
6.572487402E1,-1.016949654E0,-7.139584422E-1,-5.165506005E-1
6.577487402E1,-3.504288673E0,-8.430212975E0,1.453759384E1
6.582487402E1,-1.421635747E0,-1.954607010E1,9.902397156E0
6.587487402E1,-3.205185890E0,-3.917349815E0,7.613662720E0
6.592487402E1,-2.984747171E0,-1.513370609E1,-1.076800060E1
6.597487402E1,-5.422136307E0,-7.300202847E0,-4.445266247E0
6.602487402E1,3.424129248E0,-9.227322578E0,-6.688537598E0
6.607487402E1,5.784648895E0,-1.471705532E1,2.744268417E0
6.612487402E1,2.605185747E0,-6.885945320E0,2.255833626E0
6.617487402E1,-1.333101273E0,-6.952944279E0,3.720839262E0
6.622487402E1,8.575277925E-1,-9.157930374E0,-1.249053478E0
6.627487402E1,-3.729812205E-1,-6.411867142E0,-2.264208317E0
6.632487402E1,2.341975212E0,-1.250249863E1,2.787339211E0
6.637487402E1,2.966800928E0,-1.432223988E1,3.771088600E0
6.642487402E1,-1.328315616E0,-1.637378693E1,5.830112457E0
6.647487402E1,6.999006122E-2,-1.515524101E1,-3.075973511E0
6.652487402E1,-2.934497833E0,-1.673061562E1,-3.075973511E0
6.657487402E1,-3.700799227E0,-1.451845169E1,-2.534896374E0
6.662487402E1,-1.214357466E-1,-5.796612740E0,-1.584347725E0
6.667487402E1,4.724030018E0,-2.507079840E0,-2.429612398E0
6.672487402E1,2.255235314E-1,-1.034895778E-1,-2.094317913E0
6.677487402E1,-1.261017561E0,-1.032503009E0,-2.094317913E0
6.682487402E1,-4.272983074E0,-9.241679192E0,1.982603073E1
6.687487402E1,-1.079162955E0,-1.779841232E1,1.213848972E1
6.692487402E1,-5.072484970E0,-6.423831463E0,5.777470112E0
6.697487402E1,-4.490729809E0,-1.216989613E1,-9.870393753E0
6.702487402E1,-2.965604544E0,-7.580461979E0,-1.459920883E0
6.707487402E1,5.274678230E0,-1.166231823E1,-2.800499916E0
6.712487402E1,7.228417873E0,-1.126002502E1,2.593221426E0
6.717487402E1,-1.416850090E0,-5.710471153E0,1.503889084E0
6.722487402E1,-2.307279348E0,-8.614460945E0,1.422533035E0
6.727487402E1,-1.107876897E0,-7.752745152E0,-4.373481750E0
6.732487402E1,5.895316601E-1,-9.627223015E0,2.334796667E0
6.737487402E1,8.667102814E0,-1.346501160E1,5.334498882E0
6.742487402E1,1.974078640E-2,-1.578246021E1,5.648257732E0
6.747487402E1,1.669292927E0,-1.691964912E1,3.259024382E0
6.752487402E1,-1.749452472E0,-1.911027718E1,-9.245567322E0
6.757487402E1,-2.719143867E0,-1.646232033E1,1.130608678E0
6.762487402E1,-6.361917257E-1,-8.655138969E0,-1.857428551E0
6.767487402E1,2.191227436E0,-4.398606300E0,-1.253839016E0
6.772487402E1,4.544568539E0,-2.059622049E0,-2.422433853E0
6.777487402E1,-7.319046259E-1,4.304089844E-1,-2.704786777E0
6.782487402E1,-2.335993052E0,-1.918146491E0,4.060919285E0
6.787487402E1,-1.235534000E1,-3.251726151E1,1.149930763E1
6.792487402E1,-3.796512127E0,-3.249453068E0,5.629115105E0
6.797487402E1,-2.644966364E0,-1.878216171E1,-7.153044224E0
6.802487402E1,-4.780560493E0,-4.966004372E0,-3.803690672E0
6.807487402E1,5.286642551E0,-1.193031502E1,-8.168199539E0
6.812487402E1,7.379166126E0,-1.381226921E1,1.585544109E0
6.817487402E1,9.029914737E-1,-5.581258774E0,3.354737282E0
6.822487402E1,-3.741477251E0,-7.597211838E0,2.164906263E0
6.827487402E1,-2.048854351E0,-8.614460945E0,-8.398807645E-1
6.832487402E1,1.015753269E0,-8.126026154E0,-1.222732425E0
6.837487402E1,4.618745804E0,-1.227996540E1,4.846064091E0
6.842487402E1,3.290131092E0,-1.403001690E1,1.250249863E0
6.847487402E1,2.111666054E-1,-1.570588970E1,1.434497118E0
6.852487402E1,-2.288136721E0,-1.615364647E1,-1.361815214E0
6.857487402E1,-4.943272591E0,-1.708953857E1,-7.178468108E-1
6.862487402E1,-1.158126116E0,-1.316321659E1,-2.601895571E0
6.867487402E1,1.063609719E0,-5.921338558E0,-1.546062589E0
6.872487402E1,5.384748459E0,-2.732304335E0,-3.044866800E0
6.877487402E1,6.517450809E-1,-3.526422381E-1,-2.070389748E0
6.882487402E1,-1.280160069E0,-9.463613629E-1,-7.345965505E-1
6.887487402E1,-6.334100723E0,-1.134855938E1,1.189202976E1
6.892487402E1,-5.452644825E-1,-1.334537029E1,9.529116631E0
6.897487402E1,-3.162115097E0,-1.208614731E1,2.868695259E0
6.902487402E1,-4.849952221E0,-6.213263035E0,-1.008335495E1
6.907487402E1,2.694019079E0,-9.002396584E0,-8.347661018E0
6.912487402E1,3.778566122E0,-1.689572144E1,4.666602135E0
6.917487402E1,5.126323223E0,-7.393522739E0,8.503493667E-1
6.922487402E1,-3.310470104E0,-5.231607437E0,1.166501045E0
6.927487402E1,-3.985545158E0,-9.797113419E0,6.493522525E-1
6.932487402E1,-1.239482164E0,-8.521140099E0,-2.091925144E0
6.937487402E1,4.163810730E0,-1.240199947E1,3.615555048E0
6.942487402E1,7.812565804E0,-1.369232941E1,2.897409201E0
6.947487402E1,-4.495515525E-1,-1.463330650E1,4.575675011E0
6.952487402E1,-1.253839016E0,-1.603639793E1,4.890331328E-1
6.957487402E1,-4.306482315E0,-1.823151398E1,-6.932904720E0
6.962487402E1,-3.892225027E0,-1.398215961E1,-1.644168258E0
6.967487402E1,4.036991119E0,-3.529413462E0,-4.466801643E0
6.972487402E1,2.267797709E0,-4.439284325E0,-3.159722328E0
6.977487402E1,3.672982693E0,-1.003789067E0,-3.329612732E0
6.982487402E1,2.757728100E-1,-2.350948304E-1,-1.866999865E0
6.987487402E1,-3.612264872E0,-6.493522644E0,1.523898983E1
6.992487402E1,-8.087740541E-1,-1.962742615E1,1.066391277E1
6.997487402E1,-4.674977303E0,-1.165753269E1,1.201406384E1
7.002487402E1,-3.322434187E0,-4.728815556E0,-1.441436386E1
7.007487402E1,-1.238285750E-1,-1.083619690E1,-8.481658936E0
7.012487402E1,5.066503048E0,-1.632592964E1,2.471187592E0
7.017487402E1,5.406283855E0,-8.396714211E0,2.265404940E0
7.022487402E1,-1.651346684E0,-5.799005508E0,3.139084101E0
7.027487402E1,-3.581158161E0,-7.199704170E0,1.087537885E0
7.032487402E1,-2.437688112E-1,-9.368798256E0,-3.372683525E0
7.037487402E1,2.593221426E0,-1.047727299E1,4.113561153E0
7.042487402E1,6.507580280E0,-1.351286793E1,1.197607756E0
7.047487402E1,1.247856975E0,-1.599811268E1,6.232405663E0
7.052487402E1,4.866403043E-1,-1.606271935E1,2.914158821E0
7.057487402E1,-4.337589264E0,-1.891167450E1,-6.422934055E0
7.062487402E1,-3.853940010E0,-1.645753479E1,-1.821237087E0
7.067487402E1,9.966106415E-1,-8.042277336E0,-2.683251381E0
7.072487402E1,3.105584621E0,-3.924528122E0,-2.707179785E0
7.077487402E1,2.322832584E0,-1.437189102E0,-2.673680305E0
7.082487402E1,-1.512562990E0,-9.008977413E-1,-2.558824778E0
7.087487402E1,-1.632204175E0,-4.293322086E0,1.367797279E1
7.092487402E1,-5.426921844E0,-2.137029839E1,1.180588818E1
7.097487402E1,-3.547359467E0,-6.991229534E0,1.024726295E1
7.102487402E1,-3.408575773E0,-1.223689461E1,-1.348774338E1
7.107487402E1,-6.695715904E0,-8.111668587E0,2.607578516E0
7.112487402E1,6.502794743E0,-1.158574772E1,-6.384648800E0
7.117487402E1,8.293822289E0,-1.343151188E1,2.487937450E0
7.122487402E1,1.202393398E-1,-6.098407745E0,2.430509567E0
7.127487402E1,-2.987139940E0,-6.747161865E0,2.188834429E0
7.132487402E1,-2.257030010E0,-8.332107544E0,-3.245863914E0
7.137487402E1,3.260220885E-1,-9.246464729E0,5.383851007E-3
7.142487402E1,7.221239567E0,-1.250249863E1,6.318547249E0
7.147487402E1,9.678967595E-1,-1.621107483E1,1.274178028E0
7.152487402E1,1.341177106E0,-1.402283764E1,4.369892120E0
7.157487402E1,4.196412563E-1,-1.620389557E1,-9.362815857E0
7.162487402E1,-5.740381718E0,-1.977578163E1,-4.351946115E-1
7.167487402E1,-2.199602127E0,-1.217707443E1,-2.115853310E0
7.172487402E1,-8.829515576E-1,-6.368796349E0,-1.275673628E0
7.177487402E1,5.061717033E0,-3.220739365E0,-2.398505688E0
7.182487402E1,6.520441920E-2,4.187439568E-3,-7.057331085E0
7.187487402E1,-1.064806104E0,-2.638086975E-1,-6.481558084E-1
7.192487402E1,-1.254706478E1,-1.657986832E1,1.484626770E1
7.197487402E1,-2.796611488E-1,-1.308903885E1,7.316952705E0
7.202487402E1,-5.996712685E0,-9.385547638E0,6.591628075E0
7.207487402E1,-9.714859724E-1,-8.195716858E0,-1.019581699E1
7.212487402E1,-6.529414654E-1,-9.873982430E0,-6.195316792E0
7.217487402E1,4.937290192E0,-1.297657585E1,-9.954141974E-1
7.222487402E1,4.355535507E0,-1.038634586E1,3.534198999E0
7.227487402E1,-2.175673962E0,-6.012266159E0,4.411766827E-1
7.232487402E1,-2.235494614E0,-7.283452988E0,2.117049932E0
7.237487402E1,4.339981973E-1,-8.573782921E0,-4.414159775E0
7.242487402E1,2.588435888E0,-1.032861900E1,2.794517756E0
7.247487402E1,4.980361462E0,-1.194706440E1,3.302095175E0
7.252487402E1,3.885345757E-1,-1.603161240E1,4.403391838E0
7.257487402E1,2.670090914E0,-1.660140419E1,2.174477577E0
7.262487402E1,-1.605883121E0,-1.720469475E1,-8.955737114E0
7.267487402E1,-2.939283609E0,-1.594038582E1,6.732804775E-1
7.272487402E1,1.704886109E-1,-9.974481583E0,-1.701596022E0
7.277487402E1,1.178465128E0,-4.355535507E0,-3.528516054E0
7.282487402E1,3.462414265E0,-1.949253201E0,-2.539682150E0
7.287487402E1,-8.542376757E-1,-2.087737769E-1,-2.532503605E0
7.292487402E1,-1.182054400E0,-3.113062143E0,4.712066174E0
7.297487402E1,-8.464909554E0,-2.711127853E1,1.617757416E1
7.302487402E1,-6.625127792E-1,-3.531806231E0,6.390331745E0
7.307487402E1,-1.828415632E0,-1.502124310E1,-5.204389244E-2
7.312487402E1,-5.680561066E0,-6.273083687E0,-7.698906898E0
7.317487402E1,1.080359459E0,-8.490034103E0,-8.711668968E0
7.322487402E1,6.366403580E0,-1.556710625E1,1.901396751E0
7.327487402E1,4.273880482E0,-7.496414185E0,2.641077995E0
7.332487402E1,-2.127817631E0,-6.773482800E0,2.349153519E0
7.337487402E1,-2.991925716E0,-9.450154305E0,-6.337988973E-1
7.342487402E1,5.344967842E-1,-8.164609909E0,-1.217946768E0
7.347487402E1,5.317749023E0,-1.252642632E1,4.216452599E0
7.352487402E1,2.114656925E0,-1.556949902E1,2.394617319E0
7.357487402E1,3.194418192E0,-1.537538147E1,3.340380430E0
7.362487402E1,-9.308080077E-1,-1.558385563E1,-1.713560104E0
7.367487402E1,-5.829215050E0,-1.781755638E1,-2.968296528E0
7.372487402E1,-3.406183004E0,-1.111645603E1,8.195417374E-2
7.377487402E1,4.411766827E-1,-5.557330608E0,-2.335993052E0
7.382487402E1,5.126323223E0,-3.443271875E0,-1.016949654E0
7.387487402E1,1.111466169E0,-1.018146038E0,-1.656132340E0
7.392487402E1,-8.374879360E-1,-1.726720691E0,-5.859424472E-1
7.397487402E1,-6.839285374E0,-1.147298622E1,1.903131485E1
7.402487402E1,7.713862062E-1,-1.350329685E1,9.474081993E0
7.407487402E1,-4.835595608E0,-1.211007500E1,1.271306705E1
7.412487402E1,-4.249054909E0,-5.447260857E0,-1.152473164E1
7.417487402E1,4.366901144E-2,-1.322812176E1,-9.195318222E0
7.422487402E1,6.201299191E0,-1.370429325E1,1.429711580E0
7.427487402E1,4.846064091E0,-9.081359863E0,2.942872763E0
7.432487402E1,-1.593919039E0,-5.801398277E0,1.669292927E0
7.437487402E1,-2.230708838E0,-8.478069305E0,2.076072693E0
7.442487402E1,1.106680483E-1,-8.219644547E0,-6.505486369E-1
7.447487402E1,1.504188180E0,-9.643972397E0,1.872682810E0
7.452487402E1,5.423332691E0,-1.269183064E1,3.424129248E0
7.457487402E1,-3.969094455E-1,-1.536341667E1,3.594019651E0
7.462487402E1,3.033800125E0,-1.717119408E1,1.271785259E0
7.467487402E1,-2.605185509E-1,-1.772902107E1,-9.611669540E0
7.472487402E1,-4.500301361E0,-1.668515205E1,3.503092289E0
7.477487402E1,-6.457630396E-1,-1.033340454E1,-1.991426587E0
7.482487402E1,1.453639746E0,-5.176572800E0,-2.285743713E0
7.487487402E1,5.629115105E0,-1.843968987E0,-3.231507063E0
7.492487402E1,1.058824062E0,4.902295470E-1,-3.190829039E0
7.497487402E1,-6.744768620E-1,-1.786541224E0,1.396211982E0
7.502487402E1,-1.455554008E1,-3.044627571E1,1.496590900E1
7.507487402E1,-7.968099117E-1,-5.475974560E0,4.580460548E0
7.512487402E1,-3.746263027E0,-1.164796162E1,-2.087139606E0
7.517487402E1,-4.385445595E0,-9.545866966E0,-7.806583881E0
7.522487402E1,2.006680965E0,-9.746864319E0,-7.284649372E0
7.527487402E1,5.475974560E0,-1.457587910E1,5.703890920E-1
7.532487402E1,2.076371908E0,-7.017849922E0,2.873480797E0
7.537487402E1,-3.346362352E0,-5.889933109E0,2.830410004E0
7.542487402E1,-8.877372146E-1,-8.430212975E0,7.737790346E-1
7.547487402E1,1.805683732E0,-9.067003250E0,-3.657728434E0
7.552487402E1,3.541377544E0,-1.200209904E1,3.182155132E0
7.557487402E1,2.775375128E0,-1.310818195E1,1.875075698E0
7.562487402E1,-6.984050870E-1,-1.550489235E1,4.499104977E0
7.567487402E1,1.525723577E0,-1.594038582E1,2.334796667E0
7.572487402E1,-1.428814173E0,-1.690768433E1,-7.179365158E0
7.577487402E1,-2.376671076E0,-1.634028625E1,2.590230405E-1
7.582487402E1,-1.067198873E0,-8.700901031E0,-2.621038198E0
7.587487402E1,1.494616866E0,-3.723531246E0,-2.621038198E0
7.592487402E1,3.416950703E0,-2.011765718E0,-1.905285001E0
7.597487402E1,-2.198405862E-1,-3.981058598E-1,-2.587538481E0
7.602487402E1,-1.735095501E0,-4.051347733E0,7.125227451E0
7.607487402E1,-1.039232826E1,-3.060210800E1,1.204516983E1
7.612487402E1,-2.463111877E0,-4.290929317E0,5.291428089E0
7.617487402E1,-6.744768620E-1,-1.794198227E1,-3.825226068E0
7.622487402E1,-5.869893074E0,-5.361119270E0,-5.611168861E0
7.627487402E1,1.934896231E0,-8.935398102E0,-8.627920151E0
7.632487402E1,8.664710045E0,-1.522463322E1,1.827219248E0
7.637487402E1,1.882254124E0,-6.493522644E0,1.853540182E0
7.642487402E1,-2.759821892E0,-6.081657887E0,1.683649778E0
7.647487402E1,-1.761416554E0,-9.129216194E0,5.033900738E-1
7.652487402E1,6.972087026E-1,-8.250751495E0,-5.230710506E0
7.657487402E1,1.523330688E0,-1.196142101E1,3.960420609E0
7.662487402E1,5.284249783E0,-1.470748425E1,1.784148335E0
7.667487402E1,1.159322619E0,-1.420947838E1,5.650650501E0
7.672487402E1,9.631111473E-2,-1.387209034E1,2.696412086E0
7.677487402E1,-2.644966364E0,-1.897149467E1,-7.615158081E0
7.682487402E1,-3.542573929E0,-1.512652779E1,-1.943570137E0
7.687487402E1,-6.912266612E-1,-8.866005898E0,-2.994617462E0
7.692487402E1,2.787339211E0,-3.678067446E0,-2.683251381E0
7.697487402E1,3.060121059E0,-2.351546526E0,-1.924427629E0
7.702487402E1,-8.159525394E-1,-1.034895778E0,-1.998605132E0
7.707487402E1,-7.342974544E-1,-5.411368370E0,1.181306648E1
7.712487402E1,-6.980761051E0,-2.104248238E1,1.439851093E1
7.717487402E1,-1.014556766E0,-5.090431213E0,8.904291153E0
7.722487402E1,-4.471587181E0,-1.290957737E1,-5.280959606E0
7.727487402E1,-5.410171986E0,-9.354440689E0,-3.634099364E-1
7.732487402E1,4.544568539E0,-1.173888874E1,-5.216353416E0
7.737487402E1,7.676175117E0,-1.200688457E1,2.246262312E0
7.742487402E1,1.101894855E0,-6.136693001E0,6.684948206E-1
7.747487402E1,-2.520539522E0,-7.142276287E0,2.404188633E0
7.752487402E1,-1.385743380E0,-9.129216194E0,-7.992027402E-1
7.757487402E1,1.238285661E0,-7.166204929E0,-2.067996979E0
7.762487402E1,5.679364681E0,-1.217228889E1,3.553341627E0
7.767487402E1,1.288534999E0,-1.515524101E1,1.729113460E0
7.772487402E1,3.091227770E0,-1.428604889E1,3.026621580E0
7.777487402E1,-2.912962437E0,-1.600768471E1,1.654935956E0
7.782487402E1,-4.054936886E0,-1.637617874E1,-3.281756163E0
7.787487402E1,-1.129412293E0,-1.374497128E1,-4.447658956E-1
7.792487402E1,-8.757730722E-1,-6.996015072E0,-2.685644388E0
7.797487402E1,3.076870918E0,-2.983550787E0,-2.812463999E0
7.802487402E1,1.954038739E0,-1.250249863E0,-1.596311808E0
7.807487402E1,-5.285146832E-1,-1.439581871E0,-1.368993640E0
7.812487402E1,-2.283350945E0,-7.410272598E0,1.061844921E1
7.817487402E1,-3.133401155E0,-2.110469627E1,1.217198944E1
7.822487402E1,-1.431207061E0,-2.057229280E0,4.697709084E0
7.827487402E1,-3.664906979E0,-1.686940002E1,-5.582455158E0
7.832487402E1,-5.592026711E0,-6.653841496E0,-3.269792080E0
7.837487402E1,2.763411045E0,-9.624830246E0,-7.150651455E0
7.842487402E1,9.028717995E0,-1.433181095E1,1.836790442E0
7.847487402E1,1.008574724E0,-6.527021885E0,9.245268703E-1
7.852487402E1,-2.609073877E0,-7.053741932E0,2.044965982E0
7.857487402E1,-1.586740494E0,-9.131608963E0,-1.127019525E0
7.862487402E1,2.016252279E0,-8.018348694E0,-8.829515576E-1
7.867487402E1,5.877968788E0,-1.306032467E1,4.855635166E0
7.872487402E1,-1.190429255E-1,-1.555514145E1,2.464009047E0
7.877487402E1,3.237488985E0,-1.605554008E1,1.223928809E0
7.882487402E1,-2.424527645E0,-1.629003716E1,-3.530908823E0
7.887487402E1,-5.005486012E0,-1.648385620E1,1.575972795E0
7.892487402E1,-2.266601324E0,-1.190399361E1,-1.285244823E0
7.897487402E1,-5.093721151E-1,-5.954838276E0,-2.589931488E0
7.902487402E1,3.701696634E0,-2.368296146E0,-1.737488389E0
7.907487402E1,1.164108157E0,-1.082752228E0,-1.639382601E0
7.912487402E1,-1.459920883E0,-1.252642632E0,-7.079764009E-1
7.917487402E1,-7.593622684E0,-1.298136234E1,1.217677498E1
7.922487402E1,-2.533400953E-1,-1.376202011E1,8.738887787E0
7.927487402E1,-2.343171597E0,-1.514806271E1,7.932207108E0
7.932487402E1,-1.857129455E0,-1.674078584E0,-1.220937729E1
7.937487402E1,-3.219542980E0,-1.104706383E1,-8.290233612E0
7.942487402E1,6.905087948E0,-1.429801273E1,2.191227436E0
7.947487402E1,4.436891556E0,-8.803792953E0,3.031407118E0
7.952487402E1,-2.484647274E0,-6.141478539E0,2.715554714E0
7.957487402E1,-8.662018180E-1,-8.356036186E0,2.210369825E0
7.962487402E1,4.411766827E-1,-7.764709473E0,-3.765405416E0
7.967487402E1,1.250249863E0,-1.015633583E1,2.856731176E0
7.972487402E1,6.773482800E0,-1.304357529E1,1.848754644E0
7.977487402E1,4.507479668E-1,-1.422862053E1,6.232405663E0
7.982487402E1,1.046859860E0,-1.705364609E1,1.872682810E0
7.987487402E1,-7.896314859E-1,-1.722622871E1,-1.018146038E1
7.992487402E1,-3.410968781E0,-1.652931976E1,4.137489319E0
7.997487402E1,-6.161518395E-2,-9.833304405E0,-1.924427629E0
8.002487402E1,1.144965649E0,-4.817649364E0,-1.814058661E0
8.007487402E1,4.408177376E0,-2.327618122E0,-2.441576481E0
8.012487402E1,4.606183618E-2,4.232304990E-1,-1.833201289E0
8.017487402E1,-1.142572835E-1,-2.246262312E0,5.767899036E0
8.022487402E1,-1.160608673E1,-2.995783997E1,1.037647533E1
8.027487402E1,-4.414159775E0,-1.865504384E0,5.286642551E0
8.032487402E1,-2.740679264E0,-1.772184181E1,-7.940581799E0
8.037487402E1,-5.383851051E0,-6.957729816E0,-3.734298944E0
8.042487402E1,2.198405743E0,-9.517152786E0,-7.220043182E0
8.047487402E1,8.123632431E0,-1.514088440E1,4.100699723E-1
8.052487402E1,1.274178028E0,-5.889933109E0,3.850350618E0
8.057487402E1,-3.779762506E0,-6.974479675E0,1.520638824E0
8.062487402E1,-1.632204175E0,-8.894720078E0,-6.640082598E-2
8.067487402E1,2.614158690E-1,-7.673782349E0,-2.881855726E0
8.072487402E1,5.360819817E0,-1.321615791E1,4.331307888E0
8.077487402E1,2.088335991E0,-1.459741497E1,5.895316601E-1
8.082487402E1,-7.704889178E-1,-1.313210964E1,4.075275898E0
8.087487402E1,1.547258973E0,-1.532273865E1,1.245464206E0
8.092487402E1,-3.241078377E0,-1.670668793E1,-6.662216663E0
8.097487402E1,-3.461217880E0,-1.401565933E1,-1.945963025E0
8.102487402E1,1.341177106E0,-5.906981945E0,-2.625823736E0
8.107487402E1,3.100799084E0,-4.288536549E0,-2.137388945E0
8.112487402E1,1.604686737E0,-1.884646893E0,-1.881356835E0
8.117487402E1,-9.164510965E-1,-1.034895778E-1,-2.192423820E0
8.122487402E1,-3.971188307E0,-7.297810078E0,9.718150139E0
8.127487402E1,-9.260223508E-1,-2.044128609E1,1.222014523E1
8.132487402E1,-1.782951951E0,-4.755136967E0,4.228416920E0
8.137487402E1,-4.258625984E0,-1.281147194E1,-3.837190151E0
8.142487402E1,-4.045365810E0,-5.772684574E0,-2.413759828E-1
8.147487402E1,4.934897423E0,-1.314168072E1,-4.531407833E0
8.152487402E1,7.604091167E0,-1.169581795E1,2.148156643E0
8.157487402E1,-1.768594980E0,-5.966802597E0,2.212762833E0
8.162487402E1,-2.371885538E0,-8.063812256E0,1.149751306E0
8.167487402E1,-4.878367186E-1,-8.609675407E0,-1.962712765E0
8.172487402E1,1.173679471E0,-8.873184204E0,2.480758905E0
8.177487402E1,6.234798431E0,-1.240199947E1,3.795315742E0
8.182487402E1,-5.931209326E-1,-1.556710625E1,3.347558975E0
8.187487402E1,4.166203499E0,-1.679761505E1,3.273381472E0
8.192487402E1,-9.188438654E-1,-1.729562187E1,-8.953344345E0
8.197487402E1,-5.086842060E0,-1.751097488E1,2.777767897E0
8.202487402E1,-1.179661512E0,-9.203393936E0,-1.562812328E0
8.207487402E1,1.690828323E0,-4.286143780E0,-1.838286042E0
8.212487402E1,4.637888432E0,-2.011765718E0,-3.159722328E0
8.217487402E1,-7.597211748E-2,4.112663865E-1,-2.491825581E0
8.222487402E1,-6.625127792E-1,-1.657328725E0,3.074477911E0
8.227487402E1,-9.389137268E0,-3.121018410E1,1.213609695E1
8.232487402E1,-3.193221807E0,-3.290131092E0,5.490331650E0
8.237487402E1,-5.379065514E0,-2.030010986E1,-1.139551830E1
8.242487402E1,-5.927320957E0,-4.609174728E0,-1.888535261E0
8.247487402E1,4.930111885E0,-1.298614788E1,-6.643074036E0
8.252487402E1,9.833005905E0,-1.411855125E1,1.255035520E0
8.257487402E1,1.391426325E0,-5.109573841E0,4.838885784E0
8.262487402E1,-2.755036116E0,-7.185347080E0,-2.341975123E-1
8.267487402E1,-3.109472990E0,-9.347262383E0,-6.266204119E-1
8.272487402E1,1.415354609E0,-8.549854279E0,8.886345029E-1
8.277487402E1,4.954040051E0,-1.228235817E1,2.962015390E0
8.282487402E1,2.351546526E0,-1.515284824E1,7.881359458E-1
8.287487402E1,2.732304335E0,-1.381466198E1,3.603590965E0
8.292487402E1,-1.591526151E0,-1.706561089E1,-1.977069736E0
8.297487402E1,-4.967200756E0,-1.576570988E1,-4.607978344E0
8.302487402E1,-4.823631287E0,-1.248335552E1,-1.763809443E0
8.307487402E1,1.173679471E0,-6.811768055E0,-1.727917075E0
8.312487402E1,3.934099436E0,-3.471985579E0,-3.131008387E0
8.317487402E1,7.929216027E-1,-2.093121529E0,-1.627418518E0
8.322487402E1,-1.122233868E0,-8.312067389E-1,-2.142174482E0
8.327487402E1,-2.343171597E0,-7.056134701E0,2.158086777E1
8.332487402E1,-3.456432343E0,-1.966571236E1,1.154237843E1
8.337487402E1,-4.237090588E0,-5.071288586E0,8.289036751E0
8.342487402E1,-3.286541939E0,-1.446580887E1,-1.357388496E1
8.347487402E1,-3.727120399E0,-6.957729816E0,2.781656384E-1
8.352487402E1,6.167799473E0,-1.209571838E1,-4.890630245E0
8.357487402E1,6.320940018E0,-1.228953743E1,1.934896231E0
8.362487402E1,-1.232303619E0,-5.940481186E0,2.284547329E0
8.367487402E1,-2.606681108E0,-7.901100159E0,1.458425403E0
8.372487402E1,-4.016951025E-1,-8.140681267E0,-4.088735580E0
8.377487402E1,1.121037364E0,-1.011326504E1,1.381855130E0
8.382487402E1,6.814160824E0,-1.324008560E1,7.450950623E0
8.387487402E1,6.469594240E-1,-1.536102390E1,2.897409201E0
8.392487402E1,3.419343472E0,-1.607468414E1,1.858325839E0
8.397487402E1,-4.895416260E0,-1.864098549E1,-8.869595528E0
8.402487402E1,-5.718846321E0,-1.645753479E1,2.265404940E0
8.407487402E1,-1.476670623E0,-1.011805058E1,-8.350951076E-1
8.412487402E1,9.343972206E-1,-5.495117188E0,-1.931606054E0
8.417487402E1,5.703292847E0,-2.703590393E0,-2.285743713E0
8.422487402E1,2.111666054E-1,-1.657029688E-1,-1.830808401E0
8.427487402E1,-6.744768620E-1,-4.845465720E-2,-4.247260094E-2
8.432487402E1,-6.291029930E0,-1.083380318E1,1.595474339E1
8.437487402E1,6.637091637E-1,-1.549292850E1,9.124430656E0
8.442487402E1,-3.947260141E0,-1.587578011E1,2.899801970E0
8.447487402E1,-4.854738235E0,-3.527020693E0,-1.154626656E1
8.452487402E1,3.548556089E0,-1.196142101E1,-9.774680138E0
8.457487402E1,7.683353424E0,-1.713530159E1,1.250249863E0
8.462487402E1,1.765005827E0,-6.306583405E0,3.172583818E0
8.467487402E1,-2.956033230E0,-6.806982040E0,3.807279825E0
8.472487402E1,-2.156531334E0,-9.148359299E0,-2.041675806E0
8.477487402E1,1.448854089E0,-8.703293800E0,-1.589133382E0
8.482487402E1,5.566901684E0,-1.195663548E1,7.036693096E0
8.487487402E1,1.130608678E0,-1.514088440E1,3.464807272E0
8.492487402E1,7.163512707E-1,-1.547857189E1,5.458925724E0
8.497487402E1,1.800599098E-1,-1.674258041E1,-9.561420441E0
8.502487402E1,-4.421338081E0,-1.853091621E1,2.871088028E0
8.507487402E1,-2.101496458E0,-1.184177971E1,-9.427721500E-1
8.512487402E1,-1.333998591E-1,-5.471189022E0,-2.082353830E0
8.517487402E1,5.305785179E0,-1.808076620E0,-3.937688828E0
8.522487402E1,1.173679471E0,1.110269666E0,-2.781357288E0
8.527487402E1,-6.481558084E-1,-1.164108157E0,-8.015955687E-1
8.532487402E1,-1.471107388E1,-2.720220566E1,1.888983917E1
8.537487402E1,-1.375873014E-2,-7.156633377E0,8.279465675E0
8.542487402E1,-2.130210400E0,-1.807598114E1,2.155334949E0
8.547487402E1,-4.696811676E0,-3.958027840E0,-1.079192924E1
8.552487402E1,1.714756489E0,-9.134002686E0,-9.123234749E0
8.557487402E1,6.440581322E0,-1.774337769E1,3.812065601E0
8.562487402E1,4.185346127E0,-5.902195930E0,1.345962763E0
8.567487402E1,-3.018545866E0,-6.634698868E0,3.622733593E0
8.572487402E1,-3.085544825E0,-9.177073479E0,-3.753740489E-1
8.577487402E1,1.211964726E0,-8.289036751E0,-1.887338907E-1
8.582487402E1,5.827719688E0,-1.156899834E1,5.245964527E0
8.587487402E1,1.973181367E0,-1.547857189E1,2.648256540E0
8.592487402E1,2.382653236E0,-1.548575020E1,4.304986954E0
8.597487402E1,-1.246660590E0,-1.752293968E1,-7.768298626E0
8.602487402E1,-5.355136871E0,-1.790608978E1,2.212762833E0
8.607487402E1,-1.605883121E0,-1.159771252E1,-4.184448719E-1
8.612487402E1,8.647062778E-1,-6.146264076E0,-1.009771109E0
8.617487402E1,4.400999069E0,-2.442473650E0,-3.710370541E0
8.622487402E1,2.135594189E-1,1.591526151E0,-2.362314224E0
8.627487402E1,-3.768695518E-2,3.418745399E-1,-6.170491576E-1
8.632487402E1,-1.207777214E1,-2.345325089E1,2.095125580E1
8.637487402E1,-3.083750308E-1,-7.010372162E0,6.541079998E0
8.642487402E1,-2.367099762E0,-1.280907917E1,4.546961308E0
8.647487402E1,-3.566801310E0,-5.626722336E0,-1.001635551E1
8.652487402E1,1.417747378E0,-8.851649284E0,-8.790632248E0
8.657487402E1,4.240380764E0,-1.666361618E1,3.292523861E0
8.662487402E1,4.970789909E0,-7.106384277E0,6.756733060E-1
8.667487402E1,-2.161317110E0,-6.613163471E0,2.624328136E0
8.672487402E1,-2.434098721E0,-8.516354561E0,-1.910070658E0
8.677487402E1,-1.094716340E-1,-7.750352383E0,8.434699476E-2
8.682487402E1,6.505187511E0,-1.254796219E1,4.843671322E0
8.687487402E1,3.196810961E0,-1.392951775E1,8.958129883E-1
8.692487402E1,8.001000881E-1,-1.446820259E1,4.034597874E0
8.697487402E1,-1.501496136E-1,-1.658465385E1,4.049852192E-1
8.702487402E1,-4.270590305E0,-1.753729630E1,-5.153841019E0
8.707487402E1,-4.162913322E0,-1.346979713E1,-1.534098387E0
8.712487402E1,-8.949156404E-1,-7.178168774E0,-2.537289381E0
8.717487402E1,5.092823982E0,-3.519842148E0,-2.869891644E0
8.722487402E1,1.887039781E0,-2.590230405E-1,-1.742274046E0
8.727487402E1,-1.214357466E-1,4.519443810E-1,-1.696810365E0
8.732487402E1,-9.269495964E0,-1.452323723E1,1.969921112E1
8.737487402E1,4.100699723E-1,-1.142273712E1,7.819744587E0
8.742487402E1,-3.913760424E0,-1.376680565E1,-4.153341770E0
8.747487402E1,-4.054936886E0,-6.550950050E0,-1.014078236E1
8.752487402E1,3.610769272E0,-9.361619949E0,-9.899106979E0
8.757487402E1,5.483152866E0,-1.588295841E1,2.684448004E0
8.762487402E1,2.586043119E0,-7.108777046E0,2.598007202E0
8.767487402E1,-2.855534792E0,-6.699305058E0,2.198405743E0
8.772487402E1,-2.142174482E0,-8.375178337E0,-1.088734269E0
8.777487402E1,1.714756489E0,-8.047062874E0,-5.045864582E-1
8.782487402E1,5.880361557E0,-1.098245811E1,4.063312054E0
8.787487402E1,7.929216027E-1,-1.526291847E1,3.072085142E0
8.792487402E1,2.112264156E0,-1.567956829E1,3.852743626E0
8.797487402E1,-4.806582630E-1,-1.631635857E1,-7.940581799E0
8.802487402E1,-6.247959137E0,-2.023311043E1,2.595614433E0
8.807487402E1,-3.035893738E-1,-1.186810112E1,-1.040877819E0
8.812487402E1,-6.242275834E-1,-5.810969830E0,-1.840678811E0
8.817487402E1,3.972384691E0,-1.879861236E0,-3.396611691E0
8.822487402E1,1.544866085E0,1.213161111E0,-2.417648077E0
8.827487402E1,4.845465720E-2,-2.733799815E-1,7.977072597E-1
8.832487402E1,-1.563769436E1,-2.984059143E1,1.274417305E1
8.837487402E1,-2.190030813E0,-6.196513176E0,3.297309637E0
8.842487402E1,-6.387042046E0,-1.863619995E1,5.383851007E-3
8.847487402E1,-1.093519926E0,-3.433700562E0,-7.236793041E0
8.852487402E1,4.642673969E0,-1.094178009E1,-8.529515266E0
8.857487402E1,7.685746193E0,-1.572981739E1,2.784946442E0
8.862487402E1,1.621436477E0,-5.918945789E0,2.066501379E0
8.867487402E1,-3.691227913E0,-7.108777046E0,1.994716763E0
8.872487402E1,-5.245067120E0,-8.346464157E0,-1.100698471E0
8.877487402E1,1.444068432E0,-8.978468895E0,7.238288224E-2
8.882487402E1,7.079763889E0,-1.171496010E1,7.422236919E0
8.887487402E1,1.839183331E0,-1.534188175E1,1.089930773E0
8.892487402E1,1.171286702E0,-1.424297810E1,3.838386536E0
8.897487402E1,-7.597211748E-2,-1.664447403E1,-2.896212816E0
8.902487402E1,-5.920142174E0,-1.787019730E1,-2.625823736E0
8.907487402E1,-2.656930447E0,-1.283779240E1,-4.519443810E-1
8.912487402E1,-5.141577721E-1,-7.800601959E0,-1.514955878E0
8.917487402E1,4.147060871E0,-3.512663603E0,-2.908176899E0
8.922487402E1,1.616650820E0,5.667998791E-1,-2.259422779E0
8.927487402E1,2.542374134E-1,2.650051117E-1,-1.663310885E0
8.932487402E1,-7.875975609E0,-1.609861183E1,2.026900291E1
8.937487402E1,5.608177781E-1,-1.109252739E1,8.983254433E0
8.942487402E1,-3.554538012E0,-1.499013615E1,6.409474373E0
8.947487402E1,-3.162115097E0,-2.315654039E0,-1.245344543E1
8.952487402E1,2.117049932E0,-1.095613670E1,-1.034447098E1
8.957487402E1,5.253142834E0,-1.755643845E1,4.451248169E0
8.962487402E1,2.854338408E0,-6.591628075E0,2.480758905E0
8.967487402E1,-3.066402197E0,-6.527021885E0,3.148655415E0
8.972487402E1,-1.177268744E0,-8.751151085E0,-4.854438901E-1
8.977487402E1,1.494616866E0,-7.695317745E0,-2.170888424E0
8.982487402E1,4.664209366E0,-1.111884880E1,5.466403484E0
8.987487402E1,2.643769979E0,-1.393669605E1,1.164108157E0
8.992487402E1,-1.959123611E-1,-1.367318726E1,4.094418526E0
8.997487402E1,1.276570916E0,-1.706082535E1,2.454437733E0
9.002487402E1,-3.482753277E0,-1.661815262E1,-7.299006462E0
9.007487402E1,-3.116651535E0,-1.431506157E1,-1.651346684E0
9.012487402E1,-7.633104324E-1,-8.260322571E0,-1.507777333E0
9.017487402E1,3.184846878E0,-4.039383888E0,-1.479063511E0
9.022487402E1,2.382653236E0,-1.080359459E0,-2.589931488E0
9.027487402E1,-8.111668825E-1,-3.119642437E-1,-2.451147795E0
9.032487402E1,-1.933998942E0,-6.885945320E0,1.301486111E1
9.037487402E1,-1.586740494E0,-2.046521378E1,1.327328587E1
9.042487402E1,-4.622334957E0,-1.487767410E1,1.901396751E0
9.047487402E1,-4.653441906E0,-2.703590393E0,-1.278874016E1
9.052487402E1,-6.242275834E-1,-6.902695179E0,-6.023033619E0
9.057487402E1,5.952146530E0,-1.785584068E1,1.508674622E0
9.062487402E1,4.353142738E0,-7.707281590E0,2.581257343E0
9.067487402E1,-2.367099762E0,-6.335297108E0,1.441675663E0
9.072487402E1,-2.094317913E0,-8.705686569E0,-1.190429255E-1
9.077487402E1,-8.685946465E-1,-7.601997375E0,-2.374278307E0
9.082487402E1,3.021835804E0,-1.119781208E1,2.080858469E0
9.087487402E1,6.040979862E0,-1.222493076E1,3.548556089E0
9.092487402E1,1.310070395E0,-1.613928986E1,5.021039009E0
9.097487402E1,-3.050848842E-2,-1.689811325E1,1.118644595E0
9.102487402E1,-3.121437073E0,-1.755165291E1,-8.479266167E0
9.107487402E1,-3.889832258E0,-1.650060654E1,-1.069591761E0
9.112487402E1,3.909274042E-1,-8.344071388E0,-2.637787819E0
9.117487402E1,3.455235958E0,-3.637090445E0,-1.890928149E0
9.122487402E1,3.457628727E0,-9.726824164E-1,-2.542074919E0
9.127487402E1,-2.676970363E-1,-1.322034448E-1,-2.778964281E0
9.132487402E1,-2.032104731E0,-6.155835152E0,1.011087227E1
9.137487402E1,-4.995914459E0,-2.731257439E1,1.167188931E1
9.142487402E1,-3.827618837E0,-2.210369825E0,6.249155521E0
9.147487402E1,-3.751048565E0,-1.341236877E1,-9.815358162E0
9.152487402E1,-4.692026138E0,-7.716853142E0,-3.801597059E-1
9.157487402E1,5.428118229E0,-1.286172104E1,-4.054936886E0
9.162487402E1,6.292226315E0,-1.228235817E1,2.337189436E0
9.167487402E1,-8.255237937E-1,-5.679364681E0,1.341177106E0
9.172487402E1,-2.405385017E0,-7.283452988E0,1.769791484E0
9.177487402E1,1.896311939E-1,-8.997611046E0,-4.134199142E0
9.182487402E1,2.066800594E0,-9.352047920E0,2.229512453E0
9.187487402E1,5.928217888E0,-1.184417343E1,3.522234917E0
9.192487402E1,-1.052842021E0,-1.582792377E1,3.321237803E0
9.197487402E1,1.896611094E0,-1.662054634E1,1.767398596E0
9.202487402E1,-8.446664214E-1,-1.566521168E1,-5.673382282E0
9.207487402E1,-4.773382187E0,-1.568435383E1,6.086742878E-1
9.212487402E1,-2.221137524E0,-1.111645603E1,-1.617847204E0
9.217487402E1,3.092723191E-1,-5.727221012E0,-2.022533417E0
9.222487402E1,4.855635166E0,-2.543271303E0,-2.692822695E0
9.227487402E1,1.154536963E0,-5.368895531E-1,-1.565205097E0
9.232487402E1,6.520441920E-2,-1.518545032E0,-2.102692872E-1
9.237487402E1,-1.387567902E1,-2.557448769E1,2.188266182E1
9.242487402E1,-1.050449133E0,-8.092526436E0,7.572984695E0
9.247487402E1,-1.996212244E0,-1.586381626E1,4.932504654E0
9.252487402E1,-4.653441906E0,-4.099204063E0,-1.225484085E1
9.257487402E1,6.999006122E-2,-1.018026352E1,-7.794619560E0
9.262487402E1,5.250750065E0,-1.573460388E1,3.186940670E0
9.267487402E1,3.570091486E0,-7.242774963E0,1.985145450E0
9.272487402E1,-3.142972469E0,-6.984051228E0,2.289333105E0
9.277487402E1,-2.185245275E0,-8.530712128E0,8.048857450E-1
9.282487402E1,7.776673418E-3,-7.676175117E0,-3.971188307E0
9.287487402E1,2.258226395E0,-1.041984558E1,2.504687071E0
9.292487402E1,5.679364681E0,-1.202363491E1,2.868695259E0
9.297487402E1,8.982058167E-1,-1.459980774E1,4.182952881E0
9.302487402E1,2.404188633E0,-1.639532089E1,3.366701365E0
9.307487402E1,-1.972284079E0,-1.620150375E1,-9.020342827E0
9.312487402E1,-4.598406792E0,-1.738654900E1,2.234298229E0
9.317487402E1,-2.413759828E-1,-9.782755852E0,-1.153340459E0
9.322487402E1,8.312067389E-1,-5.073681355E0,-1.675274968E0
9.327487402E1,3.883850336E0,-2.638984203E0,-2.290529490E0
9.332487402E1,-4.112663865E-1,-4.483551383E-1,-2.142174482E0
9.337487402E1,-3.290131316E-2,-1.566401482E0,2.804089069E0
9.342487402E1,-9.817750931E0,-2.763799858E1,1.571306801E1
9.347487402E1,-2.554039001E0,-4.235894203E0,6.275476456E0
9.352487402E1,-5.651846886E0,-2.468375969E1,-8.002795219E0
9.357487402E1,-2.240280151E0,-7.570292354E-1,-6.580860615E0
9.362487402E1,-5.907281041E-1,-9.538688660E0,-9.616455078E0
9.367487402E1,7.321738243E0,-1.719751549E1,2.349153519E0
9.372487402E1,4.001098633E0,-6.493522644E0,2.478366137E0
9.377487402E1,-3.114258766E0,-7.065706253E0,1.669292927E0
9.382487402E1,-3.629014730E0,-9.067003250E0,-2.008176327E0
9.387487402E1,9.463613629E-1,-8.303393364E0,1.341177106E0
9.392487402E1,6.811768055E0,-1.235175037E1,8.228917122E0
9.397487402E1,9.583254457E-1,-1.455673695E1,2.253440619E0
9.402487402E1,3.076870918E0,-1.493270874E1,2.784946442E0
9.407487402E1,-6.768696904E-1,-1.708714676E1,-3.265006542E0
9.412487402E1,-5.084448814E0,-1.820997810E1,-1.352243900E0
9.417487402E1,1.657029688E-1,-1.182742310E1,-3.466601670E-1
9.422487402E1,-3.801597059E-1,-6.268298149E0,-2.187638044E0
9.427487402E1,5.418247700E0,-2.358724833E0,-3.554837227E0
9.432487402E1,4.794618487E-1,1.301695466E0,-2.247458696E0
9.437487402E1,-1.292124271E0,9.930213690E-1,-1.033699393E0
9.442487402E1,-8.534300804E0,-1.682632828E1,1.444427395E1
9.447487402E1,-2.796611488E-1,-1.002712345E1,8.956933022E0
9.452487402E1,-4.380660057E0,-1.389841080E1,2.880659342E0
9.457487402E1,-4.469194412E0,-7.072884560E0,-1.146969604E1
9.462487402E1,1.970788598E0,-8.739186287E0,-9.252745628E0
9.467487402E1,6.670591354E0,-1.691486359E1,1.743470430E0
9.472487402E1,4.546961308E0,-6.558128834E0,1.391426325E0
9.477487402E1,-3.052045345E0,-7.039385319E0,3.622733593E0
9.482487402E1,-2.201995134E0,-8.499605179E0,-6.074778438E-1
9.487487402E1,2.805584669E-1,-8.164609909E0,-2.218744755E0
9.492487402E1,5.312963486E0,-1.155464172E1,5.234000206E0
9.497487402E1,3.699303865E0,-1.539452362E1,1.934896231E0
9.502487402E1,1.257428288E0,-1.603879166E1,3.096013308E0
9.507487402E1,-3.224328518E0,-1.634507179E1,-5.534598827E0
9.512487402E1,-6.408577442E0,-1.805444527E1,1.111466169E0
9.517487402E1,-1.826022744E0,-1.219143105E1,-1.256231904E0
9.522487402E1,2.183450609E-1,-6.258726597E0,-1.318744421E0
9.527487402E1,4.211667061E0,-2.306082726E0,-3.123830080E0
9.532487402E1,7.307082415E-1,1.146162033E0,-2.144567251E0
9.537487402E1,-4.016951025E-1,-2.518445849E-1,-4.016951025E-1
9.542487402E1,-1.522822285E1,-2.467179680E1,1.732672691E1
9.547487402E1,-1.238285750E-1,-9.581759453E0,6.541079998E0
9.552487402E1,-2.936890602E0,-1.411615849E1,6.682555676E0
9.557487402E1,-3.322434187E0,-4.257429600E0,-1.217587757E1
9.562487402E1,2.709871531E-1,-8.612068176E0,-8.730812073E0
9.567487402E1,5.968895912E0,-1.698186302E1,3.381058455E0
9.572487402E1,3.649054527E0,-7.092027187E0,2.447259426E0
9.577487402E1,-3.521038532E0,-6.380760670E0,2.406581402E0
9.582487402E1,-3.131008387E0,-8.739186287E0,1.805683732E0
9.587487402E1,6.684948206E-1,-8.159824371E0,-5.798108578E0
9.592487402E1,1.372283816E0,-1.090319538E1,2.059323072E0
9.597487402E1,7.556234837E0,-1.244267750E1,4.446462631E0
9.602487402E1,1.592722535E0,-1.619671822E1,3.538984776E0
9.607487402E1,4.770690203E-1,-1.524856186E1,7.785646915E-1
9.612487402E1,-3.844368696E0,-1.789412498E1,-7.208079338E0
9.617487402E1,-4.739882469E0,-1.555514145E1,-1.103091240E0
9.622487402E1,1.357926846E0,-7.750352383E0,-2.987439156E0
9.627487402E1,4.422534466E0,-2.607877493E0,-3.832404613E0
9.632487402E1,3.256631613E0,-1.650150299E0,-1.840678811E0
9.637487402E1,-2.533400953E-1,4.710869491E-1,-2.522932291E0
9.642487402E1,-2.929712296E0,-5.004289627E0,1.154955673E1
9.647487402E1,-5.295316696E0,-2.382174492E1,1.068305588E1
9.652487402E1,-3.899403572E0,-2.418545485E0,7.517949581E0
9.657487402E1,-4.160520554E0,-1.729801369E1,-1.094536877E1
9.662487402E1,-4.105186462E0,-5.954838276E0,-3.346960545E-1
9.667487402E1,5.425725460E0,-1.095374393E1,-6.678966045E0
9.672487402E1,7.881958008E0,-1.378834152E1,1.999502420E0
9.677487402E1,-1.692921966E-1,-5.595615864E0,3.622733593E0
9.682487402E1,-3.018545866E0,-7.690532207E0,1.568794370E0
9.687487402E1,-1.359422326E0,-7.860422611E0,-3.032902718E0
9.692487402E1,2.933301449E0,-9.517152786E0,2.306082726E0
9.697487402E1,7.927421570E0,-1.233739376E1,4.496711731E0
9.702487402E1,-1.028913736E0,-1.557907009E1,3.491128206E0
9.707487402E1,2.466402054E0,-1.654846191E1,2.732304335E0
9.712487402E1,-1.263410330E0,-1.691007805E1,-8.522336960E0
9.717487402E1,-4.035794258E0,-1.781755638E1,2.727518797E0
9.722487402E1,-6.361917257E-1,-8.973683357E0,-1.086341500E0
9.727487402E1,8.264211416E-1,-4.427320004E0,-4.902295470E-1
9.732487402E1,4.767100811E0,-1.937289000E0,-3.391826153E0
9.737487402E1,-1.740778536E-1,6.361917257E-1,-2.884248495E0
9.742487402E1,-1.038485050E0,-1.975873351E0,1.398604870E0
9.747487402E1,-1.179272747E1,-2.824607468E1,1.587578011E1
9.752487402E1,-2.826820850E0,-3.287738323E0,7.369594574E0
9.757487402E1,-2.776571512E0,-2.150190353E1,-5.819643974E0
9.762487402E1,-4.031008720E0,-4.424927235E0,-3.736691713E0
9.767487402E1,4.745565414E0,-1.160249805E1,-7.818548203E0
9.772487402E1,6.797410965E0,-1.379073429E1,2.021037817E0
9.777487402E1,8.934201598E-1,-6.105586052E0,2.076072693E0
9.782487402E1,-2.829213619E0,-6.780661106E0,2.442473650E0
9.787487402E1,-2.800499916E0,-8.619246483E0,-1.878963947E0
9.792487402E1,2.215155602E0,-8.732007980E0,1.154536903E-1
9.797487402E1,5.169394016E0,-1.222971630E1,5.277071476E0
9.802487402E1,1.094716311E0,-1.520788383E1,2.040180445E0
9.807487402E1,3.404986620E0,-1.417837143E1,3.012264490E0
9.812487402E1,-6.361917257E-1,-1.541605854E1,-2.173281193E0
9.817487402E1,-4.950450897E0,-1.728126335E1,-2.611466885E0
9.822487402E1,-2.003390789E0,-1.246899891E1,-2.341975123E-1
9.827487402E1,8.673982322E-2,-7.060920715E0,-1.483849168E0
9.832487402E1,3.924528122E0,-3.697210073E0,-3.099901676E0
9.837487402E1,1.152144074E0,-2.303091735E-1,-2.420041084E0
9.842487402E1,-2.485544533E-1,-1.256231871E-2,-1.421635747E0
9.847487402E1,-8.690134048E0,-1.615604019E1,1.636900139E1
9.852487402E1,4.483551383E-1,-1.031904793E1,9.758828163E0
9.857487402E1,-3.367897987E0,-1.510020638E1,5.523830891E0
9.862487402E1,-4.512265205E0,-4.977968216E0,-1.135932732E1
9.867487402E1,7.956135273E-2,-7.743174076E0,-7.131508827E0
9.872487402E1,4.295415878E0,-1.663011742E1,4.087240219E0
9.877487402E1,6.399903297E0,-8.741579056E0,5.608177781E-1
9.882487402E1,-2.194816589E0,-6.732804775E0,2.672483683E0
9.887487402E1,-2.290529490E0,-8.202895164E0,1.183250785E0
9.892487402E1,-1.079162955E0,-7.824530125E0,-3.648157120E0
9.897487402E1,2.131406784E0,-1.050120163E1,2.559721947E0
9.902487402E1,6.739983082E0,-1.117866898E1,3.256631613E0
9.907487402E1,-5.189434290E-1,-1.604836273E1,7.343273640E0
9.912487402E1,1.429711580E0,-1.685743523E1,1.077966571E0
9.917487402E1,-3.906582117E0,-1.876780510E1,-7.306184769E0
9.922487402E1,-1.376172066E0,-1.728365707E1,-9.511470050E-2
9.927487402E1,7.259225845E-1,-8.516354561E0,-3.181257725E0
9.932487402E1,2.816053152E0,-3.709174156E0,-1.718345761E0
9.937487402E1,3.060121059E0,-3.646063507E-1,-3.513859987E0
9.942487402E1,-1.716850251E-1,7.989036441E-1,-2.506182671E0
9.947487402E1,-1.270588875E0,-5.464010715E0,8.602496147E0
9.952487402E1,-7.310970306E0,-2.869861794E1,1.262213898E1
9.957487402E1,-4.692026138E0,-3.821636915E0,6.620342255E0
9.962487402E1,-3.279363394E0,-1.240199947E1,-1.321974659E1
9.967487402E1,-6.101996899E0,-6.582056999E0,1.961217284E0
9.972487402E1,4.441677094E0,-1.269900894E1,-4.311268330E0
9.977487402E1,9.083752632E0,-1.279711437E1,1.391426325E0
9.982487402E1,-2.294118702E-1,-5.576473236E0,2.677269459E0
9.987487402E1,-3.379862070E0,-7.202096939E0,2.042573214E0
9.992487402E1,-1.390529037E0,-9.093324661E0,-1.220339537E0
9.997487402E1,1.879861236E0,-8.614460945E0,-4.830510616E-1
1.000248740E2,5.300999641E0,-1.179392338E1,6.352046967E0
1.000748740E2,8.838488460E-1,-1.549292850E1,-4.965107143E-2
1.001248740E2,1.214357495E0,-1.233021545E1,4.731208801E0
1.001748740E2,-1.119840980E0,-1.443470287E1,4.244269133E-1
1.002248740E2,-4.493122578E0,-1.846152306E1,-6.274280071E0
1.002748740E2,-2.194816589E0,-1.562931919E1,-1.155733347E0
1.003248740E2,1.597508192E0,-7.446165085E0,-3.095116138E0
1.003748740E2,3.067299604E0,-4.036991119E0,-7.800601721E-1
1.004248740E2,2.638984203E0,-6.110670567E-1,-2.276172638E0
1.004748740E2,-2.892324328E-1,-2.685943544E-1,-2.302493572E0
1.005248740E2,-1.165304661E0,-6.467201233E0,9.651150703E0
1.005748740E2,-4.957629204E0,-2.647209549E1,1.354158115E1
1.006248740E2,-3.384647608E0,-6.479165554E0,5.059324265E0
1.006748740E2,-2.941676378E0,-8.217251778E0,-1.128036404E1
1.007248740E2,-5.074877739E0,-7.733603001E0,3.548556089E0
1.007748740E2,6.131906986E0,-1.265115261E1,-2.800499916E0
1.008248740E2,6.933801651E0,-1.146102238E1,1.269392371E0
1.008748740E2,-1.866700768E0,-6.414260387E0,3.440878868E0
1.009248740E2,-2.316850424E0,-7.771887779E0,5.536393523E-1
1.009748740E2,-1.265803218E0,-8.250751495E0,-3.217149973E0
1.010248740E2,1.070788145E0,-1.046530914E1,1.200000525E0
1.010748740E2,8.219346046E0,-1.143230820E1,5.193322659E0
1.011248740E2,-1.002592683E0,-1.465244961E1,1.832004786E0
1.011748740E2,1.891825438E0,-1.584706593E1,5.131109238E0
1.012248740E2,9.152546525E-2,-1.656551170E1,-9.168996811E0
1.012748740E2,-5.216054440E0,-1.758754539E1,4.221238136E0
1.013248740E2,-2.843570709E0,-9.828518867E0,-4.328017831E-1
1.013748740E2,2.095514536E0,-5.662614822E0,-5.572285652E-1
1.014248740E2,4.331607342E0,-2.564806700E0,-2.683251381E0
1.014748740E2,1.322034448E-1,3.394817114E-1,-2.087139606E0
1.015248740E2,-1.088734269E0,-1.465902925E0,1.542473316E0
1.015748740E2,-1.069382381E1,-2.717109871E1,1.209063339E1
1.016248740E2,-3.241078377E0,-6.237191200E0,6.897909641E0
1.016748740E2,-2.151745796E0,-2.004407692E1,-4.261018753E0
1.017248740E2,-6.494719028E0,-3.220739365E0,-5.857928753E0
1.017748740E2,3.582055569E0,-1.185613728E1,-9.501599312E0
1.018248740E2,9.196215630E0,-1.567478275E1,1.063609719E0
1.018748740E2,1.564008713E0,-5.483152866E0,3.689732552E0
1.019248740E2,-2.374278307E0,-6.215655804E0,1.592722535E0
1.019748740E2,-3.080759048E0,-9.234500885E0,-9.068797827E-1
1.020248740E2,2.279163599E-1,-8.391927719E0,6.541379094E-1
1.020748740E2,6.241976738E0,-1.218185997E1,4.288237095E0
1.021248740E2,3.148655415E0,-1.488963795E1,-9.990034252E-2
1.021748740E2,2.327020019E-1,-1.467877007E1,5.028217793E0
1.022248740E2,-1.308874011E0,-1.583988762E1,-3.394218922E0
1.022748740E2,-4.692026138E0,-1.585424423E1,-2.869891644E0
1.023248740E2,-3.978366852E0,-1.433898926E1,-1.258624673E0
1.023748740E2,6.948158741E-1,-7.680960655E0,-1.589133382E0
1.024248740E2,5.121537685E0,-3.491128206E0,-2.802892685E0
1.024748740E2,9.726824164E-1,-6.397809386E-1,-1.931606054E0
1.025248740E2,-1.483849168E0,-1.020538807E0,-2.283350945E0
1.025748740E2,-7.741977692E0,-9.768399239E0,1.352004623E1
1.026248740E2,-1.775773525E0,-1.388405418E1,9.828220367E0
1.026748740E2,-8.925228715E-1,-7.929814339E0,4.068097591E0
1.027248740E2,-5.929713726E0,-1.314885998E1,-6.595217228E0
