"Time (s)","Linear Acceleration x (m/s^2)","Linear Acceleration y (m/s^2)","Linear Acceleration z (m/s^2)"
1.110813610E-1,-1.000961065E-1,-5.310440063E-1,-7.711915970E-1
1.610813610E-1,-6.169233322E-1,-1.653433800E0,-1.279860497E0
2.110813610E-1,-7.496855259E-1,2.316486835E-1,-2.221714020E0
2.610813610E-1,1.718685627E-1,-3.392025471E0,1.114605904E0
3.110813610E-1,-1.489258528E0,-2.224462032E0,-3.486680984E-1
3.610813610E-1,-1.010643363E0,3.597490788E-1,-2.151995659E0
4.110813610E-1,5.450856686E-1,7.368505001E-1,-1.619633675E0
4.610813610E-1,3.318632841E-1,9.988725185E-1,-1.650074005E0
5.110813610E-1,3.361546993E-1,1.046221256E0,8.157196045E-1
5.610813610E-1,-8.060681820E-1,8.836550713E-1,-1.455888748E-1
6.110813610E-1,7.973508835E-1,1.479651451E0,1.421490669E0
6.610813610E-1,1.397843361E0,1.447230816E0,6.536340714E-1
7.110813610E-1,2.532545567E0,2.180731297E-1,2.781502724E0
7.610813610E-1,1.865306377E0,-1.042803764E0,-4.840278625E-2
8.110813610E-1,-1.874585152E-1,-1.812605381E0,-1.575819492E0
8.610813610E-1,-2.927813530E-1,-2.004135132E0,-2.163520336E0
9.110813610E-1,-1.159850836E0,-3.724890232E0,-3.198724747E0
9.610813610E-1,-1.406678200E0,-4.453898907E0,-3.203261137E0
1.011081361E0,-7.483673096E-2,-6.402964592E0,-3.948719025E0
1.061081361E0,2.534436226E0,-2.671606302E0,6.444554329E-1
1.111081361E0,4.195700645E0,1.538492203E0,5.505934238E0
1.161081361E0,2.992499352E0,3.765809059E0,5.098472595E0
1.211081361E0,5.740565300E0,2.734627247E0,6.167003632E0
1.261081361E0,5.433205605E0,2.354269981E0,1.239415169E0
1.311081361E0,4.394396782E0,2.058375359E0,-8.932031393E-1
1.361081361E0,-1.827517033E0,5.846138000E-1,1.552130461E0
1.411081361E0,1.940673828E0,1.718687534E0,2.764236927E0
1.461081361E0,1.418530464E0,1.409541130E0,-3.363730907E-1
1.511081361E0,-3.522233009E0,4.745054245E-1,-2.466125965E0
1.561081361E0,-3.222674370E0,2.391579390E0,2.231390476E-1
1.611081361E0,-3.575709343E0,2.356941223E0,1.897070169E0
1.661081361E0,-7.466211319E-1,1.127002716E0,1.920409441E0
1.711081361E0,7.151963234E0,-3.286852837E-1,2.450491667E0
1.761081361E0,-1.834330559E-1,-1.012817383E0,5.239194393E0
1.811081361E0,-4.101756096E0,-2.695115089E0,-6.103510857E0
1.861081361E0,5.150856972E-1,-8.696727753E-1,-1.545648575E-1
1.911081361E0,-2.049676418E0,-2.275418282E0,-4.190230370E0
1.961081361E0,7.265005112E-1,2.849884987E0,-5.324064255E0
2.011081361E0,-1.740437508E0,1.549924374E0,-1.332692742E0
2.061081361E0,-1.192073822E0,3.840477943E0,1.290486336E0
2.111081361E0,-1.082329750E-1,1.813835144E0,4.055570364E-1
2.161081361E0,-6.933908463E-1,4.701287270E0,-2.714241743E-1
2.211081361E0,5.490033627E-1,1.014069557E0,1.237963676E0
2.261081361E0,1.604958057E0,-1.985423088E0,9.581509233E-1
2.311081361E0,3.961630821E0,-4.223601341E0,4.568227291E0
2.361081361E0,5.398039341E0,-6.669796944E0,3.647674084E0
2.411081361E0,2.117060184E0,5.275726318E-3,4.672003746E0
2.461081361E0,-2.755015850E0,2.258268356E0,-2.651720047E0
2.511081361E0,-1.694499850E0,9.285392761E-1,5.536609173E0
2.561081361E0,1.160143614E-1,-6.957997322E0,1.145944595E-1
2.611081361E0,6.860306263E-1,1.236136246E1,-4.364710331E0
2.661081361E0,3.022943020E0,5.018751621E0,-8.129344940E0
2.711081361E0,1.982719421E0,5.074990273E0,-3.420311928E0
2.761081361E0,1.681619287E0,4.523111343E0,-1.950738907E0
2.811081361E0,-1.303261280E0,-3.213498116E0,1.303202057E1
2.861081361E0,-1.616150737E0,-3.496244431E0,6.315131187E-1
2.911081361E0,-2.840191364E0,-6.684138298E0,-1.764438391E0
2.961081361E0,-3.076119184E0,2.040863037E-2,-8.317421913E0
3.011081361E0,4.276563644E0,-3.737678528E-1,-1.034315586E1
3.061081361E0,2.845859051E0,-1.456592560E0,-1.164491177E-1
3.111081361E0,-9.742068648E-1,-3.321228027E-1,-1.509893417E0
3.161081361E0,-8.684939146E-2,3.186913013E0,1.826667786E0
3.211081361E0,5.331334472E-1,2.307009697E0,9.727173448E-1
3.261081361E0,5.192514658E-1,1.089372635E0,4.938346744E-1
3.311081361E0,-6.370300055E-2,1.104011536E0,-7.413935661E-2
3.361081361E0,2.266176939E0,-1.694828987E0,5.716679096E0
3.411081361E0,6.162732601E0,-3.771080971E0,4.011124611E0
3.461081361E0,4.234534740E0,-7.266811371E0,8.973693848E0
3.511081361E0,-4.107530713E-1,-6.259539604E0,9.984000325E-1
3.561081361E0,-2.949429035E0,-7.118371964E0,-4.450329304E0
3.611081361E0,2.355717421E0,-4.162386894E0,-1.686095715E0
3.661081361E0,-2.032279730E0,1.885931969E0,-6.915647507E0
3.711081361E0,-8.144724369E-2,5.285177708E0,-5.858150482E0
3.761081361E0,-4.508292675E-1,5.284525394E0,-5.169288635E0
3.811081361E0,-2.329167843E0,6.423655510E0,-5.785493851E0
3.861081361E0,-7.517828941E-1,1.962486267E0,1.895790100E-1
3.911081361E0,4.375612736E0,-1.033183861E1,1.153734779E1
3.961081361E0,-1.121293306E0,1.836913109E0,2.111711264E0
4.011081361E0,1.816813588E0,-8.084527016E0,3.431820154E0
4.061081361E0,-4.245429993E0,1.997373581E0,-8.140657425E0
4.111081361E0,1.055078983E0,1.187152863E-1,-1.145986557E1
4.161081361E0,-2.602216721E0,2.447643280E-1,-3.039693832E-1
4.211081361E0,-6.006436348E-1,1.284079552E0,-1.062957644E0
4.261081361E0,1.583879709E0,1.339754105E0,5.505561233E-1
4.311081361E0,-1.338831186E0,-1.285645485E0,3.217608929E0
4.361081361E0,9.176096916E-1,5.038709641E-1,9.057259560E-1
4.411081361E0,1.556004286E0,2.678399563E0,-1.727371693E0
4.461081361E0,2.321320057E0,-2.022629738E0,5.075407028E0
4.511081361E0,6.365349293E0,-2.991365433E0,7.411619186E0
4.561081361E0,6.582699418E-1,-4.793597221E0,8.433753967E0
4.611081361E0,3.535646915E0,-5.531908989E0,3.755942822E0
4.661081361E0,-5.988956094E-1,-8.425544739E0,-8.713717461E0
4.711081361E0,-2.242213249E0,-5.127828598E0,-1.785661817E0
4.761081361E0,-2.040127039E0,1.448419571E0,-4.100480080E0
4.811081361E0,2.417246342E0,6.197320938E0,-5.010832310E0
4.861081361E0,3.925071716E0,6.951079369E0,-5.824150562E0
4.911081361E0,8.985712528E-1,6.887145042E0,-6.824987411E0
4.961081361E0,5.254468918E-1,3.870655060E0,1.266121864E0
5.011081361E0,-2.911813498E0,-1.944612503E1,6.978352070E0
5.061081361E0,-2.793355227E0,4.863934994E0,-1.059182644E0
5.111081361E0,-3.331373215E0,-5.004064560E0,-6.355852127E0
5.161081361E0,-3.397860765E0,-2.513237000E-1,-8.623580933E0
5.211081361E0,5.688062668E0,-1.477737427E-1,-1.179305267E1
5.261081361E0,4.988771915E0,-4.279869080E0,8.220958710E-2
5.311081361E0,2.736928940E0,3.118620396E0,6.809867024E-1
5.361081361E0,-2.723465443E0,2.323019505E0,2.708181143E0
5.411081361E0,-2.795293331E0,7.162818909E-1,2.665797710E0
5.461081361E0,-2.273041010E-2,1.813203812E0,-2.742034435E0
5.511081361E0,3.749765873E0,-2.465061188E0,6.311796188E0
5.561081361E0,6.832354069E0,-1.665280342E0,6.268887043E0
5.611081361E0,3.899176598E0,-5.011470795E0,6.210634232E0
5.661081361E0,8.246238828E-1,-6.360723495E0,5.827507019E0
5.711081361E0,-1.367888689E0,-6.373947144E0,-8.025212288E0
5.761081361E0,-4.005947113E0,-7.125440598E0,2.969007492E-1
5.811081361E0,6.775507927E-1,-5.510816574E-1,-5.806559563E0
5.861081361E0,-2.784489393E-1,3.687294006E0,-5.619069099E0
5.911081361E0,3.948037624E0,5.280458450E0,-6.606086254E0
5.961081361E0,5.172920227E-1,7.013813496E0,-6.608188152E0
6.011081361E0,3.295108080E-1,5.869617462E0,-5.027552605E0
6.061081361E0,-7.426361084E0,-8.353354454E0,1.003450584E1
6.111081361E0,3.316527843E0,-4.152922630E0,4.220783234E0
6.161081361E0,-6.647051811E0,-4.330849648E0,2.861608982E0
6.211081361E0,-2.219922543E0,6.830403328E0,-1.784768867E1
6.261081361E0,6.971111774E0,-2.031357765E0,-8.379720688E0
6.311081361E0,3.465741158E0,-4.341942787E0,3.018015862E0
6.361081361E0,1.251380682E0,1.158967018E0,-8.161187172E-2
6.411081361E0,-1.823393703E-1,1.331257820E0,-1.368643284E0
6.461081361E0,-3.048913777E-1,7.999429703E-1,2.298720598E0
6.511081361E0,-2.068387747E0,1.523783684E0,-3.068126738E-1
6.561081361E0,2.261780262E0,1.048271179E0,8.938465714E-1
6.611081361E0,1.464293838E0,-1.708118439E0,5.201498032E0
6.661081361E0,3.696632862E0,-3.472066879E0,6.516345024E0
6.711081361E0,-5.194159746E-1,-5.488790512E0,8.765385628E0
6.761081361E0,1.639672041E0,-5.596502304E0,4.817693710E0
6.811081361E0,-9.588876367E-1,-4.770096779E0,-6.528643608E0
6.861081361E0,-6.241163015E-1,-3.810818672E0,-7.605459690E-1
6.911081361E0,-2.502232552E0,-6.862449646E-2,-5.671114922E0
6.961081361E0,2.408082962E0,4.341613770E0,-6.460527897E0
7.011081361E0,1.570277691E0,6.337273598E0,-5.747900963E0
7.061081361E0,-4.425313473E-1,5.461062431E0,-4.093930244E0
7.111081361E0,1.109868288E0,2.931907654E0,-1.405557632E0
7.161081361E0,-2.897184372E0,-8.570827484E0,9.149213791E0
7.211081361E0,-1.894587517E0,-6.864004135E-1,4.617259026E0
7.261081361E0,1.056021810E0,-7.534005165E0,-4.005331993E0
7.311081361E0,-4.196751595E0,4.443127155E0,-1.156352806E1
7.361081361E0,1.484595418E0,-2.006140709E0,-7.515360832E0
7.411081361E0,5.852688313E0,-1.946797371E0,1.213858843E0
7.461081361E0,1.544059753E0,3.607769012E-1,-2.359533310E0
7.511081361E0,-2.303035736E0,2.139315605E0,2.624057293E0
7.561081361E0,-2.112450123E0,2.609082699E0,2.830324173E0
7.611081361E0,1.896969557E0,7.928085327E-2,-1.276434660E0
7.661081361E0,2.110318661E0,2.757911682E-1,2.039398193E0
7.711081361E0,1.815837026E0,8.563671112E-1,4.060097218E0
7.761081361E0,8.080219030E-1,-1.671954155E0,6.142828941E0
7.811081361E0,-9.404402375E-1,-4.664186478E0,7.874798298E0
7.861081361E0,1.265687227E0,-4.497441292E0,-6.969539642E0
7.911081361E0,1.060401797E-1,-3.793874741E0,1.210599422E0
7.961081361E0,-2.973356962E0,-2.890425682E0,-2.648255348E0
8.011081361E0,-3.244899273E0,1.892357349E0,-2.386175632E0
8.061081361E0,-1.989949107E0,3.063654423E0,-2.679413795E0
8.111081361E0,-8.623499274E-1,3.014954567E0,-4.869523525E0
8.161081361E0,-6.076369882E-1,2.779900551E0,-2.100954771E0
8.211081361E0,1.027580619E0,2.329471111E0,9.765696526E-1
8.261081361E0,1.509401083E0,3.012604713E0,1.464229393E1
8.311081361E0,-9.962500334E-1,-4.579304695E0,6.461787224E0
8.361081361E0,-1.920469046E0,-7.422438622E0,2.804713011E0
8.411081361E0,-3.090467453E0,4.573421478E0,-1.245617962E1
8.461081361E0,-1.462562680E0,4.089384079E-1,-3.845803976E0
8.511081361E0,6.148905277E0,-4.131723404E0,-4.551380157E0
8.561081361E0,8.496772766E0,1.340866089E-1,6.856459379E-1
8.611081361E0,-6.210454702E-1,2.601866722E0,4.069526672E0
8.661081361E0,-1.036826372E0,1.610458374E0,2.848699570E0
8.711081361E0,-1.690518558E-1,4.237031937E-1,1.132761002E0
8.761081361E0,-8.335760236E-1,-1.113977432E-1,1.824352741E-1
8.811081361E0,1.634693027E0,-3.880992889E0,6.215196609E0
8.861081361E0,5.935069084E0,-4.685382843E0,8.001664162E0
8.911081361E0,3.643779516E0,-8.332945824E0,5.516586304E0
8.961081361E0,-8.687412143E-1,-2.626958847E0,-2.949933052E0
9.011081361E0,-3.154476166E0,-9.339838028E0,-3.777865410E0
9.061081361E0,-2.228119135E0,-1.899325371E0,-4.858017921E0
9.111081361E0,-1.278461814E-1,2.384197712E0,-5.277276993E0
9.161081361E0,4.072634697E0,5.402842522E0,-6.880983353E0
9.211081361E0,2.681347132E0,6.992412567E0,-7.494325638E0
9.261081361E0,1.117655277E0,7.231428146E0,-6.349828720E0
9.311081361E0,-5.109764576E0,-3.152170181E-1,1.213351059E1
9.361081361E0,4.039399624E-1,-7.741260529E0,7.786887169E0
9.411081361E0,-2.546810627E0,1.757970810E0,5.195888519E0
9.461081361E0,-1.255290508E0,-1.439130783E0,-1.377807617E1
9.511081361E0,8.201914430E-1,-1.095694542E0,-8.559694290E0
9.561081361E0,5.219542503E0,-4.770174980E0,-5.003855705E0
9.611081361E0,6.152042389E0,-1.120491028E0,9.663891792E-1
9.661081361E0,-1.970580101E0,3.806644917E0,3.269046068E0
9.711081361E0,-3.312807322E0,1.994204521E0,3.872988224E0
9.761081361E0,-3.737969697E-1,1.108666420E0,-1.515250683E0
9.811081361E0,3.253943682E0,-3.054988861E0,3.594608545E0
9.861081361E0,7.044881344E0,-2.930074692E0,7.841492653E0
9.911081361E0,9.447367787E-1,-6.296707153E0,6.862564564E0
9.961081361E0,1.982787848E0,-6.475985527E0,4.829950809E0
1.001108136E1,-8.356361389E-1,-7.021318436E0,-8.139081955E0
1.006108136E1,-4.786891460E0,-7.325621605E0,9.390816689E-1
1.011108136E1,1.189707041E0,-2.213878632E-1,-5.473557472E0
1.016108136E1,1.975790262E0,4.600439072E0,-5.745269775E0
1.021108136E1,5.386651993E0,6.283489227E0,-8.176581383E0
1.026108136E1,1.328028440E0,7.634582520E0,-7.931579590E0
1.031108136E1,1.852664948E-1,5.926576614E0,-7.068979740E-1
1.036108136E1,-1.348049068E1,-2.277591324E1,1.038789845E1
1.041108136E1,6.060523987E-1,6.286192417E0,6.140885353E-1
1.046108136E1,-4.190393925E0,-6.866785049E0,-9.882935524E0
1.051108136E1,-1.682467222E0,2.072808266E0,-8.466299057E0
1.056108136E1,6.894679070E0,-1.522412300E0,-1.014101696E1
1.061108136E1,6.177684307E0,-3.319884300E0,6.573152542E-1
1.066108136E1,1.577793121E0,2.936589718E0,2.166882038E0
1.071108136E1,-4.188343048E0,1.891981125E0,3.069484234E0
1.076108136E1,-2.093756199E0,1.010286331E0,4.731285572E-2
1.081108136E1,1.730166316E0,5.784816742E-1,-8.268218040E-1
1.086108136E1,5.871793270E0,-3.010498047E0,8.790281296E0
1.091108136E1,1.195603132E0,-7.685726166E0,5.431941986E0
1.096108136E1,1.802256107E0,-3.522478104E0,8.026009560E0
1.101108136E1,3.301035643E0,-6.162440300E0,-5.423196554E-1
1.106108136E1,-3.322099924E0,-6.911737442E0,-6.911328316E0
1.111108136E1,-4.600605011E0,-3.610352516E0,-3.942820549E0
1.116108136E1,-7.782170773E-1,2.534851074E0,-5.745488167E0
1.121108136E1,4.905043125E0,4.823056221E0,-7.303091049E0
1.126108136E1,3.298658371E0,6.270487309E0,-6.933738232E0
1.131108136E1,1.254892111E0,7.862140179E0,-6.352367401E0
1.136108136E1,-9.043416023E0,-7.332593918E0,1.516636753E1
1.141108136E1,1.763024688E0,-4.582555771E0,6.219126701E0
1.146108136E1,-2.972663641E0,-1.522062302E0,-2.397587299E0
1.151108136E1,-3.299924850E0,-5.417633057E-2,-1.263088894E1
1.156108136E1,2.599737644E0,6.623926163E-1,-1.080955601E1
1.161108136E1,4.242593765E0,-5.986138344E0,-4.528880119E-1
1.166108136E1,5.736718178E0,1.617865562E0,-1.823495626E-1
1.171108136E1,-2.341973305E0,2.753339767E0,4.183546543E0
1.176108136E1,-2.558855534E0,1.489057541E0,1.014350653E0
1.181108136E1,-3.915010393E-2,1.473598480E0,-6.410515308E-1
1.186108136E1,4.463178158E0,-2.793526649E0,5.686648369E0
1.191108136E1,5.185132980E0,-4.739999771E0,5.515263081E0
1.196108136E1,8.325064778E-1,-6.041728020E0,1.002622986E1
1.201108136E1,5.876972079E-1,-6.571986198E0,2.178068876E0
1.206108136E1,-2.848000050E0,-7.172667503E0,-7.751304150E0
1.211108136E1,-3.657693624E0,-6.394824028E0,-2.845169783E0
1.216108136E1,-2.340075672E-1,1.501515388E0,-6.801186562E0
1.221108136E1,4.326765537E0,4.238739491E0,-7.484638214E0
1.226108136E1,3.809206486E0,7.586752892E0,-7.093274117E0
1.231108136E1,1.267632365E0,7.693189144E0,-7.984821320E0
1.236108136E1,-2.345402241E-1,3.364797592E0,4.863495827E0
1.241108136E1,-8.707229614E0,-2.177350998E1,1.135212231E1
1.246108136E1,-2.623478413E0,4.216581345E0,-1.859954834E0
1.251108136E1,3.462456465E-1,-5.358799934E0,-1.499236298E1
1.256108136E1,-1.458603978E0,4.007836819E0,-9.216449738E0
1.261108136E1,4.857488632E0,-4.634655952E0,-1.216466331E1
1.266108136E1,6.318205357E0,-3.747635841E0,5.260448456E-1
1.271108136E1,2.426663160E0,3.301835060E0,-7.242798805E-3
1.276108136E1,-2.401656866E0,3.037560463E0,2.697830915E0
1.281108136E1,-3.725658894E0,2.586784363E-1,5.141602159E-1
1.286108136E1,2.778790474E0,1.994693756E0,2.031856298E0
1.291108136E1,5.604186535E0,-2.827703476E0,4.116363049E0
1.296108136E1,5.350957394E0,-5.500237465E0,4.711673737E0
1.301108136E1,1.022883177E0,-4.907425880E0,6.978731155E0
1.306108136E1,-4.670410752E-1,-4.511958122E0,3.784881592E0
1.311108136E1,-2.073399544E0,-7.638871193E0,-7.606288433E0
1.316108136E1,-3.983436108E0,-7.656874657E0,-9.305180311E-1
1.321108136E1,2.830404043E0,5.049076080E-1,-4.701718807E0
1.326108136E1,4.077425957E0,4.504359245E0,-4.173005581E0
1.331108136E1,4.583046436E0,6.660483360E0,-7.424749374E0
1.336108136E1,1.457422137E0,7.574375153E0,-8.013563156E0
1.341108136E1,1.130870581E-1,4.863127708E0,-1.490761042E0
1.346108136E1,-1.309386158E1,-2.234162521E1,9.019812584E0
1.351108136E1,8.050203323E-2,2.539507866E0,1.588859081E0
1.356108136E1,-1.683884501E0,-5.940151215E0,5.783958435E-1
1.361108136E1,-2.553124428E0,2.992845058E0,-1.325440788E1
1.366108136E1,2.042459726E0,-7.838363647E-1,-1.240275764E1
1.371108136E1,4.262611389E0,-5.629338264E0,1.730366945E0
1.376108136E1,5.432243824E0,1.398086548E0,-9.388702512E-1
1.381108136E1,-2.577636242E0,3.265769958E0,3.924826145E0
1.386108136E1,-2.273356915E0,9.285745621E-1,1.360710144E0
1.391108136E1,4.340063035E-1,7.084684372E-1,-1.429363966E0
1.396108136E1,3.077508926E0,-1.328973770E0,4.554174423E0
1.401108136E1,5.020265102E0,-3.034721375E0,5.303239346E0
1.406108136E1,4.386652946E0,-7.358733177E0,6.668063164E0
1.411108136E1,1.455178738E0,-6.257205963E0,4.741339684E0
1.416108136E1,-2.877753735E0,-7.323567390E0,-8.490110397E0
1.421108136E1,-4.236004353E0,-6.189867020E0,9.610674381E-1
1.426108136E1,1.108174205E0,-3.087673187E-1,-6.193911552E0
1.431108136E1,2.142095566E0,3.836355686E0,-4.543612003E0
1.436108136E1,4.751326561E0,5.454053879E0,-7.238223553E0
1.441108136E1,5.786372423E-1,6.942587376E0,-7.534371853E0
1.446108136E1,5.866106153E-1,6.076099396E0,-9.222931862E-1
1.451108136E1,-1.016292286E1,-1.774888611E1,1.161802101E1
1.456108136E1,1.644603014E-1,2.046567917E0,1.935086727E0
1.461108136E1,-3.625166178E0,-8.877212524E0,-6.029172897E0
1.466108136E1,-2.577016830E0,4.514377594E0,-1.205853844E1
1.471108136E1,2.384999990E0,-1.372066498E0,-1.310449028E1
1.476108136E1,6.348205090E0,-5.476898193E0,2.750802040E-1
1.481108136E1,3.570833921E0,2.168030262E0,1.229923248E0
1.486108136E1,-2.651201010E0,2.633413315E0,2.333490610E0
1.491108136E1,-2.640149355E0,8.877820969E-1,2.343642712E-1
1.496108136E1,-2.680985630E-1,1.312358856E0,1.177500486E-1
1.501108136E1,4.546873569E0,-1.770173073E0,4.979405880E0
1.506108136E1,5.751270294E0,-4.820903778E0,4.860414982E0
1.511108136E1,1.395843267E0,-6.645755768E0,8.941303253E0
1.516108136E1,1.256720662E0,-5.243180275E0,1.778296590E0
1.521108136E1,-3.206650734E0,-6.776428223E0,-7.509731293E0
1.526108136E1,-4.189187527E0,-5.190634727E0,-1.839380026E0
1.531108136E1,-3.761638999E-1,3.765945435E-1,-5.578992844E0
1.536108136E1,3.347707510E0,4.181611061E0,-5.803160191E0
1.541108136E1,4.025044918E0,5.963192940E0,-6.748121262E0
1.546108136E1,1.686216354E0,7.105713844E0,-7.517160416E0
1.551108136E1,-4.904391766E-1,3.924841881E0,3.205280304E0
1.556108136E1,-6.845452785E0,-2.099777985E1,1.088676262E1
1.561108136E1,-1.087538719E0,4.765848160E0,3.825998306E-2
1.566108136E1,-4.978722572E0,-8.380472183E0,-1.221470070E1
1.571108136E1,-2.321385145E0,3.044081211E0,-7.829944611E0
1.576108136E1,5.349322796E0,-3.128873825E0,-1.048651886E1
1.581108136E1,6.378905296E0,-3.348790169E0,-6.465156078E-1
1.586108136E1,-6.622350216E-2,3.281117439E0,2.905584097E0
1.591108136E1,-2.661630869E0,1.699001789E0,3.134701729E0
1.596108136E1,-2.026668310E0,1.588730812E0,-2.287440777E0
1.601108136E1,1.141146421E0,2.340079784E0,3.360548019E0
1.606108136E1,6.223586082E0,-3.838540077E0,5.744196892E0
1.611108136E1,4.155054092E0,-5.544675827E0,3.394015312E0
1.616108136E1,-1.841987133E0,-3.597628593E0,7.367943764E0
1.621108136E1,3.135738671E-1,-6.464580536E0,4.180072308E0
1.626108136E1,-3.077380419E0,-6.942361832E0,-4.931183815E0
1.631108136E1,-2.950938225E0,-6.837909698E0,-3.163648367E0
1.636108136E1,7.196015716E-1,1.400956154E0,-5.525946617E0
1.641108136E1,3.628654003E0,4.078861237E0,-6.471169472E0
1.646108136E1,3.693374872E0,6.917217255E0,-7.598203659E0
1.651108136E1,1.005794287E0,7.705984116E0,-7.263290882E0
1.656108136E1,-2.104723454E0,2.167879105E0,7.622829437E0
1.661108136E1,-1.852977991E0,-1.624439240E1,8.586688995E0
1.666108136E1,-1.512064815E0,5.871863842E0,1.100591183E0
1.671108136E1,-4.198691845E0,-9.506770134E0,-1.591370487E1
1.676108136E1,-3.410953522E0,4.096685410E0,-6.666886806E0
1.681108136E1,4.649106503E0,-1.026160240E0,-1.129831886E1
1.686108136E1,7.296911716E0,-4.632876396E0,1.128659129E0
1.691108136E1,1.791161537E0,3.829887390E0,2.208889961E0
1.696108136E1,-3.047298431E0,2.326179504E0,3.147845984E0
1.701108136E1,-1.435973763E0,9.786472321E-1,-1.575147390E0
1.706108136E1,7.347254157E-1,7.949008942E-1,1.491667747E0
1.711108136E1,4.808315754E0,-4.223800659E0,9.035741806E0
1.716108136E1,2.953361034E0,-6.174211502E0,4.655291557E0
1.721108136E1,2.657618999E0,-3.789542198E0,7.349834919E0
1.726108136E1,9.059785008E-1,-5.585815430E0,2.374565363E0
1.731108136E1,-4.077124119E0,-6.587188721E0,-5.157907486E0
1.736108136E1,-4.024533272E0,-4.939287186E0,-4.209815025E0
1.741108136E1,9.202463627E-1,1.354295254E0,-5.128470421E0
1.746108136E1,3.680608988E0,4.631803513E0,-6.957887650E0
1.751108136E1,2.354199648E0,6.689770222E0,-7.158795834E0
1.756108136E1,5.082520843E-1,7.704777241E0,-7.357245445E0
1.761108136E1,-3.721900940E0,1.855592728E-1,1.088335228E1
1.766108136E1,-4.019201994E-1,-1.038118553E1,8.489744186E0
1.771108136E1,-2.652830124E0,1.354177475E0,1.994425297E0
1.776108136E1,-2.547726631E0,-1.354703903E-1,-1.348901367E1
1.781108136E1,-1.402344108E0,1.485286236E0,-7.169710159E0
1.786108136E1,3.158069849E0,-4.484263420E0,-4.339574337E0
1.791108136E1,7.824807644E0,-6.662559509E-1,-1.204169273E0
1.796108136E1,-2.275729179E0,3.064312935E0,3.925695181E0
1.801108136E1,-3.175946712E0,1.681836128E0,1.948340058E0
1.806108136E1,-1.257074833E0,8.043575287E-1,-1.114646316E0
1.811108136E1,3.221251488E0,-8.750400543E-1,3.896176577E0
1.816108136E1,8.410902023E0,-2.265715599E0,7.732269287E0
1.821108136E1,8.231037855E-2,-7.526962280E0,6.516994476E0
1.826108136E1,2.002361774E0,-7.226371765E0,4.448295593E0
1.831108136E1,-3.174185753E0,-7.095965385E0,-8.112624168E0
1.836108136E1,-5.394764900E0,-6.596577644E0,1.037540436E0
1.841108136E1,-1.814552188E0,9.334087372E-1,-4.604725838E0
1.846108136E1,2.737281084E0,4.424538612E0,-4.719051361E0
1.851108136E1,4.616950989E0,5.025776863E0,-7.181365490E0
1.856108136E1,5.490112305E-2,7.339910984E0,-7.236286640E0
1.861108136E1,-1.095656157E-1,6.829478264E0,-2.026687860E0
1.866108136E1,-1.077825165E1,-1.565526009E1,1.057598400E1
1.871108136E1,-1.093375564E0,9.430141449E-1,2.922731876E0
1.876108136E1,-1.272299409E0,-8.740820885E0,-5.861689568E0
1.881108136E1,-4.702627182E0,4.674592018E0,-9.137386322E0
1.886108136E1,4.638324261E0,-2.723003387E0,-1.401480770E1
1.891108136E1,7.082026958E0,-5.850988388E0,1.392524123E0
1.896108136E1,3.617502689E0,3.275216103E0,1.212794304E0
1.901108136E1,-3.699285507E0,2.642834663E0,2.437647820E0
1.906108136E1,-3.127667904E0,1.299004555E0,9.320431948E-1
1.911108136E1,3.347230256E-1,5.072689056E-1,2.732805014E0
1.916108136E1,5.925895691E0,-3.207464218E0,6.356295586E0
1.921108136E1,5.179137707E0,-5.915671349E0,4.332805634E0
1.926108136E1,2.507366419E0,-5.628628731E0,7.770493507E0
1.931108136E1,-2.504539728E0,-6.859141350E0,-1.338160038E-2
1.936108136E1,-5.295949936E0,-7.010359764E0,-3.865999460E0
1.941108136E1,-3.351786613E0,-3.324844360E0,-3.356446266E0
1.946108136E1,8.551456332E-1,2.330675125E0,-5.986083031E0
1.951108136E1,4.887410641E0,5.277057648E0,-8.091959000E0
1.956108136E1,2.000457525E0,7.139221191E0,-7.029523849E0
1.961108136E1,9.198260307E-1,6.667071819E0,-6.939474106E0
1.966108136E1,-3.421308279E0,2.826347351E-1,1.330381966E1
1.971108136E1,1.357272148E0,-7.586787224E0,7.456766129E0
1.976108136E1,-3.000710011E0,6.682634354E-1,2.569393635E0
1.981108136E1,-5.278816700E0,-3.719219208E0,-1.261946297E1
1.986108136E1,5.243659616E-1,8.810319901E-1,-9.216796875E0
1.991108136E1,4.086954117E0,-5.090978622E0,-4.203407288E0
1.996108136E1,7.468116283E0,-3.563823700E-1,-2.397208214E-1
2.001108136E1,-1.074709177E0,3.473474503E0,3.474009275E0
2.006108136E1,-3.092110634E0,8.091983795E-1,3.181590557E0
2.011108136E1,-2.288432121E0,1.455286026E0,-1.811862588E0
2.016108136E1,3.331110954E0,-1.825885773E0,4.272656918E0
2.021108136E1,8.990181923E0,-1.585552216E0,6.472402573E0
2.026108136E1,5.843075514E-1,-5.407995224E0,7.171396255E0
2.031108136E1,1.798385859E0,-6.521831512E0,5.716014385E0
2.036108136E1,-1.480832696E0,-8.861914635E0,-8.341837883E0
2.041108136E1,-4.545915604E0,-6.947061539E0,1.763213515E0
2.046108136E1,-6.102177501E-1,1.002054214E-1,-5.552962780E0
2.051108136E1,1.988547206E0,4.333384514E0,-4.624844551E0
2.056108136E1,5.310956478E0,6.342435837E0,-7.992305756E0
2.061108136E1,1.460848808E0,8.357123375E0,-7.949972153E0
2.066108136E1,2.440313101E-1,5.957658768E0,-2.600409269E0
2.071108136E1,-1.445079136E1,-2.082069778E1,1.175548935E1
2.076108136E1,-2.058673620E0,3.062487602E0,3.149003983E-1
2.081108136E1,-2.582824230E-2,-9.401131630E0,-1.556284428E0
2.086108136E1,-3.188906193E0,5.585889816E0,-1.329092598E1
2.091108136E1,3.073891640E0,-2.815651894E0,-1.247690487E1
2.096108136E1,7.129853725E0,-6.114185333E0,1.227512836E0
2.101108136E1,4.526520252E0,2.810371399E0,1.069796801E0
2.106108136E1,-2.882905960E0,2.429486752E0,2.663471460E0
2.111108136E1,-2.904877663E0,1.027884483E0,1.503339648E0
2.116108136E1,-4.643557668E-1,2.117926598E0,-3.269788027E-1
2.121108136E1,4.925796032E0,-2.997379303E0,5.731668472E0
2.126108136E1,7.416206837E0,-4.043447495E0,6.708610535E0
2.131108136E1,1.871713400E0,-6.685274124E0,8.707559586E0
2.136108136E1,-1.237603426E0,-6.635841370E0,3.160835028E0
2.141108136E1,-3.513885260E0,-7.444905281E0,-6.199999809E0
2.146108136E1,-3.055907726E0,-6.562618256E0,-2.927457333E0
2.151108136E1,5.249891281E-1,1.485081673E0,-6.177619934E0
2.156108136E1,4.149951935E0,4.998490334E0,-6.537967205E0
2.161108136E1,3.933576345E0,7.328263283E0,-7.285660267E0
2.166108136E1,1.274069548E0,7.360513687E0,-7.879868984E0
2.171108136E1,-1.861438513E0,2.099980354E0,5.475618839E0
2.176108136E1,-2.156606197E0,-1.487687874E1,9.212287903E0
2.181108136E1,-1.661551595E0,6.297756195E0,1.546787739E0
2.186108136E1,-5.274109364E0,-1.097145271E1,-1.346812439E1
2.191108136E1,-1.476243258E0,3.904494286E0,-5.895589352E0
2.196108136E1,4.448197365E0,-3.070480347E0,-4.962645531E0
2.201108136E1,7.272018909E0,-3.208269119E0,-1.422629237E0
2.206108136E1,-1.215145469E0,3.655104637E0,4.498900890E0
2.211108136E1,-3.343588829E0,1.608456612E0,3.223569393E0
2.216108136E1,-1.191728830E0,1.300722122E0,-1.424169540E0
2.221108136E1,3.848704815E0,8.682537079E-2,4.024701118E0
2.226108136E1,6.327741623E0,-2.726146698E0,6.769042969E0
2.231108136E1,2.185719311E-1,-6.696948051E0,7.405220985E0
2.236108136E1,3.089370251E0,-6.551627159E0,5.476961136E0
2.241108136E1,-2.167671442E0,-7.485361099E0,-7.982297897E0
2.246108136E1,-5.694675446E0,-7.917452812E0,1.035471916E0
2.251108136E1,-4.311428070E-1,-6.150913239E-2,-4.282191277E0
2.256108136E1,3.519447803E0,3.800910950E0,-4.858808994E0
2.261108136E1,5.351279259E0,5.963040352E0,-7.344042778E0
2.266108136E1,9.655472040E-1,8.128916740E0,-7.563995361E0
2.271108136E1,9.253955483E-1,6.560829163E0,-1.006510496E0
2.276108136E1,-1.174324417E1,-2.313454247E1,1.261731339E1
2.281108136E1,-8.098773956E-1,4.695677280E0,1.340955734E0
2.286108136E1,-3.156087160E0,-1.031208992E1,-1.042632198E1
2.291108136E1,-3.559395313E0,5.040992260E0,-9.554149628E0
2.296108136E1,6.141137123E0,-3.387306213E0,-1.081941414E1
2.301108136E1,7.944203854E0,-4.059617043E0,1.945211887E-1
2.306108136E1,1.303577662E0,3.786973953E0,1.079997778E0
2.311108136E1,-4.097594738E0,2.299954414E0,2.436872721E0
2.316108136E1,-3.080808878E0,6.447610855E-1,-1.122281432E0
2.321108136E1,1.613415718E0,1.841984749E0,1.847976327E0
2.326108136E1,7.079961777E0,-3.195950508E0,6.432180405E0
2.331108136E1,2.524773359E0,-5.920131683E0,2.809489965E0
2.336108136E1,2.420640707E0,-5.278577805E0,6.722797394E0
2.341108136E1,-1.851922154E0,-5.432046890E0,3.818886280E0
2.346108136E1,-4.791871548E0,-6.533452988E0,-2.966215849E0
2.351108136E1,-2.084126949E0,-4.311119080E0,-2.468042612E0
2.356108136E1,8.687576652E-1,1.591421127E0,-5.571205616E0
2.361108136E1,4.124130249E0,5.389531136E0,-6.976274490E0
2.366108136E1,2.583114147E0,6.271612644E0,-7.054409981E0
2.371108136E1,1.207261801E0,7.004388809E0,-7.111482143E0
2.376108136E1,-2.608259201E0,1.347664833E0,9.402174950E0
2.381108136E1,-9.446619749E-1,-1.302595234E1,7.530819893E0
2.386108136E1,-2.981354713E0,2.007100105E0,1.613854885E0
2.391108136E1,-4.069384575E0,-1.196685791E0,-1.186553764E1
2.396108136E1,-5.421917439E-1,6.348114014E-1,-7.946651459E0
2.401108136E1,5.136092186E0,-4.627507210E0,-4.246240139E0
2.406108136E1,6.852715492E0,3.865146637E-2,-5.242729187E-2
2.411108136E1,-2.074228287E0,3.247890949E0,3.386579275E0
2.416108136E1,-3.749003172E0,1.452055931E0,3.679694653E0
2.421108136E1,-7.452368736E-1,1.363013268E0,-2.486353397E0
2.426108136E1,3.590287924E0,-8.303804398E-1,3.679260015E0
2.431108136E1,6.753338337E0,-2.604496002E0,7.587396622E0
2.436108136E1,2.623447895E0,-6.455103874E0,7.248473167E0
2.441108136E1,2.604510784E0,-6.367232323E0,5.085852146E0
2.446108136E1,-2.519961357E0,-7.652247429E0,-9.503808975E0
2.451108136E1,-2.894072533E0,-7.566178322E0,5.501091480E-1
2.456108136E1,1.737669706E0,-7.358875275E-1,-5.906457901E0
2.461108136E1,1.624406338E0,4.000967979E0,-4.809319973E0
2.466108136E1,4.985450745E0,5.899842262E0,-7.938311577E0
2.471108136E1,1.208368897E0,8.602527618E0,-7.486119747E0
2.476108136E1,7.021157742E-1,6.593384743E0,-2.459418535E0
2.481108136E1,-1.002254486E1,-2.442114258E1,1.209186745E1
2.486108136E1,1.247857809E-1,4.683478355E0,5.331659317E-1
2.491108136E1,-1.001428962E0,-9.721708298E0,-3.150153160E-1
2.496108136E1,-5.609147072E0,5.177654743E0,-1.173280716E1
2.501108136E1,1.905105352E0,-1.719093323E-1,-1.366970634E1
2.506108136E1,6.279790401E0,-7.581460953E0,2.215047836E0
2.511108136E1,3.977273464E0,3.164967537E0,1.731421590E0
2.516108136E1,-3.257440090E0,2.239916801E0,2.392013788E0
2.521108136E1,-2.985483885E0,3.323822021E-1,7.655739784E-1
2.526108136E1,6.292109489E-1,2.082864285E0,-2.151958942E-1
2.531108136E1,4.498545647E0,-2.430399895E0,7.031217098E0
2.536108136E1,4.365131855E0,-5.018544197E0,4.982085228E0
2.541108136E1,2.158246040E0,-5.310842514E0,8.803081512E0
2.546108136E1,7.700226456E-2,-6.051237106E0,2.411310673E0
2.551108136E1,-3.211943388E0,-7.608898163E0,-5.821249008E0
2.556108136E1,-2.483588457E0,-5.648478508E0,-4.229745388E0
2.561108136E1,-1.045569062E0,1.541955948E0,-5.419786453E0
2.566108136E1,4.361484528E0,4.687228680E0,-6.650914192E0
2.571108136E1,1.983500123E0,7.539734840E0,-7.290247440E0
2.576108136E1,2.053235769E-1,8.074430466E0,-7.399478912E0
2.581108136E1,-1.466887116E0,1.406261444E0,9.378940582E0
2.586108136E1,9.999727607E-1,-8.626490593E0,8.610338211E0
2.591108136E1,-1.709570885E-1,7.570805550E0,-3.338232040E-1
2.596108136E1,-4.744676113E0,-1.108189106E1,-1.257225418E1
2.601108136E1,-4.002800465E0,3.149686813E0,-5.778582573E0
2.606108136E1,3.372223616E0,7.927799225E-2,-8.847092628E0
2.611108136E1,7.152025700E0,-5.243988991E0,-3.207846880E-1
2.616108136E1,1.349478960E-2,3.642320633E0,3.468127012E0
2.621108136E1,-2.769392490E0,1.821594715E0,1.401864529E0
2.626108136E1,-1.162837267E0,8.536691666E-1,-1.313852668E0
2.631108136E1,1.949524999E0,3.676242828E-1,4.776175499E0
2.636108136E1,6.487215519E0,-2.761326790E0,7.740509033E0
2.641108136E1,1.443731546E0,-5.622685432E0,4.137994289E0
2.646108136E1,2.415458262E-1,-6.482137680E0,7.978051662E0
2.651108136E1,7.141844630E-1,-5.789476395E0,-8.743342400E0
2.656108136E1,-4.033648491E0,-8.124019623E0,1.237409830E0
2.661108136E1,-1.466888905E0,-1.160861015E0,-3.992606163E0
2.666108136E1,-2.065751702E-1,3.717805386E0,-5.740687847E0
2.671108136E1,5.490246296E0,5.479380131E0,-7.297557831E0
2.676108136E1,1.190542221E0,8.159501076E0,-7.466598511E0
2.681108136E1,1.139411211E0,7.129599571E0,-4.063188076E0
2.686108136E1,-1.083037853E1,-1.252749443E1,1.154685879E1
2.691108136E1,3.251131773E-1,1.985243797E0,1.207705498E0
2.696108136E1,-2.459206104E0,-3.728219032E0,-4.825057983E-1
2.701108136E1,-2.785995007E0,6.499462128E-1,-1.111987305E1
2.706108136E1,2.065938473E0,-1.811389923E-1,-1.151083565E1
2.711108136E1,5.891080856E0,-4.300413132E0,-1.415225387E0
2.716108136E1,5.787180424E0,-3.293657303E-1,5.563122630E-1
2.721108136E1,-4.005156040E0,2.543504715E0,2.759601831E0
2.726108136E1,-3.287823915E0,8.758802414E-1,3.888637781E0
2.731108136E1,1.002773196E-1,1.552927017E0,-3.812391520E0
2.736108136E1,3.184465408E0,-2.759838104E-1,4.868726254E0
2.741108136E1,5.733508587E0,-4.164416313E0,7.383316040E0
2.746108136E1,1.029833794E0,-4.922691345E0,7.914879799E0
2.751108136E1,3.651738763E-1,-6.159666061E0,6.715299606E0
2.756108136E1,7.152760625E-1,-8.235663414E0,-8.441968918E0
2.761108136E1,-1.376900792E0,-6.998250961E0,5.288147926E-1
2.766108136E1,5.485867858E-1,-2.696895599E-2,-6.082715511E0
2.771108136E1,1.204946280E0,3.920268059E0,-5.575974464E0
2.776108136E1,4.817716599E0,6.046401501E0,-7.464556694E0
2.781108136E1,3.126381636E-1,8.144119263E0,-7.420959949E0
2.786108136E1,3.236670494E-1,6.174884796E0,-1.570084333E0
2.791108136E1,-1.035129452E1,-2.302594376E1,1.247951126E1
2.796108136E1,5.824732780E-1,6.505293846E0,4.741058350E-1
2.801108136E1,1.152118683E0,-5.510318756E0,-1.711602211E-1
2.806108136E1,-5.424422741E0,6.602735519E-1,-1.254226589E1
2.811108136E1,2.365438938E0,1.343467712E0,-1.216046047E1
2.816108136E1,4.730320930E0,-6.459692001E0,1.511586666E0
2.821108136E1,5.941995144E0,1.545117378E0,-1.861880422E-1
2.826108136E1,-3.075977087E0,3.115518570E0,2.874303579E0
2.831108136E1,-3.112644911E0,7.578439713E-1,1.769735336E0
2.836108136E1,-3.211258352E-2,1.705503464E0,-1.874919534E0
2.841108136E1,3.044301748E0,-2.719676971E0,6.131803513E0
2.846108136E1,6.967579842E0,-2.424177170E0,5.655308723E0
2.851108136E1,9.308513403E-1,-6.626007080E0,9.023657799E0
2.856108136E1,5.243474841E-1,-6.589582443E0,4.379618645E0
2.861108136E1,-2.522966385E0,-8.361153603E0,-8.260443687E0
2.866108136E1,-2.876294374E0,-7.047487259E0,-1.291006804E0
2.871108136E1,3.072530627E-1,1.540103912E0,-6.228836060E0
2.876108136E1,3.674119473E0,4.687320709E0,-6.014966965E0
2.881108136E1,4.206768036E0,6.612051964E0,-7.365788460E0
2.886108136E1,7.675197721E-1,7.515888214E0,-7.572676659E0
2.891108136E1,-5.083466768E-1,4.160178185E0,3.918979645E0
2.896108136E1,-7.086938858E0,-2.158304596E1,9.453289032E0
2.901108136E1,-1.090841413E0,7.378663063E0,1.163110733E-1
2.906108136E1,-2.897109985E0,-8.175435066E0,-9.889775276E0
2.911108136E1,-4.698419094E0,1.205016136E0,-8.458955765E0
2.916108136E1,5.789523125E0,3.849220276E-2,-9.546254158E0
2.921108136E1,7.072790623E0,-6.032979965E0,2.522815466E-1
2.926108136E1,2.229194403E0,3.303383350E0,6.253234148E-1
2.931108136E1,-3.527618170E0,2.782417297E0,3.524912119E0
2.936108136E1,-1.818792582E0,7.135534286E-1,-2.629375935E0
2.941108136E1,8.261353970E-1,7.709074020E-1,2.322671413E0
2.946108136E1,5.991096973E0,-2.324615479E0,5.949541569E0
2.951108136E1,3.752625704E0,-7.362915993E0,4.614729881E0
2.956108136E1,4.308331966E0,-4.817936897E0,6.737830639E0
2.961108136E1,-3.045391798E0,-5.476472855E0,1.800386548E0
2.966108136E1,-5.960788250E0,-6.739202499E0,-3.919268131E0
2.971108136E1,-3.532021523E0,-3.109383583E0,-2.900498867E0
2.976108136E1,1.194615602E0,2.381151199E0,-5.298158646E0
2.981108136E1,5.253301620E0,4.437159061E0,-6.998919487E0
2.986108136E1,1.737753630E0,6.764392376E0,-6.579895496E0
2.991108136E1,7.107528448E-1,7.655524254E0,-5.618449211E0
2.996108136E1,-3.426740170E-1,1.765799522E0,7.081494808E0
3.001108136E1,-1.488558173E0,-1.586609936E1,7.486274719E0
3.006108136E1,-2.249656439E0,-8.176460266E-1,-1.917962313E0
3.011108136E1,-3.371477365E0,1.662151814E0,-1.247871017E1
3.016108136E1,1.794879436E-1,-2.711467743E-1,-1.040814781E1
3.021108136E1,6.386753082E0,-5.474596977E0,-1.662015915E-3
3.026108136E1,5.278845787E0,8.401679993E-1,1.412183762E0
3.031108136E1,-2.967757940E0,3.033004761E0,1.954477072E0
3.036108136E1,-3.580321550E0,1.562170982E0,3.076199770E0
3.041108136E1,-7.460241914E-1,1.483759880E0,-3.059824467E0
3.046108136E1,2.348772049E0,-1.564746857E0,3.951320887E0
3.051108136E1,9.143831253E0,-3.562713623E0,8.018163681E0
3.056108136E1,1.195619822E0,-6.353487968E0,8.806647301E0
3.061108136E1,4.289175272E-1,-6.122716904E0,5.568317890E0
3.066108136E1,-1.822859883E0,-7.216281891E0,-6.738646030E0
3.071108136E1,-2.676232100E0,-7.338249207E0,-2.567620039E0
3.076108136E1,5.571156144E-1,2.733812332E-1,-5.787713051E0
3.081108136E1,3.000640154E0,4.903928757E0,-6.156843185E0
3.086108136E1,4.220023155E0,7.092988491E0,-8.096582413E0
3.091108136E1,6.351920366E-1,8.519453049E0,-7.897888184E0
3.096108136E1,-5.605936050E-1,3.590653419E0,7.366942406E0
3.101108136E1,-3.572557449E0,-1.880867577E1,8.033633232E0
3.106108136E1,-1.317254663E0,7.859001637E0,-6.469888687E-1
3.111108136E1,-2.557926178E0,-1.006322479E1,-8.526451111E0
3.116108136E1,-3.431250572E0,1.385262966E0,-8.731354713E0
3.121108136E1,3.602784872E0,2.827488899E0,-1.055068016E1
3.126108136E1,6.068769455E0,-6.484446526E0,3.912546635E-1
3.131108136E1,2.628678799E0,2.814801216E0,3.138765574E0
3.136108136E1,-3.630564690E0,2.769361496E0,2.438057899E0
3.141108136E1,-1.335244417E0,8.201589584E-1,-2.820747137E0
3.146108136E1,2.060497403E-1,1.753796577E0,1.993925214E0
3.151108136E1,5.429197788E0,-3.780645370E0,7.558765411E0
3.156108136E1,2.860428810E0,-6.739814758E0,5.028639793E0
3.161108136E1,3.156224728E0,-6.640204430E0,5.460232735E0
3.166108136E1,-3.436588287E0,-5.813276291E0,-4.190070152E0
3.171108136E1,-5.002249718E0,-6.796107292E0,4.845060110E-1
3.176108136E1,-5.747811198E-1,-1.376729965E0,-3.835012436E0
3.181108136E1,-4.582802653E-1,3.638631821E0,-5.549660206E0
3.186108136E1,5.500080109E0,5.122992516E0,-6.941577911E0
3.191108136E1,1.821292043E0,7.240819454E0,-7.258089066E0
3.196108136E1,8.082794547E-1,6.791842461E0,-4.834118843E0
3.201108136E1,-1.002928162E1,-1.207869053E1,1.475648022E1
3.206108136E1,4.935745001E-1,-1.503405571E0,4.017360210E0
3.211108136E1,-2.426765919E0,-4.935839653E0,-1.640824556E0
3.216108136E1,-3.495315313E0,3.308695793E0,-1.306896782E1
3.221108136E1,8.557330966E-1,-7.508563995E-2,-1.084569359E1
3.226108136E1,6.862894058E0,-6.425140381E0,-7.364385128E-1
3.231108136E1,4.599625111E0,2.589122295E0,1.817099690E0
3.236108136E1,-3.802586079E0,2.796416283E0,2.574989319E0
3.241108136E1,-3.016914606E0,8.992271423E-1,2.278272390E0
3.246108136E1,5.242440104E-1,1.641121864E0,-2.587606430E0
3.251108136E1,4.430334091E0,-2.897395134E0,5.682578087E0
3.256108136E1,6.136049747E0,-4.537522316E0,6.714685440E0
3.261108136E1,-7.277843356E-1,-5.292412758E0,8.202580452E0
3.266108136E1,2.086601496E0,-5.021342278E0,2.612495422E0
3.271108136E1,-3.091612101E0,-7.707396507E0,-7.197931767E0
3.276108136E1,-3.076863289E0,-5.009852409E0,-3.412985802E0
3.281108136E1,-2.933016419E-2,9.386730194E-1,-5.493390083E0
3.286108136E1,3.588646412E0,4.429966927E0,-6.903489590E0
3.291108136E1,3.626918793E0,6.963646889E0,-7.282717228E0
3.296108136E1,1.227193117E0,8.356811523E0,-6.932347298E0
3.301108136E1,-8.276959658E-1,2.865880013E0,6.562856197E0
3.306108136E1,3.291252851E-1,-1.352352810E1,8.727241516E0
3.311108136E1,-1.836163878E0,5.520989895E0,2.214956760E0
3.316108136E1,-4.968960285E0,-6.388036728E0,-1.392566109E1
3.321108136E1,-2.881219625E0,-8.253316879E-1,-5.845201969E0
3.326108136E1,6.833703995E0,-3.065319061E0,-4.891510963E0
3.331108136E1,6.706323147E0,-1.733039856E0,-2.379655838E-1
3.336108136E1,-3.403150558E0,3.047146797E0,2.723527431E0
3.341108136E1,-2.863654613E0,1.894753456E0,3.222859621E0
3.346108136E1,-1.438196301E-1,1.335050583E0,-3.267506361E0
3.351108136E1,2.747944832E0,-3.201675415E-1,3.839723587E0
3.356108136E1,6.784915924E0,-3.132596970E0,8.748270988E0
3.361108136E1,7.389477491E-1,-7.364889145E0,6.873489380E0
3.366108136E1,3.166076660E0,-6.525118828E0,4.960586071E0
3.371108136E1,-1.030160785E0,-8.633327484E0,-8.288606644E0
3.376108136E1,-3.827893496E0,-7.560605049E0,8.972396851E-1
3.381108136E1,1.911517978E-2,1.028060913E-3,-5.037980080E0
3.386108136E1,9.367086291E-1,4.213079929E0,-5.545880318E0
3.391108136E1,5.416538239E0,6.374919891E0,-7.779534340E0
3.396108136E1,1.435802460E0,8.297046661E0,-7.850498199E0
3.401108136E1,9.997462630E-1,7.025036335E0,-1.295164824E0
3.406108136E1,-1.271186733E1,-2.337220001E1,1.171142578E1
3.411108136E1,-1.129117727E0,5.383711338E0,7.836213112E-1
3.416108136E1,-3.312574387E0,-9.421258926E0,-1.472308350E1
3.421108136E1,-4.196669579E0,4.543576241E0,-8.356359482E0
3.426108136E1,5.073218346E0,-4.225465775E0,-8.446762085E0
3.431108136E1,8.577365875E0,-3.711050987E0,-2.002131939E-2
3.436108136E1,1.158684969E0,3.962531567E0,3.072634459E0
3.441108136E1,-3.185176849E0,2.048629284E0,2.392328024E0
3.446108136E1,-2.777883053E0,6.716690063E-1,-1.431597710E0
3.451108136E1,1.481438637E0,1.655963898E0,3.149292469E0
3.456108136E1,8.626091957E0,-4.309924126E0,8.784560204E0
3.461108136E1,1.153220296E0,-7.128232956E0,6.650596619E0
3.466108136E1,5.792841911E-1,-5.075474739E0,8.343650818E0
3.471108136E1,8.292827606E-1,-9.059049606E0,-9.482294083E0
3.476108136E1,-2.624145269E0,-8.149087906E0,1.760934234E0
3.481108136E1,-9.487634897E-1,-2.123547554E0,-5.320940018E0
3.486108136E1,5.928343534E-1,4.178165436E0,-6.292118073E0
3.491108136E1,5.307642937E0,6.572865486E0,-7.943460464E0
3.496108136E1,1.504184604E0,9.372266769E0,-7.920264721E0
3.501108136E1,4.761952162E-1,7.445951462E0,-2.170691252E0
3.506108136E1,-1.210193443E1,-2.545199966E1,1.240546989E1
3.511108136E1,2.270044804E0,6.041406155E0,1.932050228E0
3.516108136E1,-3.039860249E0,-1.385729790E1,-1.554288864E1
3.521108136E1,-5.983881950E0,4.524093151E0,-8.043008804E0
3.526108136E1,2.763702154E0,-1.329370499E0,-1.145769119E1
3.531108136E1,8.814478874E0,-5.884589195E0,-4.281123877E-1
3.536108136E1,2.626778603E0,3.734753132E0,3.640181780E0
3.541108136E1,-2.988956690E0,2.817098618E0,2.203445435E0
3.546108136E1,-2.515697718E0,1.076865196E0,-2.206761837E0
3.551108136E1,1.428943872E0,-1.591634750E-1,5.717069149E0
3.556108136E1,8.648149490E0,-3.197029114E0,5.601147652E0
3.561108136E1,-3.010510802E-1,-6.716146469E0,6.623389244E0
3.566108136E1,3.075902462E0,-7.243942261E0,5.734362602E0
3.571108136E1,-2.108971357E0,-7.296152115E0,-7.954109192E0
3.576108136E1,-5.006660938E0,-7.418344498E0,1.931612968E0
3.581108136E1,-1.131725192E0,-6.482219696E-2,-4.421557426E0
3.586108136E1,1.179110885E0,3.930887222E0,-5.346409798E0
3.591108136E1,5.561134338E0,5.752016544E0,-7.846423149E0
3.596108136E1,1.339699388E0,8.303547859E0,-8.302144051E0
3.601108136E1,8.685235977E-1,6.907362938E0,-3.925488472E0
3.606108136E1,-1.457121849E1,-2.255508804E1,1.148617935E1
3.611108136E1,-2.953033447E-1,4.176619053E0,-3.700876236E-1
3.616108136E1,-2.862604141E0,-3.496915817E0,-7.410575867E0
3.621108136E1,-2.894808531E0,-6.828575134E-1,-1.062716293E1
3.626108136E1,2.695496082E0,4.135236740E-1,-1.107802105E1
3.631108136E1,5.193328381E0,-4.802536964E0,-5.587880611E-1
3.636108136E1,4.510498524E0,2.028857231E0,9.605180621E-1
3.641108136E1,-3.697992802E0,3.499632835E0,3.226335049E0
3.646108136E1,-2.819685698E0,1.386437416E0,1.931485891E0
3.651108136E1,1.244834304E0,9.395017624E-1,4.749588966E-1
3.656108136E1,5.852822781E0,-3.126115799E0,7.500577450E0
3.661108136E1,4.671738148E0,-5.429379463E0,5.563489437E0
3.666108136E1,-2.743970394E0,-5.214483261E0,8.326026917E0
3.671108136E1,2.586538315E0,-6.816241264E0,2.288677692E0
3.676108136E1,-2.019273996E0,-6.333683014E0,-6.712150574E0
3.681108136E1,-3.167589426E0,-4.112055779E0,-3.559356451E0
3.686108136E1,-1.060123682E0,1.426588058E0,-6.024663448E0
3.691108136E1,4.269525051E0,3.920704842E0,-7.532619953E0
3.696108136E1,2.144427061E0,7.299925804E0,-7.339173317E0
3.701108136E1,1.610094309E0,8.401183128E0,-6.797779560E0
3.706108136E1,-2.375342846E0,4.451522827E-1,9.647216797E0
3.711108136E1,2.147509575E0,-7.229449272E0,7.104526520E0
3.716108136E1,-2.411677599E0,2.078074932E0,-3.133473396E-1
3.721108136E1,-4.795487404E0,-3.995288849E0,-1.132851410E1
3.726108136E1,-1.163650990E0,8.354330063E-1,-7.807594299E0
3.731108136E1,5.475470066E0,-4.105939865E0,-3.812022686E0
3.736108136E1,8.188397408E0,-1.283931732E0,1.382544875E0
3.741108136E1,-2.084673882E0,3.570950508E0,2.051294565E0
3.746108136E1,-3.509742498E0,1.502821922E0,3.501302958E0
3.751108136E1,-1.140519381E0,8.624219894E-1,-2.473995209E0
3.756108136E1,2.761575699E0,-3.665447235E-1,4.382578850E0
3.761108136E1,8.088367462E0,-3.218648911E0,8.379103661E0
3.766108136E1,9.344005585E-2,-6.604405403E0,6.678969383E0
3.771108136E1,1.866805315E0,-5.724409103E0,5.295528889E0
3.776108136E1,-9.667935967E-1,-8.259368896E0,-8.928864479E0
3.781108136E1,-4.892544746E0,-7.793411255E0,9.107418060E-1
3.786108136E1,-7.778071165E-1,6.469526291E-1,-4.745889187E0
3.791108136E1,3.047266483E0,4.763503075E0,-5.772114277E0
3.796108136E1,5.165295601E0,6.367956161E0,-7.401140213E0
3.801108136E1,1.052268505E0,8.534121513E0,-7.623286247E0
3.806108136E1,4.657413363E-1,5.505988598E0,1.347563744E0
3.811108136E1,-8.704506874E0,-2.357516098E1,9.119161606E0
3.816108136E1,-3.947300911E0,2.412069321E0,1.898597717E0
3.821108136E1,-3.019999981E0,-3.690977097E0,-1.632501221E1
3.826108136E1,-3.990523100E0,2.903157234E0,-5.186061859E0
3.831108136E1,4.850872040E0,-4.047410011E0,-5.365987778E0
3.836108136E1,7.937637329E0,-2.217748642E0,-2.176545858E-1
3.841108136E1,5.619618893E-1,3.592817307E0,1.932433724E0
3.846108136E1,-3.349261045E0,1.790975571E0,2.659975767E0
3.851108136E1,-2.595491171E0,1.313109398E0,-2.520096302E0
3.856108136E1,1.873272300E0,3.779096603E-1,4.145680428E0
3.861108136E1,8.023203850E0,-3.027583122E0,7.322102547E0
3.866108136E1,4.802194238E-1,-6.804747581E0,5.625756264E0
3.871108136E1,2.035091162E0,-5.911577225E0,6.025581360E0
3.876108136E1,-1.956425458E-1,-7.380362511E0,-7.455766201E0
3.881108136E1,-4.500566959E0,-7.270707130E0,1.378134370E0
3.886108136E1,-1.035582900E0,-9.798583984E-1,-3.951887608E0
3.891108136E1,1.132234693E0,3.618312359E0,-5.330104828E0
3.896108136E1,6.184501171E0,5.963299751E0,-7.805538177E0
3.901108136E1,1.599654913E0,8.603931427E0,-7.453454494E0
3.906108136E1,1.012163758E0,7.234151363E0,-1.647065163E0
3.911108136E1,-1.242842674E1,-2.269734955E1,1.387881279E1
3.916108136E1,4.312896729E-2,4.178882122E0,2.328275204E0
3.921108136E1,-4.949985981E0,-9.415820122E0,-1.320094013E1
3.926108136E1,-4.278024197E0,3.850243568E0,-6.850817204E0
3.931108136E1,7.023543358E0,-3.554072380E0,-9.685955048E0
3.936108136E1,8.637899399E0,-2.720254898E0,6.222053766E-1
3.941108136E1,-1.424769908E-1,3.858032227E0,2.758415699E0
3.946108136E1,-3.446444750E0,2.345619202E0,2.655281782E0
3.951108136E1,-2.780474424E0,9.331398010E-1,-2.364375353E0
3.956108136E1,2.978689432E0,4.450950623E-1,3.483538628E0
3.961108136E1,8.013329506E0,-3.794656754E0,7.661426544E0
3.966108136E1,6.179704666E-1,-6.609666824E0,6.030128479E0
3.971108136E1,1.543241262E0,-4.559850693E0,5.667663574E0
3.976108136E1,-1.028446198E0,-7.842126846E0,-7.870036602E0
3.981108136E1,-5.726912498E0,-8.316432953E0,2.799939632E0
3.986108136E1,-1.359737515E0,-1.142604828E0,-3.741903782E0
3.991108136E1,6.354712844E-1,4.013735771E0,-6.186216354E0
3.996108136E1,6.503562450E0,6.531260490E0,-7.821330070E0
4.001108136E1,1.871665001E0,9.021246910E0,-7.742874146E0
4.006108136E1,9.337868690E-1,7.128960609E0,-2.904368401E0
4.011108136E1,-1.270510101E1,-2.279222679E1,8.684757233E0
4.016108136E1,-1.098016620E0,5.539820671E0,1.616758347E0
4.021108136E1,-3.227364063E0,-8.978968620E0,-8.109170914E0
4.026108136E1,-1.545445204E0,2.752189636E0,-7.835752487E0
4.031108136E1,4.101398468E0,-2.656158447E0,-1.064054298E1
4.036108136E1,6.171591282E0,-4.634420395E0,-1.878920794E-1
4.041108136E1,2.230596781E0,3.265007496E0,1.121197939E0
4.046108136E1,-3.511609077E0,2.927582741E0,2.937799931E0
4.051108136E1,-3.288409233E0,1.139606476E0,-1.607829332E-1
4.056108136E1,1.732934356E0,8.488035202E-1,3.595757484E-2
4.061108136E1,5.732485294E0,-3.026302338E0,9.246727943E0
4.066108136E1,4.338309288E0,-5.726586342E0,4.856429100E0
4.071108136E1,2.381537199E0,-5.654572487E0,6.419138908E0
4.076108136E1,-1.197387218E0,-6.929445267E0,-5.288821220E0
4.081108136E1,-5.705017090E0,-7.903175354E0,-9.408938885E-1
4.086108136E1,-1.432001114E0,-2.100020409E0,-3.777353048E0
4.091108136E1,2.414280623E-1,3.530148983E0,-5.605726719E0
4.096108136E1,5.673181534E0,5.636128902E0,-8.116825104E0
4.101108136E1,2.304961681E0,8.256884575E0,-7.364275932E0
4.106108136E1,6.987037659E-1,7.193903446E0,-5.885045528E0
4.111108136E1,-8.804437637E0,-8.915940285E0,1.504288960E1
4.116108136E1,1.204070449E0,2.776803970E-1,4.337460518E0
4.121108136E1,-1.049028873E0,-3.681135178E0,-3.375537872E0
4.126108136E1,-4.193249702E0,1.242583275E0,-1.261088181E1
4.131108136E1,4.498507500E0,-1.738565445E0,-1.208149910E1
4.136108136E1,6.468660355E0,-5.679757118E0,8.519349098E-1
4.141108136E1,4.672834396E0,2.316864014E0,8.525859714E-1
4.146108136E1,-3.718814135E0,2.938714027E0,2.831641912E0
4.151108136E1,-3.849456310E0,1.069326401E0,-6.548099518E-1
4.156108136E1,-2.178843021E-1,1.502072334E0,1.956635714E0
4.161108136E1,6.973815441E0,-2.325116158E0,6.512590408E0
4.166108136E1,4.583408356E0,-6.167070389E0,4.304301262E0
4.171108136E1,1.281959057E0,-6.876041412E0,8.119445801E0
4.176108136E1,-3.301946640E0,-6.803639412E0,-2.184186459E0
4.181108136E1,-6.169352055E0,-6.736077309E0,-2.337068558E0
4.186108136E1,-3.116220474E0,-3.370366096E0,-2.429034233E0
4.191108136E1,1.058993340E0,3.121335983E0,-6.142008781E0
4.196108136E1,5.400616646E0,4.858394623E0,-7.487430573E0
4.201108136E1,2.482703686E0,7.566028595E0,-6.955566406E0
4.206108136E1,1.055045843E0,7.780922413E0,-5.494245529E0
4.211108136E1,-9.312267303E0,-5.236212730E0,1.371187782E1
4.216108136E1,2.523372173E0,-5.636750221E0,4.978659630E0
4.221108136E1,2.252843380E-1,-1.825259209E0,-1.921367645E-1
4.226108136E1,-3.654194355E0,-1.020915031E0,-1.198264122E1
4.231108136E1,2.243034363E0,7.302761078E-2,-1.197395706E1
4.236108136E1,5.025060177E0,-5.175408363E0,6.606702805E-1
4.241108136E1,6.049854755E0,9.191961288E-1,-4.987119436E-1
4.246108136E1,-3.454178810E0,3.196396828E0,3.863085032E0
4.251108136E1,-3.808586597E0,1.510253906E0,1.696826458E0
4.256108136E1,-5.389657617E-1,1.056768417E0,-2.571895123E-1
4.261108136E1,4.917274952E0,-2.179881096E0,6.222573757E0
4.266108136E1,6.399139404E0,-3.795901299E0,5.340836525E0
4.271108136E1,7.759320736E-2,-6.236160278E0,8.890958786E0
4.276108136E1,1.285719633E0,-6.557550430E0,3.019289494E0
4.281108136E1,-4.112472057E0,-7.186476707E0,-5.923539162E0
4.286108136E1,-3.813985109E0,-6.123970985E0,-3.450181723E0
4.291108136E1,2.332304567E-1,1.720260620E0,-5.789264679E0
4.296108136E1,4.987988472E0,4.961804390E0,-7.719270229E0
4.301108136E1,3.109972000E0,6.763900757E0,-6.850847244E0
4.306108136E1,1.726741433E0,8.003755569E0,-7.185784340E0
4.311108136E1,-4.112584591E0,-1.611280441E-1,1.349134350E1
4.316108136E1,1.215399265E0,-1.137207890E1,7.151155472E0
4.321108136E1,-9.973508120E-1,3.149351120E0,3.981951714E0
4.326108136E1,-3.299219131E0,-1.534658432E0,-1.314342499E1
4.331108136E1,9.984542131E-1,5.375528336E-1,-9.892818451E0
4.336108136E1,5.240490437E0,-5.335186005E0,-3.384917974E0
4.341108136E1,6.216607571E0,2.419013977E-1,7.800813317E-1
4.346108136E1,-2.766733646E0,3.168917656E0,3.416448593E0
4.351108136E1,-3.964998245E0,1.657580376E0,2.763372421E0
4.356108136E1,-7.678731680E-1,1.237395287E0,-1.303358197E0
4.361108136E1,3.698396683E0,-1.424414635E0,4.721364498E0
4.366108136E1,6.932308197E0,-2.155800819E0,5.882632732E0
4.371108136E1,1.235459447E0,-7.120649338E0,8.037995338E0
4.376108136E1,2.349802017E0,-6.530031204E0,3.304118633E0
4.381108136E1,-1.840498209E0,-6.959959030E0,-7.872892380E0
4.386108136E1,-4.412417412E0,-7.367888451E0,-1.480673075E0
4.391108136E1,3.374035954E-1,9.319667816E-1,-6.130940914E0
4.396108136E1,2.080852270E0,4.749861717E0,-4.803722382E0
4.401108136E1,3.801564693E0,7.363776207E0,-7.656323910E0
4.406108136E1,6.982052326E-1,7.934539795E0,-7.200316429E0
4.411108136E1,-5.962920189E-2,4.843056202E0,2.482171059E-1
4.416108136E1,-5.758440971E0,-2.313372040E1,1.002195263E1
4.421108136E1,-3.120207787E0,3.624024868E0,3.614730835E-1
4.426108136E1,-7.743440866E-1,-8.641094208E0,-1.081158924E1
4.431108136E1,-4.421452522E0,5.156606674E0,-8.410902023E0
4.436108136E1,3.260410786E0,-2.034168243E0,-9.549420357E0
4.441108136E1,8.126078606E0,-4.835848808E0,-1.121454239E-1
4.446108136E1,1.708517790E0,3.583852768E0,2.620564938E0
4.451108136E1,-2.875105381E0,2.038181782E0,2.269406557E0
4.456108136E1,-3.245018005E0,8.840541840E-1,-5.717988014E-1
4.461108136E1,1.931785703E0,5.458898544E-1,4.010514259E0
4.466108136E1,6.747879982E0,-2.929719925E0,6.686274529E0
4.471108136E1,1.869607806E0,-6.306882858E0,4.486969948E0
4.476108136E1,7.890955210E-1,-5.420027733E0,8.075730324E0
4.481108136E1,1.783728957E0,-7.403135300E0,-6.576881409E0
4.486108136E1,-4.731915474E0,-8.419724464E0,-2.021109104E0
4.491108136E1,-2.115117073E0,-2.078549385E0,-3.497907877E0
4.496108136E1,-1.868999451E-1,3.388979912E0,-4.964202404E0
4.501108136E1,4.415231705E0,5.806979179E0,-7.966686249E0
4.506108136E1,1.567568302E0,8.417173386E0,-7.326510429E0
4.511108136E1,4.416060448E-1,7.368592262E0,-4.766780376E0
4.516108136E1,-8.717236519E0,-1.202879810E1,1.509518814E1
4.521108136E1,1.371680737E0,2.462349892E0,3.860190392E0
4.526108136E1,5.649716258E-1,-7.443487167E0,2.310597420E0
4.531108136E1,-3.352010727E0,4.161750317E0,-1.663436699E1
4.536108136E1,1.422854185E0,-4.706850052E-1,-1.309175777E1
4.541108136E1,5.789864063E0,-6.716587067E0,1.415789366E0
4.546108136E1,4.811968327E0,1.826275826E0,2.718687057E-3
4.551108136E1,-2.926454782E0,2.856809616E0,3.485902786E0
4.556108136E1,-2.418110609E0,1.050676346E0,6.977415085E-2
4.561108136E1,8.180653304E-2,1.444750786E0,-6.503664255E-1
4.566108136E1,4.360725880E0,-2.129423141E0,6.861436844E0
4.571108136E1,5.336057186E0,-4.751642227E0,4.847509861E0
4.576108136E1,-1.721561849E-1,-5.380702972E0,9.962682724E0
4.581108136E1,1.889630407E-1,-6.538285255E0,2.778067112E0
4.586108136E1,-2.980267286E0,-7.155845642E0,-6.897895336E0
4.591108136E1,-3.142294645E0,-6.755502701E0,-2.717555523E0
4.596108136E1,-5.889334679E-1,1.660089016E0,-6.132681847E0
4.601108136E1,3.592132807E0,4.656996727E0,-6.894330025E0
4.606108136E1,3.774405003E0,6.978278160E0,-7.153656006E0
4.611108136E1,9.699742794E-1,7.662958622E0,-7.178982258E0
4.616108136E1,-1.926477313E0,2.605208397E0,7.464781761E0
4.621108136E1,-2.509468079E0,-1.569829655E1,8.885545731E0
4.626108136E1,-3.469529629E0,2.387838364E-1,3.498857975E0
4.631108136E1,-1.925469518E0,-7.248935699E-1,-1.724445152E1
4.636108136E1,-3.111541271E0,-4.092187881E-1,-3.561925411E0
4.641108136E1,5.354360104E0,-4.691592216E0,-3.687732935E0
4.646108136E1,7.367439747E0,-1.018340111E0,4.820122719E-1
4.651108136E1,-1.372201324E0,2.965192795E0,3.870385885E0
4.656108136E1,-3.061516762E0,1.414742470E0,2.054318666E0
4.661108136E1,-1.643260717E0,7.325153351E-1,-1.208908200E0
4.666108136E1,2.900972366E0,-2.425146103E-1,4.465919495E0
4.671108136E1,6.921759605E0,-2.143407822E0,6.858133316E0
4.676108136E1,1.056973934E0,-5.470729828E0,5.883776188E0
4.681108136E1,4.825045466E-1,-5.227806091E0,8.009894371E0
4.686108136E1,1.838677049E0,-7.449474335E0,-9.095359802E0
4.691108136E1,-3.263193369E0,-8.079589844E0,6.309071779E-1
4.696108136E1,-1.430683851E0,-1.582874298E0,-4.099409580E0
4.701108136E1,8.431349993E-1,3.821395874E0,-5.061211109E0
4.706108136E1,5.127044678E0,6.181348324E0,-7.742924690E0
4.711108136E1,1.264860749E0,8.275291443E0,-7.008539200E0
4.716108136E1,3.585541248E-1,6.288012028E0,-2.698767662E0
4.721108136E1,-1.030604362E1,-1.999660683E1,1.149453068E1
4.726108136E1,6.605080366E-1,2.691246986E0,1.233695984E0
4.731108136E1,-9.828191996E-1,-4.825731277E0,-6.557128429E-1
4.736108136E1,-3.765338898E0,-6.357765198E-1,-1.315265560E1
4.741108136E1,3.059061766E0,2.163877964E0,-1.153639603E1
4.746108136E1,4.885958195E0,-6.654026031E0,9.993379116E-1
4.751108136E1,5.475302696E0,1.914326668E0,-1.551681161E-1
4.756108136E1,-3.781578541E0,3.076909065E0,4.566562176E0
4.761108136E1,-3.193114519E0,1.337459564E0,2.369551420E0
4.766108136E1,1.503779173E0,1.410115242E0,-2.616540909E0
4.771108136E1,4.076688766E0,-2.095648766E0,5.052435875E0
4.776108136E1,4.505737305E0,-2.798711777E0,6.317920208E0
4.781108136E1,7.224309444E-1,-6.508216858E0,8.364420891E0
4.786108136E1,2.750353336E0,-6.702432632E0,4.269244671E0
4.791108136E1,-1.291279793E0,-7.502682686E0,-7.982421875E0
4.796108136E1,-3.370049953E0,-7.225955009E0,-1.580087662E0
4.801108136E1,-1.071853042E-1,2.133054733E-1,-4.134806633E0
4.806108136E1,2.601306438E0,4.081938267E0,-5.251658916E0
4.811108136E1,5.118839264E0,6.011895180E0,-7.152002811E0
4.816108136E1,7.888922691E-1,7.973030567E0,-7.595755577E0
4.821108136E1,2.030017376E-1,5.763108730E0,2.001247406E0
4.826108136E1,-7.126016617E0,-2.601177788E1,9.602077484E0
4.831108136E1,-1.406501889E0,5.619307518E0,2.182158470E0
4.836108136E1,-4.451247215E0,-6.961789131E0,-1.598612976E1
4.841108136E1,-1.129049897E0,4.201054573E0,-4.958840847E0
4.846108136E1,7.821005344E0,-4.129973412E0,-7.467609406E0
4.851108136E1,6.985114574E0,-2.297019005E0,-4.451369047E-1
4.856108136E1,-1.694729328E0,3.435302258E0,8.979933262E-1
4.861108136E1,-4.883642673E0,2.976417542E0,4.291514874E0
4.866108136E1,7.063493133E-3,2.984294891E-1,-1.171691418E0
4.871108136E1,1.944388151E0,5.828542709E-1,7.540178299E-1
4.876108136E1,5.774322033E0,-3.406460762E0,9.825531960E0
4.881108136E1,9.259634018E-1,-5.436357498E0,4.223626137E0
4.886108136E1,2.985629559E0,-4.699039459E0,7.510633469E0
4.891108136E1,-7.348676324E-1,-5.752124786E0,-1.552851200E0
4.896108136E1,-3.964657068E0,-7.627233505E0,-4.542092800E0
4.901108136E1,-2.834407091E0,-5.004858017E0,-4.008487701E0
4.906108136E1,9.158236980E-1,1.226193428E0,-5.255901337E0
4.911108136E1,4.281180859E0,4.332391739E0,-7.177702904E0
4.916108136E1,2.252510548E0,7.829554558E0,-7.397622108E0
4.921108136E1,1.216194034E0,8.213512421E0,-7.010691643E0
4.926108136E1,-5.824261189E0,-4.470415115E0,1.241856670E1
4.931108136E1,1.730897903E0,-5.695620537E0,8.034990311E0
4.936108136E1,-2.101918697E0,-4.759063721E-1,3.959599972E0
4.941108136E1,-2.046619415E0,1.494702339E0,-1.608179092E1
4.946108136E1,-8.431314230E-1,9.987416267E-1,-8.584626198E0
4.951108136E1,4.121434212E0,-4.859993935E0,-2.497514486E0
4.956108136E1,7.877144814E0,-8.866596222E-2,-8.760677576E-1
4.961108136E1,-2.083366871E0,3.541305542E0,4.187584400E0
4.966108136E1,-3.329253435E0,1.040644646E0,1.746615648E0
4.971108136E1,-2.005665302E0,6.821546555E-1,-9.309706688E-1
4.976108136E1,3.078011990E0,-6.832160950E-1,3.974996567E0
4.981108136E1,6.682540894E0,-1.590746880E0,5.880949020E0
4.986108136E1,1.003592134E0,-5.022369385E0,7.238149643E0
4.991108136E1,1.652091980E0,-5.478815079E0,7.964446068E0
4.996108136E1,1.496034503E0,-9.136756897E0,-9.438480377E0
5.001108136E1,-5.027306557E0,-6.938344002E0,1.717508435E0
5.006108136E1,-3.411312819E0,-1.880331993E0,-4.420001030E0
5.011108136E1,1.281136036E0,3.894906044E0,-6.002471924E0
5.016108136E1,6.455958366E0,4.571923256E0,-7.329710960E0
5.021108136E1,9.309418797E-1,8.811100960E0,-7.814879894E0
5.026108136E1,6.337268353E-1,7.544935226E0,-4.119392872E0
5.031108136E1,-1.428828144E1,-2.122894478E1,1.097404385E1
5.036108136E1,-1.132919073E0,3.078943253E0,1.267909527E0
5.041108136E1,-1.257858276E-1,-9.177474976E0,-1.668243885E0
5.046108136E1,-2.714101553E0,5.046278954E0,-1.143133926E1
5.051108136E1,3.301517963E0,-2.672959328E0,-1.289898300E1
5.056108136E1,7.397821426E0,-5.405200005E0,5.864014626E-1
5.061108136E1,2.887156010E0,2.687282562E0,1.375002861E0
5.066108136E1,-3.486227989E0,2.413721085E0,2.930923462E0
5.071108136E1,-3.222824812E0,1.476243973E0,1.309213758E0
5.076108136E1,4.850445688E-1,1.336969376E0,-1.162682056E0
5.081108136E1,3.939899683E0,-1.612510681E0,5.835640907E0
5.086108136E1,4.818754196E0,-4.502417564E0,4.716747284E0
5.091108136E1,-9.522259235E-2,-4.000290871E0,9.285623550E0
5.096108136E1,1.646227837E0,-6.020869255E0,4.287788391E0
5.101108136E1,-3.142920256E0,-8.258457184E0,-8.266058922E0
5.106108136E1,-3.235335350E0,-6.050514221E0,-3.655006170E0
5.111108136E1,2.967132926E-1,9.908905029E-1,-4.924048424E0
5.116108136E1,3.672857523E0,3.988708496E0,-7.297667980E0
5.121108136E1,3.329306602E0,7.302731514E0,-7.467476845E0
5.126108136E1,1.025652647E0,8.940828323E0,-7.387569427E0
5.131108136E1,-7.743988037E-1,3.700346947E0,5.030274391E0
5.136108136E1,-1.755121708E0,-1.559646034E1,9.122334480E0
5.141108136E1,-3.033380985E0,3.989393234E0,3.850686073E0
5.146108136E1,-3.911087036E0,-6.679449081E0,-1.590235329E1
5.151108136E1,-8.293360472E-1,1.870925903E0,-5.108647823E0
5.156108136E1,4.403524399E0,-5.147912025E0,-2.562263966E0
5.161108136E1,8.574104309E0,-4.833536148E-1,-8.751239777E-1
5.166108136E1,-1.575283408E0,3.220517159E0,3.594551086E0
5.171108136E1,-3.708048582E0,1.131118774E0,2.945123911E0
5.176108136E1,-1.291698933E0,1.270009995E0,-2.173715353E0
5.181108136E1,1.426201463E0,3.553600311E-1,3.917353392E0
5.186108136E1,7.919226646E0,-3.034635544E0,7.502085686E0
5.191108136E1,1.199883103E0,-6.061641693E0,7.019077778E0
5.196108136E1,2.181715727E0,-6.658857346E0,5.975224495E0
5.201108136E1,-3.658674955E-1,-8.193094254E0,-9.708711624E0
5.206108136E1,-4.504793644E0,-6.939142227E0,2.177685499E0
5.211108136E1,-2.127550602E0,-1.030149460E0,-3.837861538E0
5.216108136E1,2.114123106E0,4.244624138E0,-5.614454269E0
5.221108136E1,6.120591640E0,6.289712429E0,-7.590919495E0
5.226108136E1,1.382771492E0,8.829463005E0,-7.525578499E0
5.231108136E1,1.476799846E0,6.941533089E0,-3.464321613E0
5.236108136E1,-1.451621819E1,-2.156604767E1,1.325929260E1
5.241108136E1,-8.230948448E-2,4.851412296E0,-5.836586952E-1
5.246108136E1,-2.458117008E0,-6.928484917E0,-5.452194214E0
5.251108136E1,-1.398190260E0,2.780169487E0,-1.261645412E1
5.256108136E1,4.558324814E0,-1.602294922E0,-1.137373257E1
5.261108136E1,6.637791157E0,-5.769703865E0,7.852530479E-2
5.266108136E1,2.924349785E0,2.224216461E0,1.269853115E0
5.271108136E1,-4.058684826E0,3.712127686E0,1.831141949E0
5.276108136E1,-2.309792757E0,1.419191360E0,2.133115292E0
5.281108136E1,-4.985585809E-2,8.722200394E-1,-6.379157305E-1
5.286108136E1,4.115011692E0,-2.142318726E0,5.332439899E0
5.291108136E1,6.604710579E0,-3.919094086E0,5.339754105E0
5.296108136E1,5.107954741E-1,-5.322813988E0,8.570960045E0
5.301108136E1,1.387453079E0,-7.019326210E0,4.573425770E0
5.306108136E1,-2.313087463E0,-7.128592491E0,-7.893405914E0
5.311108136E1,-3.319247246E0,-7.031317711E0,-6.443390846E-1
5.316108136E1,2.394727945E0,7.716464996E-1,-4.922713280E0
5.321108136E1,3.062771320E0,4.095860481E0,-6.388029099E0
5.326108136E1,4.326985836E0,7.304955482E0,-7.682232857E0
5.331108136E1,1.628832221E0,8.578105927E0,-7.253406525E0
5.336108136E1,2.713972330E-1,4.412824154E0,1.543471813E0
5.341108136E1,-6.666982651E0,-2.770974541E1,1.042961788E1
5.346108136E1,-1.346900463E0,6.445342541E0,1.356562614E0
5.351108136E1,-2.555556536E0,-8.019752502E0,-1.937951469E1
5.356108136E1,-3.593822956E0,3.032767296E0,-7.643013477E0
5.361108136E1,5.878870010E0,-4.145415306E0,-7.692669868E0
5.366108136E1,7.280092716E0,-3.234415054E0,3.920713663E-1
5.371108136E1,-6.999114752E-1,3.612555981E0,1.388023615E0
5.376108136E1,-2.925628424E0,3.056987762E0,2.947648287E0
5.381108136E1,-2.294806093E-1,2.540664673E-1,1.214248538E-1
5.386108136E1,1.760288715E0,1.828458309E0,-2.317574263E0
5.391108136E1,3.418564796E0,-3.079160690E0,9.366894722E0
5.396108136E1,2.521558046E0,-5.537369728E0,4.947295189E0
5.401108136E1,2.961987019E0,-4.876107216E0,6.922186375E0
5.406108136E1,-9.308121204E-1,-7.234239578E0,-5.318468094E0
5.411108136E1,-3.871727228E0,-6.934957504E0,-2.223889828E0
5.416108136E1,-6.654251814E-1,-3.845100403E0,-4.312910080E0
5.421108136E1,5.850554109E-1,2.654944420E0,-5.865056038E0
5.426108136E1,4.684615612E0,6.066062450E0,-6.854863167E0
5.431108136E1,2.101316690E0,8.099134445E0,-7.848657608E0
5.436108136E1,1.128434896E0,7.529391766E0,-6.186447620E0
5.441108136E1,-6.112340450E0,-5.706956863E0,1.719686127E1
5.446108136E1,3.789481640E0,-7.551780701E0,8.164259911E0
5.451108136E1,5.485785007E-1,4.389307499E0,1.857034206E0
5.456108136E1,-4.619161129E0,-6.113100052E0,-1.199491978E1
5.461108136E1,-2.836087704E0,2.827125549E0,-4.940597534E0
5.466108136E1,7.184664726E0,-2.693660736E0,-4.825721741E0
5.471108136E1,7.273875237E0,-2.541565895E0,1.551410913E0
5.476108136E1,-1.441405058E0,3.008227348E0,2.499532700E0
5.481108136E1,-4.751192093E0,2.220471382E0,3.327086210E0
5.486108136E1,-3.119440675E-1,7.137622833E-1,-2.619178534E0
5.491108136E1,2.070309877E0,-1.021895409E0,3.555071831E0
5.496108136E1,7.191308022E0,-2.981083870E0,8.463084221E0
5.501108136E1,2.242026091E0,-6.428266525E0,6.612639904E0
5.506108136E1,4.732871056E0,-7.054758072E0,3.151613235E0
5.511108136E1,-3.472160101E0,-9.112598419E0,-9.593646049E0
5.516108136E1,-3.905221701E0,-7.647157669E0,9.304487705E-1
5.521108136E1,6.761285067E-1,-4.917421341E-1,-5.528586388E0
5.526108136E1,1.714381933E0,3.738575935E0,-7.100838661E0
5.531108136E1,5.054019928E0,7.061082840E0,-8.208076477E0
5.536108136E1,1.354687572E0,9.458720207E0,-8.735995293E0
5.541108136E1,1.187343359E0,5.696369648E0,1.658744335E0
5.546108136E1,-1.072566223E1,-2.919137955E1,8.363439560E0
5.551108136E1,-1.175588727E0,5.827500343E0,3.147376537E0
5.556108136E1,-3.370895863E0,-2.981337547E0,-1.745597839E1
5.561108136E1,-1.468610525E0,1.133669853E0,-5.131568432E0
5.566108136E1,6.422168732E0,-6.313445091E0,-5.396928787E0
5.571108136E1,4.356178761E0,-6.423645020E-1,6.250863075E-1
5.576108136E1,-2.054313421E0,3.599444389E0,2.990534008E-1
5.581108136E1,-3.336271286E0,2.036962509E0,3.592097759E0
5.586108136E1,-1.122872084E-1,1.413669586E-1,-2.298159122E0
5.591108136E1,1.910570860E0,4.343986511E-3,1.141699433E0
5.596108136E1,5.579364300E0,-3.852241516E0,9.238382339E0
5.601108136E1,3.084888458E-1,-5.822647095E0,5.849151611E0
5.606108136E1,5.010529041E0,-6.665910721E0,4.256936073E0
5.611108136E1,-2.017742634E0,-5.945049286E0,-7.311262608E0
5.616108136E1,-5.460613728E0,-7.284729004E0,1.369980216E0
5.621108136E1,-2.523433566E-1,-2.108881950E0,-3.575810432E0
5.626108136E1,1.943525821E-1,3.150627136E0,-6.751706123E0
5.631108136E1,4.748501301E0,5.565928459E0,-7.522511482E0
5.636108136E1,1.152257919E0,7.286779404E0,-8.023082733E0
5.641108136E1,1.052516937E0,7.066720009E0,-5.129622936E0
5.646108136E1,-8.869853020E0,-1.151216602E1,9.824612617E0
5.651108136E1,5.277799368E-1,-1.520246506E0,5.119959831E0
5.656108136E1,-1.770824432E0,-3.699357033E0,1.231319904E0
5.661108136E1,-1.612294436E0,3.887659073E0,-1.504578018E1
5.666108136E1,-1.396607280E0,8.529615402E-1,-7.480504513E0
5.671108136E1,5.935596943E0,-4.418490410E0,-2.984490871E0
5.676108136E1,5.372785091E0,3.926372528E-2,2.552357674E0
5.681108136E1,-2.148901463E0,3.759246826E0,7.283157110E-2
5.686108136E1,-3.733402014E0,1.659405708E0,3.213931561E0
5.691108136E1,-2.260191441E-1,1.064756393E0,-2.877055168E0
5.696108136E1,1.501728892E0,-1.711366653E0,4.187025070E0
5.701108136E1,7.535796642E0,-4.656816483E0,7.628323555E0
5.706108136E1,7.832434177E-1,-4.673746109E0,7.553310394E0
5.711108136E1,3.263429642E0,-5.516741753E0,4.383111954E0
5.716108136E1,-4.680618644E-1,-8.184972763E0,-9.139599800E0
5.721108136E1,-3.529706240E0,-6.812094688E0,-1.267238498E0
5.726108136E1,-5.615202188E-1,-2.923040390E-1,-5.043194771E0
5.731108136E1,2.042472124E0,4.485678196E0,-6.058225632E0
5.736108136E1,4.964315891E0,6.496264935E0,-7.904606342E0
5.741108136E1,8.801606297E-1,9.067508698E0,-8.136399269E0
5.746108136E1,1.050951958E0,6.420213699E0,2.124756336E0
5.751108136E1,-7.225774288E0,-2.240135574E1,9.243763924E0
5.756108136E1,-3.188851118E0,3.350835800E0,2.671066761E0
5.761108136E1,-3.877905846E0,-4.765135765E0,-1.571972942E1
5.766108136E1,-1.770049810E0,7.968053818E-1,-5.035677433E0
5.771108136E1,4.859414101E0,-4.251055717E0,-6.620296478E0
5.776108136E1,8.395772934E0,-1.763173103E0,2.301352262E0
5.781108136E1,2.283230573E-1,4.397333622E0,1.108534455E0
5.786108136E1,-2.916157722E0,2.052708626E0,1.917956114E0
5.791108136E1,-1.678292990E0,7.820425034E-1,2.946362495E-1
5.796108136E1,1.597016096E0,-5.352067947E-1,3.442122459E0
5.801108136E1,6.320966721E0,-3.344422340E0,9.548552513E0
5.806108136E1,1.639638901E0,-6.871794701E0,6.240330696E0
5.811108136E1,2.298979998E0,-7.347396851E0,4.378733635E0
5.816108136E1,-3.410832644E0,-6.591219902E0,-6.697876930E0
5.821108136E1,-6.947561264E0,-9.056295395E0,4.827810526E-1
5.826108136E1,1.015977621E0,-7.815771103E-1,-4.428155899E0
5.831108136E1,1.210174799E0,4.249482155E0,-5.277247429E0
5.836108136E1,6.626199245E0,5.865548134E0,-7.715546608E0
5.841108136E1,1.667814612E0,8.241718292E0,-8.062361717E0
5.846108136E1,5.924175978E-1,6.112280846E0,-5.750266552E0
5.851108136E1,-6.008566856E0,-7.101531029E0,2.031635475E1
5.856108136E1,1.710689068E0,-2.626055717E0,4.457047462E0
5.861108136E1,-8.374502182E0,-2.988997459E0,5.715001106E0
5.866108136E1,4.642350197E0,4.431505203E0,-2.291925812E1
5.871108136E1,-2.295242786E0,-5.476718903E0,-9.325089455E0
5.876108136E1,4.825662613E0,-6.478558540E0,-1.510319471E0
5.881108136E1,6.295591354E0,-4.829483032E-1,2.864543200E-1
5.886108136E1,-1.391493917E0,3.547733307E0,2.330496550E0
5.891108136E1,-2.637866020E0,2.416508675E0,3.134746313E0
5.896108136E1,-1.036312819E0,1.100392342E0,-1.446290016E0
5.901108136E1,1.833505034E0,-8.553934097E-1,3.711500645E0
5.906108136E1,5.164090633E0,-1.618020058E0,6.764752388E0
5.911108136E1,3.481493950E0,-6.211936951E0,3.846810341E0
5.916108136E1,1.700744510E0,-5.177753448E0,6.482181549E0
5.921108136E1,-3.309870481E0,-5.177129745E0,-3.597608805E0
5.926108136E1,-4.969511986E0,-8.946370125E0,-1.440577149E0
5.931108136E1,-9.005761147E-1,-3.300108910E0,-2.679503202E0
5.936108136E1,-3.944150209E-1,1.963362217E0,-5.155664444E0
5.941108136E1,4.646927357E0,6.007946491E0,-7.555318356E0
5.946108136E1,2.318928242E0,8.209676743E0,-7.271023750E0
5.951108136E1,1.404393554E0,7.048511028E0,-6.155191422E0
5.956108136E1,-3.877392769E0,-2.967031479E0,1.326300240E1
5.961108136E1,1.958223581E0,-4.600722313E0,5.869370937E0
5.966108136E1,-9.773187637E-1,5.860602856E0,3.453545570E0
5.971108136E1,-3.364058971E0,-1.131660461E1,-1.121113300E1
5.976108136E1,-3.718731403E0,2.828825951E0,-7.647284508E0
5.981108136E1,3.115727186E0,9.266529083E-1,-1.004466057E1
5.986108136E1,7.962367535E0,-6.418405533E0,6.145918369E-2
5.991108136E1,1.672318935E0,3.909831524E0,2.433335781E0
5.996108136E1,-3.888731241E0,2.331480980E0,2.956374645E0
6.001108136E1,-2.971329212E0,1.219491005E0,-1.431394458E0
6.006108136E1,2.382433176E0,7.725133896E-1,3.740153313E0
6.011108136E1,6.135955811E0,-2.801940918E0,7.737229347E0
6.016108136E1,3.838572979E0,-4.917307854E0,3.017173052E0
6.021108136E1,3.468983412E0,-4.670603752E0,5.681874275E0
6.026108136E1,-2.345329046E0,-6.516139030E0,-7.697241306E-1
6.031108136E1,-5.288992882E0,-7.984105110E0,-4.870488167E0
6.036108136E1,-7.969676852E-1,-2.292712212E0,-2.789621353E0
6.041108136E1,5.004212856E-1,1.863357544E0,-5.682743549E0
6.046108136E1,3.291747808E0,5.504763603E0,-7.376371384E0
6.051108136E1,1.581401110E0,7.563231945E0,-6.898207188E0
6.056108136E1,2.723377943E-1,8.104167938E0,-6.538481712E0
6.061108136E1,-1.472352386E0,-1.249055862E-1,1.171821404E1
6.066108136E1,2.286961794E0,-8.125200272E0,7.375853062E0
6.071108136E1,-2.886864901E0,3.185985565E0,9.109892845E-1
6.076108136E1,-2.699135542E0,-6.300544739E-1,-1.411891079E1
6.081108136E1,-3.672782660E0,-7.543201447E-1,-9.594418526E0
6.086108136E1,5.891622066E0,-6.736016273E0,-2.972501278E0
6.091108136E1,7.484325409E0,-3.099880219E-1,2.244915247E0
6.096108136E1,-2.951564550E0,3.525441647E0,2.434509039E0
6.101108136E1,-4.586287022E0,1.966252327E0,1.845937490E0
6.106108136E1,4.838485122E-1,5.529384613E-1,4.283589125E-1
6.111108136E1,4.407128334E0,-1.749172211E0,5.006714344E0
6.116108136E1,5.821569443E0,-2.558916092E0,8.040817261E0
6.121108136E1,2.016807079E0,-6.259964943E0,8.235944748E0
6.126108136E1,-1.583490372E-1,-7.482427597E0,4.288064003E0
6.131108136E1,-2.048115253E0,-8.158974648E0,-1.043200302E1
6.136108136E1,-3.014964342E0,-7.978744507E0,1.244639397E0
6.141108136E1,1.349826574E0,7.605228424E-1,-5.684403419E0
6.146108136E1,1.885896564E0,4.239082813E0,-5.409147263E0
6.151108136E1,6.740196228E0,7.413554668E0,-8.038196564E0
6.156108136E1,1.614951849E0,9.374238014E0,-8.349972725E0
6.161108136E1,3.664205074E-1,5.437680721E0,1.698078632E0
6.166108136E1,-1.002180672E1,-2.701098442E1,5.802385807E0
6.171108136E1,-4.411736965E0,4.819192886E0,2.984231949E0
6.176108136E1,-3.176717758E-1,-3.338089943E0,-1.924693108E1
6.181108136E1,-3.897758961E0,1.600354195E0,-5.869008064E0
6.186108136E1,5.315728188E0,-4.655718803E0,-6.400407314E0
6.191108136E1,9.722387314E0,-2.377942085E0,5.022993088E-1
6.196108136E1,1.360073447E0,3.992327690E0,1.007680893E0
6.201108136E1,-4.379482746E0,2.280348778E0,4.164865017E0
6.206108136E1,-2.356447458E0,1.005633354E0,-2.047901154E0
6.211108136E1,1.012423277E0,1.703904152E0,3.318065405E-1
6.216108136E1,6.032007694E0,-4.544281006E0,9.319805145E0
6.221108136E1,2.266066074E0,-6.891120911E0,5.662445068E0
6.226108136E1,3.299545527E0,-6.475143433E0,6.533116341E0
6.231108136E1,-1.672466040E0,-6.285179138E0,-3.928451538E0
6.236108136E1,-4.913148403E0,-8.294835091E0,-2.435268402E0
6.241108136E1,-2.421388865E0,-4.419533730E0,-3.808140516E0
6.246108136E1,9.177165031E-1,2.207048416E0,-5.972797394E0
6.251108136E1,6.191963673E0,6.049526215E0,-9.850524902E0
6.256108136E1,1.693349481E0,8.414901733E0,-8.669142723E0
6.261108136E1,8.487584591E-1,7.716037273E0,-4.513703346E0
6.266108136E1,-9.849681854E0,-1.141171169E1,1.147663307E1
6.271108136E1,2.469564676E-1,-1.961879730E0,4.146652222E0
6.276108136E1,-3.476026297E0,-3.991024017E0,-7.791527748E0
6.281108136E1,-2.271277189E0,1.449558735E0,-1.397769451E1
6.286108136E1,1.585430622E0,-1.256626129E0,-1.131484413E1
6.291108136E1,5.560069561E0,-5.381371498E0,3.106889725E-1
6.296108136E1,4.340323925E0,1.814274311E0,1.454257488E0
6.301108136E1,-3.922235489E0,2.789817810E0,9.982293844E-1
6.306108136E1,-1.742586017E0,1.187054634E0,2.875996113E0
6.311108136E1,3.335976303E-1,2.248788834E0,-3.501150370E0
6.316108136E1,3.308728933E0,-2.061297417E0,4.168745518E0
6.321108136E1,6.123004436E0,-4.728277206E0,7.292242050E0
6.326108136E1,2.904141188E0,-7.063927650E0,7.082098961E0
6.331108136E1,1.174954295E0,-6.344511986E0,4.057994843E0
6.336108136E1,-3.105978489E0,-6.657129288E0,-8.739863396E0
6.341108136E1,-3.792322397E0,-6.979064941E0,5.403553247E-1
6.346108136E1,8.299053907E-1,-4.969081879E-1,-4.608052254E0
6.351108136E1,1.631222725E0,4.377062798E0,-6.389656067E0
6.356108136E1,5.126811981E0,5.498939514E0,-7.612118721E0
6.361108136E1,1.360453963E0,7.624482632E0,-8.133606911E0
6.366108136E1,6.121957302E-1,5.774541855E0,1.552686691E-1
6.371108136E1,-1.105955791E1,-2.063598633E1,9.766124725E0
6.376108136E1,-1.960826993E0,2.590841293E0,2.309598923E0
6.381108136E1,-2.315021038E0,-1.009179211E1,-9.005443573E0
6.386108136E1,-1.225243449E0,6.759521961E0,-1.246580505E1
6.391108136E1,5.549415588E0,-6.115052223E0,-9.769379616E0
6.396108136E1,4.191876888E0,-1.083358765E0,5.272097588E-1
6.401108136E1,-6.800616980E-1,2.727106571E0,7.331930399E-1
6.406108136E1,-2.912891388E0,2.270220757E0,1.346376896E0
6.411108136E1,9.250445366E-1,7.344360352E-1,1.546915054E0
6.416108136E1,7.995162606E-1,1.679214478E0,-3.536408901E0
6.421108136E1,1.938507318E0,-2.719718933E0,6.479923248E0
6.426108136E1,4.689151287E0,-3.551203728E0,4.538969994E0
6.431108136E1,-1.329239488E0,-6.545976639E0,6.728714466E0
6.436108136E1,2.933493614E0,-5.728902817E0,4.793797016E0
6.441108136E1,-8.807834983E-1,-4.172638893E0,-8.801991463E0
6.446108136E1,-2.892812252E0,-6.750561714E0,-2.554786205E-1
6.451108136E1,1.017696500E0,-1.083410263E0,-3.851582050E0
6.456108136E1,1.119798064E0,4.537577629E0,-5.587579727E0
6.461108136E1,3.930299759E0,5.933554173E0,-6.020441055E0
6.466108136E1,1.261802435E0,6.721663475E0,-6.917329788E0
6.471108136E1,7.048061490E-1,5.893098831E0,-1.162244081E0
6.476108136E1,-9.002980232E0,-1.567408562E1,1.135979939E1
6.481108136E1,-9.267185926E-1,8.723168373E-1,2.338638783E0
6.486108136E1,-1.834201336E0,-7.821685791E0,8.815665245E-1
6.491108136E1,-2.281638145E0,4.012304783E0,-1.344979095E1
6.496108136E1,1.464097023E0,1.768985748E0,-6.835978508E0
6.501108136E1,7.448842049E0,-5.320587158E0,7.360917330E-1
6.506108136E1,2.379646063E0,1.907314301E0,1.294675708E0
6.511108136E1,-3.118142128E0,3.180023193E0,2.869689465E0
6.516108136E1,-4.948881269E-1,-1.008968353E-1,2.067988873E0
6.521108136E1,-3.929449618E-1,1.214638710E0,-3.811154127E0
6.526108136E1,7.766172886E-1,-2.628506660E0,3.612303019E0
6.531108136E1,5.016790867E0,-4.575277328E0,5.759615898E0
6.536108136E1,3.970017195E0,-5.617160797E0,4.496145248E0
6.541108136E1,5.734559894E-1,-4.441851616E0,2.463397503E0
6.546108136E1,-3.431209087E0,-6.829927444E0,-8.896046638E0
6.551108136E1,-5.053275108E0,-5.832962036E0,-1.601889610E0
6.556108136E1,8.480021954E-1,5.063581467E-1,-4.356000423E0
6.561108136E1,3.547784567E0,5.139423370E0,-6.690958023E0
6.566108136E1,3.358567238E0,5.650662899E0,-6.812350273E0
6.571108136E1,8.264726400E-1,7.572190285E0,-6.740717888E0
6.576108136E1,3.246978521E-1,4.528944492E0,3.067954063E0
6.581108136E1,-7.036128521E0,-1.845744133E1,8.249957085E0
6.586108136E1,-2.459253311E0,4.032318115E0,9.156746864E-1
6.591108136E1,-3.529512882E-2,-6.230997086E0,-6.124461174E0
6.596108136E1,-5.976395130E0,-3.185024261E-1,-1.207695675E1
6.601108136E1,2.123036623E0,2.042107582E0,-8.490386009E0
6.606108136E1,5.168810844E0,-4.885901451E0,-6.722517014E-1
6.611108136E1,4.583237171E0,1.349191666E0,2.928757429E0
6.616108136E1,-2.697562218E0,3.063311577E0,1.716833413E-1
6.621108136E1,-2.846226096E-1,1.121492386E-1,2.816360474E0
6.626108136E1,3.386408091E-3,2.152938366E0,-3.457060337E0
6.631108136E1,1.080722451E0,-2.132009506E0,4.828328609E0
6.636108136E1,5.613120556E0,-3.913862228E0,9.393540382E0
6.641108136E1,-8.943816423E-1,-6.705289841E0,7.625854492E0
6.646108136E1,2.864097118E0,-8.641948700E0,2.767601490E0
6.651108136E1,-1.557215333E0,-6.468551636E0,-7.531672001E0
6.656108136E1,-4.486986637E0,-7.826618195E0,-2.470189571E0
6.661108136E1,-1.869564354E-1,1.047495842E0,-5.069190979E0
6.666108136E1,4.359815598E0,5.060304165E0,-6.155530930E0
6.671108136E1,3.419119358E0,6.764501572E0,-7.280467987E0
6.676108136E1,7.660348415E-1,7.822185516E0,-8.339730263E0
6.681108136E1,3.094277382E-1,4.138806820E0,4.939997196E0
6.686108136E1,-7.756884575E0,-2.094160080E1,8.420418739E0
6.691108136E1,-2.272795677E0,5.959112167E0,2.749776840E-1
6.696108136E1,-2.266912460E0,-8.909166336E0,-1.161775970E1
6.701108136E1,-3.640360355E0,2.914375305E0,-8.522403717E0
6.706108136E1,3.933615685E0,-6.783876419E-1,-1.044733906E1
6.711108136E1,8.223612785E0,-5.110333443E0,1.647096872E-1
6.716108136E1,1.448160172E0,3.579966545E0,2.877177238E0
6.721108136E1,-3.299059391E0,1.835649490E0,2.335771322E0
6.726108136E1,-1.398433447E0,1.347632408E0,-9.275518656E-1
6.731108136E1,-5.870569944E-1,1.374620438E0,1.540927410E0
6.736108136E1,5.747748852E0,-4.564065933E0,9.746673584E0
6.741108136E1,2.419789553E0,-6.427255630E0,5.409452438E0
6.746108136E1,1.062287569E0,-5.378024101E0,8.150596619E0
6.751108136E1,-1.610352993E0,-8.094175339E0,-8.186503410E0
6.756108136E1,-3.786646128E0,-6.649112701E0,2.249344587E0
6.761108136E1,-1.576168537E0,-1.761303902E0,-4.516047478E0
6.766108136E1,3.788465858E-1,3.696204185E0,-5.514138222E0
6.771108136E1,5.857087135E0,5.680485249E0,-7.996914864E0
6.776108136E1,1.797600746E0,8.244297981E0,-7.566281319E0
6.781108136E1,3.337147236E-1,7.231777668E0,-5.210729122E0
6.786108136E1,-1.210642624E1,-1.133820915E1,9.627214432E0
6.791108136E1,8.407510519E-1,-2.141918182E0,3.074591637E0
6.796108136E1,-2.081038237E0,-5.093037605E0,4.058146954E0
6.801108136E1,-2.992524624E0,3.359306335E0,-1.568205261E1
6.806108136E1,2.828011513E0,-1.700847626E0,-1.208003616E1
6.811108136E1,7.347887516E0,-6.178560257E0,8.213105202E-1
6.816108136E1,5.392927647E0,2.343883514E0,1.350501060E0
6.821108136E1,-3.230891943E0,3.271229744E0,3.620941162E0
6.826108136E1,-3.202634096E0,6.906805038E-1,2.758406162E0
6.831108136E1,2.855945826E-1,1.295244217E0,-2.268746376E0
6.836108136E1,3.576283455E0,-2.271732330E0,5.474304199E0
6.841108136E1,6.681134701E0,-2.718832016E0,8.386087418E0
6.846108136E1,7.363802195E-2,-7.610723495E0,4.949632645E0
6.851108136E1,2.771932483E-1,-8.659482956E0,2.348752499E0
6.856108136E1,-3.800374269E0,-6.377865791E0,-7.083870411E0
6.861108136E1,-3.531645298E0,-7.343511581E0,-3.502225876E0
6.866108136E1,1.282738447E0,1.122891426E0,-4.464933395E0
6.871108136E1,5.230621338E0,5.315177441E0,-6.543284416E0
6.876108136E1,4.417729378E0,6.944246292E0,-7.322161198E0
6.881108136E1,9.869182110E-1,7.699842930E0,-7.602216244E0
6.886108136E1,-8.530820608E-1,4.048752785E0,3.575093269E0
6.891108136E1,-4.601167679E0,-1.738394737E1,8.876214027E0
6.896108136E1,-2.380519390E0,3.570648670E0,4.087780952E0
6.901108136E1,-2.989833355E0,-5.297894478E0,-1.431985664E1
6.906108136E1,-1.163692713E0,3.176955223E0,-6.186935425E0
6.911108136E1,6.242870331E0,-5.785727501E0,-4.703846931E0
6.916108136E1,8.678400993E0,-1.024567604E0,-3.374581933E-1
6.921108136E1,-2.035532713E0,3.999495506E0,1.749494076E0
6.926108136E1,-4.593056202E0,1.140416145E0,1.720578194E0
6.931108136E1,-1.540854216E0,2.347249985E-1,3.623247147E-2
6.936108136E1,2.276557684E0,-7.171154022E-1,4.784600258E0
6.941108136E1,1.135768890E1,-3.499713898E0,7.532750130E0
6.946108136E1,-7.556970716E-1,-7.497597694E0,7.346349716E0
6.951108136E1,1.570309758E0,-6.825238228E0,3.796710014E0
6.956108136E1,-3.226534367E0,-8.071488380E0,-9.549181938E0
6.961108136E1,-5.376238823E0,-6.866189003E0,1.115669608E0
6.966108136E1,-9.815030098E-1,1.091624260E0,-4.702161789E0
6.971108136E1,9.253329039E-1,2.790179253E0,-3.923162222E0
6.976108136E1,6.591689587E0,5.474121571E0,-6.888786316E0
6.981108136E1,1.777338982E0,8.364774704E0,-6.961551666E0
6.986108136E1,1.124865532E0,5.963644981E0,1.945388317E0
6.991108136E1,-1.065579510E1,-1.974824524E1,7.539732933E0
6.996108136E1,-3.175626755E0,2.815391541E0,5.682893276E0
7.001108136E1,-2.904681444E0,-5.387144089E0,-2.037474823E1
7.006108136E1,-3.121071815E0,9.939889908E-1,-2.489010572E0
7.011108136E1,7.447656631E0,-4.738707542E0,-5.987057686E0
7.016108136E1,7.913335800E0,-2.679049492E0,2.521359921E-1
7.021108136E1,-8.798209429E-1,4.195153236E0,1.717765689E0
7.026108136E1,-3.998079062E0,2.503659248E0,2.568308353E0
7.031108136E1,-1.662756324E0,6.381826401E-1,-7.176932096E-1
7.036108136E1,1.626704454E0,-7.944402695E-1,3.039533615E0
7.041108136E1,7.454100609E0,-3.650481224E0,6.407455444E0
7.046108136E1,1.180940032E0,-5.884308815E0,6.998046875E0
7.051108136E1,4.866321087E0,-7.211314201E0,5.328636169E0
7.056108136E1,-1.986383438E0,-7.302793503E0,-9.552483559E0
7.061108136E1,-4.724391937E0,-8.956505775E0,7.751735449E-1
7.066108136E1,8.650362492E-1,-1.521791458E0,-5.414775848E0
7.071108136E1,1.245342016E0,4.544470787E0,-5.317279339E0
7.076108136E1,4.916513443E0,5.939056396E0,-8.048860550E0
7.081108136E1,5.166346431E-1,7.824938297E0,-8.140281677E0
7.086108136E1,9.589750171E-1,5.878978252E0,1.745886803E-1
7.091108136E1,-8.036733627E0,-1.469660568E1,1.091722012E1
7.096108136E1,-8.267052174E-1,1.600077152E0,2.331503868E0
7.101108136E1,-2.933077097E0,-1.317864799E1,-6.961429596E0
7.106108136E1,-3.918734074E0,5.958111286E0,-1.219619179E1
7.111108136E1,3.015513182E0,-1.412237167E0,-1.371384716E1
7.116108136E1,8.098221779E0,-6.574917793E0,9.507732391E-1
7.121108136E1,3.153401136E0,2.068404198E0,2.828518629E0
7.126108136E1,-3.198153973E0,3.638315201E0,2.194942474E0
7.131108136E1,-3.451189756E0,1.234671593E0,2.697359562E0
7.136108136E1,3.347904980E-1,1.511932373E0,-2.728250742E0
7.141108136E1,3.496817350E0,-2.189807892E0,7.224691391E0
7.146108136E1,6.243557930E0,-5.842803001E0,4.371337891E0
7.151108136E1,9.899620414E-1,-5.345891953E0,8.159644127E0
7.156108136E1,1.271952510E0,-4.825716972E0,5.801798820E0
7.161108136E1,-3.725517988E0,-8.453286171E0,-6.905340672E0
7.166108136E1,-5.147676468E0,-6.308180809E0,-4.287651539E0
7.171108136E1,-5.740789771E-1,9.025688171E-1,-5.358096123E0
7.176108136E1,4.417169094E0,4.917070866E0,-6.784769058E0
7.181108136E1,4.306074142E0,6.218728065E0,-7.820190907E0
7.186108136E1,1.207840204E0,8.096714973E0,-7.618315220E0
7.191108136E1,-3.306416512E0,3.311898232E0,1.317144585E1
7.196108136E1,-9.678238630E-1,-1.538962746E1,6.662307739E0
7.201108136E1,-3.130297661E0,3.494159698E0,5.370961666E0
7.206108136E1,-1.210582852E0,-4.777787209E0,-1.553659248E1
7.211108136E1,-3.340055943E0,-9.678649902E-1,-5.510026932E0
7.216108136E1,6.975639343E0,-1.921812057E0,-7.664172173E0
7.221108136E1,6.387743950E0,-3.099326134E0,2.126836777E0
7.226108136E1,-5.073066354E-1,3.058037758E0,4.802790284E-1
7.231108136E1,-2.890759468E0,2.858802795E0,3.211853743E0
7.236108136E1,-8.307415247E-1,6.051702499E-1,-4.301285744E-1
7.241108136E1,1.874947309E0,1.141583443E0,1.420181513E0
7.246108136E1,5.154029369E0,-3.148650169E0,6.299599171E0
7.251108136E1,9.777979851E-1,-6.958053589E0,5.820771694E0
7.256108136E1,3.362857819E0,-5.559542656E0,5.433015823E0
7.261108136E1,-1.948754191E0,-6.951280594E0,-6.668079853E0
7.266108136E1,-4.788153172E0,-7.547102928E0,6.708376408E-1
7.271108136E1,5.537651181E-1,-1.490740776E0,-3.680377483E0
7.276108136E1,7.631701231E-1,3.472326756E0,-4.265420914E0
7.281108136E1,4.874082088E0,5.432723999E0,-7.212465286E0
7.286108136E1,1.313101530E0,7.251884460E0,-7.865816116E0
7.291108136E1,4.157648087E-1,6.458773136E0,-3.600479126E0
7.296108136E1,-6.372550011E0,-8.601853371E0,1.232168579E1
7.301108136E1,1.181628346E0,-2.508820534E0,5.724321842E0
7.306108136E1,6.025476456E-1,3.661661148E-1,5.137557983E-1
7.311108136E1,-4.139522076E0,-5.204562187E0,-1.360382843E1
7.316108136E1,-2.715679646E0,7.967519760E-1,-7.823137283E0
7.321108136E1,5.009390831E0,-3.676905632E0,-3.116863251E0
7.326108136E1,7.984283924E0,-1.204489708E0,6.694126129E-2
7.331108136E1,-1.716642976E0,3.758283615E0,3.101712227E0
7.336108136E1,-3.554218769E0,1.468453407E0,7.289490104E-1
7.341108136E1,-1.169165373E0,7.442560196E-1,-8.474677801E-1
7.346108136E1,3.773031235E0,-3.611221313E-1,5.862676620E0
7.351108136E1,5.845550537E0,-4.757686615E0,5.880508423E0
7.356108136E1,1.086401463E0,-6.939023972E0,8.456957817E0
7.361108136E1,1.676411510E0,-5.828857422E0,1.901259661E0
7.366108136E1,-5.142603874E0,-8.871957779E0,-8.070835114E0
7.371108136E1,-5.574659824E0,-4.661540985E0,-3.461284637E0
7.376108136E1,-1.137846828E0,1.731019974E0,-6.236737251E0
7.381108136E1,5.254078865E0,5.546713829E0,-6.891035080E0
7.386108136E1,3.989053011E0,5.962067127E0,-6.721761703E0
7.391108136E1,1.302597761E0,7.164885521E0,-7.540104866E0
7.396108136E1,-1.611263633E0,2.469367981E0,9.329430580E0
7.401108136E1,-4.341393948E0,-1.594384384E1,7.361343861E0
7.406108136E1,-4.700291634E0,1.945944786E0,5.546108246E0
7.411108136E1,-1.763166428E0,8.203392029E-1,-1.839806747E1
7.416108136E1,-2.834999084E0,-2.682152748E0,-6.233553410E0
7.421108136E1,6.312467575E0,-4.062333107E0,-6.542565346E0
7.426108136E1,7.161686897E0,-1.640243530E0,2.942070961E-1
7.431108136E1,-5.014038086E-2,3.599699020E0,2.082605362E0
7.436108136E1,-3.573610783E0,1.984817028E0,2.609075546E0
7.441108136E1,-3.212636113E-1,9.803371429E-1,1.609441519E0
7.446108136E1,1.253358841E0,1.328102112E0,-6.463699341E-1
7.451108136E1,4.286687374E0,-3.781402588E0,6.564739227E0
7.456108136E1,1.901934385E0,-6.104939461E0,5.147850037E0
7.461108136E1,1.106097221E0,-5.087481499E0,8.277688026E0
7.466108136E1,1.933240056E0,-7.198144913E0,-2.203586578E0
7.471108136E1,-5.088912487E0,-7.223139763E0,-1.538942337E0
7.476108136E1,-1.729450464E0,-3.195844650E0,-4.061408043E0
7.481108136E1,-2.215592563E-1,2.266793251E0,-4.972752571E0
7.486108136E1,5.597198486E0,5.910301685E0,-7.601460457E0
7.491108136E1,2.719595909E0,7.733290195E0,-7.380821228E0
7.496108136E1,1.103195190E0,7.617180824E0,-6.428979874E0
7.501108136E1,-6.155722141E0,-6.498922348E0,1.376386356E1
7.506108136E1,1.980167270E0,-6.014488220E0,6.878563881E0
7.511108136E1,-2.128953934E0,4.104747295E0,3.832254410E-1
7.516108136E1,-3.619228363E0,-3.641968727E0,-1.297482681E1
7.521108136E1,-3.442288637E-1,-8.236703873E-1,-9.148926735E0
7.526108136E1,5.682995796E0,-3.261569977E0,-3.890044212E0
7.531108136E1,5.356558800E0,-7.166862488E-3,1.237605214E0
7.536108136E1,-2.948565960E0,3.664158821E0,3.429097176E0
7.541108136E1,-2.572863102E0,2.016424179E0,2.540725708E0
7.546108136E1,1.126527667E0,6.351566315E-2,-1.560505390E0
7.551108136E1,3.342939138E0,-1.011156082E0,4.457620144E0
7.556108136E1,6.037392139E0,-2.576496124E0,6.976922989E0
7.561108136E1,-1.346821904E0,-6.590884209E0,7.620855331E0
7.566108136E1,3.569033146E0,-7.568151474E0,3.583509922E0
7.571108136E1,-1.230277896E0,-6.097270966E0,-8.528597832E0
7.576108136E1,-3.323789597E0,-7.356386185E0,9.206310511E-1
7.581108136E1,4.277437925E-1,-7.023448944E-1,-5.096268654E0
7.586108136E1,6.987791061E-1,4.096027374E0,-5.242392540E0
7.591108136E1,5.476871967E0,5.747118950E0,-6.582740784E0
7.596108136E1,1.788579702E0,7.586387634E0,-7.342728615E0
7.601108136E1,5.804742575E-1,6.386064529E0,-3.899413109E0
7.606108136E1,-1.097766495E1,-1.588329220E1,9.475864410E0
7.611108136E1,1.688271046E0,-2.587604523E-2,2.302897453E0
7.616108136E1,-3.673330545E-1,-3.288354874E0,4.909473419E0
7.621108136E1,-1.708697557E0,3.465408325E0,-1.504238701E1
7.626108136E1,-1.429287553E0,6.767845154E-1,-1.053956985E1
7.631108136E1,7.812909603E0,-4.335285187E0,-2.160384655E-1
7.636108136E1,4.731357098E0,1.381003380E0,1.565333843E0
7.641108136E1,-2.724814415E0,3.506802082E0,2.127647400E0
7.646108136E1,-3.146782398E0,1.472680092E0,1.739764690E0
7.651108136E1,5.862571597E-1,3.899774551E-1,-1.732272506E0
7.656108136E1,4.728896618E-1,-9.047632217E-1,3.550121784E0
7.661108136E1,6.611768723E0,-3.577597618E0,6.828063965E0
7.666108136E1,1.270659447E0,-5.860757828E0,8.552275658E0
7.671108136E1,3.601001024E0,-5.679883003E0,4.755363941E0
7.676108136E1,-1.028746605E0,-8.217457771E0,-9.406576157E0
7.681108136E1,-4.946008682E0,-6.709200859E0,8.306390047E-1
7.686108136E1,-6.935514808E-1,-8.472576141E-1,-4.810311794E0
7.691108136E1,1.562963605E0,4.065834999E0,-5.979371071E0
7.696108136E1,4.768736362E0,5.563699722E0,-7.517421722E0
7.701108136E1,9.146475792E-1,7.316855431E0,-7.669509888E0
7.706108136E1,1.193999767E0,4.976151466E0,-1.762485027E0
7.711108136E1,-8.988330841E0,-1.583564186E1,1.248180771E1
7.716108136E1,-4.514157772E-1,3.106059074E0,3.857160091E0
7.721108136E1,-2.489737511E0,-6.697117805E0,-1.648867226E1
7.726108136E1,-5.134067059E0,1.976140976E0,-5.552775383E0
7.731108136E1,3.317224026E0,-1.179653168E0,-1.340617561E1
7.736108136E1,6.267262459E0,-4.855337143E0,1.736557245E0
7.741108136E1,2.776635885E0,2.267938614E0,5.743989944E-1
7.746108136E1,-2.936340570E0,3.366621017E0,1.234649897E0
7.751108136E1,-2.056895971E0,4.304275513E-1,2.675102234E0
7.756108136E1,5.807223320E-1,2.211147308E0,-1.057381272E0
7.761108136E1,3.966787338E0,-2.307200432E0,4.915192604E0
7.766108136E1,5.061137676E0,-3.279235840E0,6.800203323E0
7.771108136E1,2.279971838E0,-6.689452171E0,7.196479797E0
7.776108136E1,6.445451081E-2,-7.187599182E0,3.568598509E0
7.781108136E1,-3.610686541E0,-6.743626595E0,-8.997424126E0
7.786108136E1,-2.441578865E0,-6.438311577E0,-2.447727680E0
7.791108136E1,-1.119877398E-1,2.351064682E-1,-5.711500168E0
7.796108136E1,1.823266029E0,5.009510994E0,-6.366980076E0
7.801108136E1,4.244016171E0,6.464318275E0,-6.817597389E0
7.806108136E1,9.026736021E-1,7.530664921E0,-6.959514618E0
7.811108136E1,6.472533941E-1,4.574200630E0,8.009872437E-1
7.816108136E1,-7.205478668E0,-1.957117844E1,1.032607269E1
7.821108136E1,-3.157486916E-1,5.752827644E0,1.255956173E0
7.826108136E1,-2.209631920E0,-8.948311806E0,-8.673707962E0
7.831108136E1,-4.431651115E0,3.059891701E0,-1.188398743E1
7.836108136E1,3.784082532E-1,7.872428894E-1,-9.977697372E0
7.841108136E1,7.329209328E0,-6.054109573E0,6.372468472E-1
7.846108136E1,2.936308384E0,2.359636307E0,1.499731541E0
7.851108136E1,-2.930980921E0,2.551179886E0,2.586883545E0
7.856108136E1,-4.056015491E0,6.905241013E-1,2.045502901E0
7.861108136E1,1.436874032E0,1.690005779E0,-1.196744680E0
7.866108136E1,4.226364136E0,-2.970720291E0,6.377274513E0
7.871108136E1,4.227427959E0,-5.191366196E0,6.138093472E0
7.876108136E1,1.633882761E0,-5.960683823E0,6.075279236E0
7.881108136E1,-9.383067489E-2,-5.512953758E0,7.220204473E-1
7.886108136E1,-3.780133963E0,-6.816087723E0,-7.724261761E0
7.891108136E1,-2.938200712E0,-4.645477295E0,-2.486874104E0
7.896108136E1,-8.530695438E-1,1.624685287E0,-5.343043327E0
7.901108136E1,2.805782318E0,5.624279022E0,-7.868988037E0
7.906108136E1,3.280635595E0,6.866926193E0,-6.482025146E0
7.911108136E1,4.915162325E-1,7.492407322E0,-7.017374516E0
7.916108136E1,-6.837350130E-1,3.300395966E0,7.965664864E0
7.921108136E1,-2.697525740E0,-1.549878788E1,7.125454903E0
7.926108136E1,-3.166029692E0,2.224046707E0,4.749396801E0
7.931108136E1,-1.342783928E0,-1.688215256E0,-1.849901581E1
7.936108136E1,-6.164485455E0,-1.389832497E0,-1.862071514E0
7.941108136E1,4.852637768E0,-4.119075775E0,-5.497489929E0
7.946108136E1,8.233453751E0,-2.370361328E0,1.141531944E0
7.951108136E1,-1.737855196E0,3.228933334E0,8.711551428E-1
7.956108136E1,-2.794198751E0,2.096808434E0,2.740467072E0
7.961108136E1,7.914894819E-2,1.022857666E0,1.441439986E0
7.966108136E1,7.252823710E-1,1.086915970E0,1.412959695E0
7.971108136E1,5.465393066E0,-3.428603172E0,7.333992004E0
7.976108136E1,3.453380585E0,-6.931812286E0,5.796643257E0
7.981108136E1,-1.294279337E0,-5.763393402E0,7.245141029E0
7.986108136E1,-1.262000918E0,-7.094050407E0,-6.311166286E0
7.991108136E1,-4.405466080E0,-6.775245667E0,-7.949810028E-1
7.996108136E1,-1.576823711E0,-2.702696800E0,-3.659530878E0
8.001108136E1,-1.732692122E-2,2.880830288E0,-5.282330513E0
8.006108136E1,4.044764996E0,5.832090855E0,-7.498189449E0
8.011108136E1,2.512837887E0,7.950493813E0,-6.932059288E0
8.016108136E1,2.252832174E0,7.694617748E0,-3.796288490E0
8.021108136E1,-1.197417831E1,-1.240626526E1,1.136296272E1
8.026108136E1,-1.597611785E0,1.817281723E0,1.456173420E0
8.031108136E1,-9.360071421E-1,-3.134597778E0,-4.779239655E0
8.036108136E1,-1.850822330E0,2.585020065E-1,-1.232991409E1
8.041108136E1,-6.510615349E-4,-4.684495926E-1,-1.015926266E1
8.046108136E1,9.263319016E0,-4.493296623E0,-2.636967182E0
8.051108136E1,5.284412861E0,8.127698898E-1,3.279162407E0
8.056108136E1,-3.004904747E0,3.549810410E0,1.726536989E0
8.061108136E1,-3.307640076E0,5.229310989E-1,2.463542700E0
8.066108136E1,-3.220981956E-1,1.580746651E0,-1.774585247E0
8.071108136E1,4.148480415E0,-3.030545235E0,6.174029350E0
8.076108136E1,8.274491310E0,-3.239006996E0,6.301885605E0
8.081108136E1,-1.424879551E0,-5.493610382E0,7.514553070E0
8.086108136E1,3.534892321E0,-6.748137474E0,3.590411901E0
8.091108136E1,-1.980004549E0,-6.676177979E0,-8.375889778E0
8.096108136E1,-4.543727398E0,-6.815716743E0,3.307063580E-1
8.101108136E1,1.440814376E0,1.155728340E0,-4.928132534E0
8.106108136E1,1.565860987E0,3.702576160E0,-5.492755890E0
8.111108136E1,4.602514267E0,5.861337662E0,-7.432080746E0
8.116108136E1,9.190090895E-1,8.249347687E0,-7.435533524E0
8.121108136E1,-2.617855072E-1,5.676152706E0,1.581702232E0
8.126108136E1,-7.599584579E0,-2.161904907E1,1.097793961E1
8.131108136E1,1.176288128E-1,7.041348457E0,9.439053535E-1
8.136108136E1,-2.961932659E0,-1.234908199E1,-1.015230751E1
8.141108136E1,-5.017524719E0,5.398531914E0,-1.102607727E1
8.146108136E1,4.248836517E0,-1.000442505E0,-9.866007805E0
8.151108136E1,8.660649300E0,-6.283526421E0,8.890801668E-1
8.156108136E1,1.825150013E0,4.010944843E0,1.569804192E0
8.161108136E1,-3.265249491E0,2.397563934E0,2.279245377E0
8.166108136E1,-1.010247231E0,4.497089386E-1,5.691593885E-1
8.171108136E1,5.968450308E-1,2.061783314E0,-1.248923540E-1
8.176108136E1,5.643780231E0,-3.496867180E0,7.649961948E0
8.181108136E1,2.592520952E0,-5.653664589E0,4.719845295E0
8.186108136E1,1.444568753E0,-5.523270607E0,7.772780418E0
8.191108136E1,3.103902340E-1,-7.010336876E0,-6.067612648E0
8.196108136E1,-5.412000179E0,-7.765206337E0,-2.736436367E0
8.201108136E1,-3.969061613E0,-3.177021980E0,-3.789446354E0
8.206108136E1,3.902926445E-1,3.255727768E0,-5.476732254E0
8.211108136E1,5.247005939E0,5.548119068E0,-7.611798286E0
8.216108136E1,1.932240248E0,7.627531052E0,-6.934840202E0
8.221108136E1,9.050022960E-1,7.750021458E0,-4.907430172E0
8.226108136E1,-8.912303925E0,-1.052054882E1,1.939885139E1
8.231108136E1,1.965635538E0,-2.778222084E0,4.754865646E0
8.236108136E1,-2.425749063E0,-7.802856445E0,-1.234435558E0
8.241108136E1,-6.222887516E0,3.961219788E0,-1.512209892E1
8.246108136E1,2.950673103E0,-6.243171692E-1,-1.428207493E1
8.251108136E1,8.677290916E0,-7.557148933E0,6.927735806E-1
8.256108136E1,5.243449211E0,3.739566803E0,3.442422867E0
8.261108136E1,-2.840974808E0,4.110073090E0,1.396939754E0
8.266108136E1,-4.126534939E0,-6.459341049E-1,3.040438890E-1
8.271108136E1,-3.287471533E-1,1.544960976E0,2.063771009E0
8.276108136E1,4.780966759E0,-2.861740112E0,6.038680077E0
8.281108136E1,5.709641457E0,-6.219152451E0,4.127000809E0
8.286108136E1,1.582733631E0,-4.242842674E0,8.101200104E0
8.291108136E1,1.748666167E0,-6.807897568E0,1.612119555E0
8.296108136E1,-3.759299040E0,-7.249546051E0,-8.872870445E0
8.301108136E1,-5.439337254E0,-5.374831200E0,-2.221031189E0
8.306108136E1,1.490732908E0,1.063005447E0,-4.828396797E0
8.311108136E1,4.150024414E0,4.799437046E0,-6.131358624E0
8.316108136E1,3.942982435E0,5.492999554E0,-9.002527237E0
8.321108136E1,7.684399486E-1,7.394082069E0,-7.652073860E0
8.326108136E1,4.372808933E-1,5.270133018E0,2.650005341E0
8.331108136E1,-1.144300175E1,-1.991364098E1,8.111449242E0
8.336108136E1,-2.932051182E0,4.215350151E0,1.041006565E0
8.341108136E1,-8.246971369E-1,-9.954522133E0,-7.969300270E0
8.346108136E1,-3.075630426E0,2.867668152E0,-1.103265476E1
8.351108136E1,6.057866573E0,-9.451951981E-1,-1.299690819E1
8.356108136E1,5.753866196E0,-5.073162079E0,1.977769732E0
8.361108136E1,1.948984742E0,3.546001911E0,1.769196987E0
8.366108136E1,-3.833240509E0,2.314516068E0,1.936803102E0
8.371108136E1,-1.325307131E0,1.125147820E0,-1.702247977E0
8.376108136E1,3.691762984E-1,6.179742813E-1,6.924501657E-1
8.381108136E1,5.116726398E0,-3.186201096E0,9.804718018E0
8.386108136E1,3.562951088E0,-6.058372498E0,5.227531910E0
8.391108136E1,2.831212521E0,-4.757787704E0,6.193327904E0
8.396108136E1,-2.824106216E0,-7.582593918E0,1.932877302E0
8.401108136E1,-6.781950951E0,-7.260448456E0,-3.503059149E0
8.406108136E1,-3.936137676E0,-3.827625275E0,-3.321909666E0
8.411108136E1,-4.984439313E-1,1.539603233E0,-5.240271568E0
8.416108136E1,6.144863605E0,5.374696732E0,-7.579148769E0
8.421108136E1,2.946410656E0,6.797445774E0,-6.411843300E0
8.426108136E1,5.938634872E-1,8.105718613E0,-6.978635788E0
8.431108136E1,-1.106482267E0,3.947799683E0,6.333297729E0
8.436108136E1,-4.854496002E0,-2.161576462E1,9.374891281E0
8.441108136E1,-4.728703022E0,7.590870857E-1,5.489007473E0
8.446108136E1,-4.281112194E0,1.828942299E0,-1.534659004E1
8.451108136E1,1.322495937E-1,-7.747001648E-1,-1.024464989E1
8.456108136E1,8.308847427E0,-7.134796143E0,-4.698315620E0
8.461108136E1,5.082651615E0,1.438441277E0,2.790134907E0
8.466108136E1,-3.313085079E0,3.984974384E0,3.405217648E0
8.471108136E1,-3.229321480E0,1.038303375E0,2.292576551E0
8.476108136E1,4.691766500E-1,1.119613647E-2,-7.124110460E-1
8.481108136E1,4.857444286E0,-7.548265457E-1,6.087969303E0
8.486108136E1,5.368797302E0,-4.145793915E0,8.302836418E0
8.491108136E1,-1.460199118E0,-5.664606094E0,1.148734665E1
8.496108136E1,1.384728789E0,-6.567108154E0,-3.743278027E0
8.501108136E1,-3.281346083E0,-9.851426125E0,-7.130344391E0
8.506108136E1,-2.414802074E0,-5.374963760E0,-4.072081566E0
8.511108136E1,-1.154119074E-1,2.446951389E0,-6.345243454E0
8.516108136E1,4.037216663E0,5.273724079E0,-6.710259438E0
8.521108136E1,3.753798485E0,8.759537697E0,-7.335369110E0
8.526108136E1,1.660737514E0,8.174894333E0,-6.931035995E0
8.531108136E1,-3.305239439E0,-9.854593277E-1,8.117395401E0
8.536108136E1,2.347915173E-1,-7.419966698E0,8.397800446E0
8.541108136E1,-4.113464355E-1,1.694052696E0,5.379390717E-1
8.546108136E1,-4.413227081E0,-3.899027824E0,-9.786968231E0
8.551108136E1,6.231759787E-1,2.202641487E0,-8.654844284E0
8.556108136E1,5.285261631E0,-5.313379288E0,-2.797207355E0
8.561108136E1,8.213504791E0,-9.511375427E-2,-1.489373207E0
8.566108136E1,-2.942210913E0,3.418663025E0,4.993376255E0
8.571108136E1,-3.642752171E0,2.786331177E-1,1.903700829E0
8.576108136E1,-9.002038240E-1,1.088240623E0,-1.343597531E0
8.581108136E1,5.004370689E0,-1.177141190E0,6.213099480E0
8.586108136E1,5.693281651E0,-4.523418427E0,6.117681503E0
8.591108136E1,6.024687290E-1,-5.170448303E0,8.704652786E0
8.596108136E1,1.262000352E-1,-6.614279747E0,-1.709421873E-1
8.601108136E1,-4.888994694E0,-8.410701752E0,-6.678112030E0
8.606108136E1,-2.962314129E0,-6.489947319E0,-4.163245201E0
8.611108136E1,5.694638491E-1,1.328963280E0,-4.950379848E0
8.616108136E1,4.662272930E0,4.401264191E0,-7.629397392E0
8.621108136E1,2.485183954E0,8.529034615E0,-7.858985901E0
8.626108136E1,1.804762006E0,9.049934387E0,-7.034758568E0
8.631108136E1,-2.454367161E0,8.269286156E-1,7.184823513E0
8.636108136E1,-6.216658354E-1,-1.310859299E1,7.839085579E0
8.641108136E1,-1.137529373E0,3.735207558E0,-2.428197861E-1
8.646108136E1,-6.096501350E0,-7.140631676E0,-1.213829899E1
8.651108136E1,-1.295276523E0,1.631389618E0,-8.057009697E0
8.656108136E1,3.681163311E0,-4.251503944E0,-3.675430298E0
8.661108136E1,8.057712555E0,-7.038269043E-1,-2.174878120E-1
8.666108136E1,-4.404794872E-1,3.255579472E0,4.822566986E0
8.671108136E1,-2.835323095E0,1.167714119E0,2.342245340E0
8.676108136E1,-1.619287729E0,1.695947647E0,-4.638760090E-1
8.681108136E1,4.146499157E0,-2.122097969E0,5.197888374E0
8.686108136E1,7.282218933E0,-2.564277649E0,6.733851433E0
8.691108136E1,-4.090013504E-1,-7.080996513E0,8.299158096E0
8.696108136E1,3.786976337E0,-7.742878914E0,3.854212284E0
8.701108136E1,-3.188040018E0,-8.508338928E0,-8.309471130E0
8.706108136E1,-5.214120865E0,-6.613306999E0,-2.450187683E0
8.711108136E1,-9.268943667E-1,8.784494400E-1,-5.387857437E0
8.716108136E1,4.408996582E0,4.292025566E0,-6.492320061E0
8.721108136E1,5.004992485E0,6.975962639E0,-7.235317230E0
8.726108136E1,2.054796934E0,8.877695084E0,-7.951836109E0
8.731108136E1,-2.260543823E0,3.360369205E0,7.912232399E0
8.736108136E1,-3.391539097E0,-1.593774128E1,7.047044754E0
8.741108136E1,-1.351507068E0,3.857577324E0,4.650178909E0
8.746108136E1,-5.564971447E0,-4.540506363E0,-1.276705742E1
8.751108136E1,2.802942991E-1,7.174530029E-1,-1.097865677E1
8.756108136E1,5.865836143E0,-5.258358002E0,-3.424226284E0
8.761108136E1,5.780979633E0,6.290998459E-1,2.566057920E0
8.766108136E1,-2.461836815E0,3.323580742E0,2.998338223E0
8.771108136E1,-3.471444368E0,1.746403217E0,2.728686571E0
8.776108136E1,4.822231829E-1,1.347429276E0,-4.988341331E-1
8.781108136E1,5.249473095E0,-8.213138580E-1,5.336823940E0
8.786108136E1,4.426145554E0,-3.467793465E0,7.182324886E0
8.791108136E1,-3.015592396E-1,-6.328058243E0,8.991828918E0
8.796108136E1,2.894534349E0,-7.314088821E0,1.108886003E0
8.801108136E1,-4.699504852E0,-9.256682396E0,-6.412644863E0
8.806108136E1,-2.293512583E0,-5.507233620E0,-3.380142927E0
8.811108136E1,4.557971358E-1,1.912650108E0,-6.365262985E0
8.816108136E1,3.568645000E0,5.888996124E0,-6.501528740E0
8.821108136E1,3.914569855E0,9.059032440E0,-7.646126747E0
8.826108136E1,2.243818045E0,8.953909874E0,-6.491012096E0
8.831108136E1,-4.345992088E0,-1.108226776E0,1.425231075E1
8.836108136E1,2.574072599E0,-6.359317780E0,3.658498049E0
8.841108136E1,-4.971683502E0,-5.669832230E-1,2.358315468E0
8.846108136E1,-5.342026949E-1,9.949274063E-1,-1.910256004E1
8.851108136E1,2.628037930E0,-7.600326538E-1,-1.217219639E1
8.856108136E1,7.141023636E0,-7.941110611E0,-3.512840271E-1
8.861108136E1,6.053738117E0,1.707755089E0,1.703574061E0
8.866108136E1,-3.025930405E0,2.957665443E0,2.989985228E0
8.871108136E1,-5.883835316E0,9.396562576E-1,2.653743267E0
8.876108136E1,-7.048592567E-1,1.188899040E0,-6.354427338E-1
8.881108136E1,5.872365952E0,-1.863963127E0,7.393262863E0
8.886108136E1,6.873619556E0,-4.190670013E0,5.047125340E0
8.891108136E1,-1.782871485E-1,-5.532631874E0,8.204976082E0
8.896108136E1,3.053053617E0,-6.920986176E0,2.268005133E0
8.901108136E1,-3.946990967E0,-8.322715759E0,-8.383284569E0
8.906108136E1,-3.964326859E0,-6.573265076E0,-1.994255543E0
8.911108136E1,3.972877860E-1,1.106912613E0,-6.094074249E0
8.916108136E1,3.691714287E0,4.164347649E0,-6.317837238E0
8.921108136E1,5.018385887E0,7.638453960E0,-8.090787888E0
8.926108136E1,2.099964619E0,9.144462585E0,-7.447521687E0
8.931108136E1,-4.839086533E-2,3.327414989E0,5.420701504E0
8.936108136E1,-2.924554110E0,-1.980959320E1,8.416630745E0
8.941108136E1,-3.119791508E0,1.435241699E0,2.697993279E0
8.946108136E1,-3.437241554E0,-2.036108017E0,-1.671390152E1
8.951108136E1,-1.756373644E0,2.405271530E-1,-8.853523254E0
8.956108136E1,4.882377625E0,-6.160675049E0,-2.775834084E0
8.961108136E1,6.350657940E0,-5.895233154E-2,1.443064451E0
8.966108136E1,-1.752642632E0,3.877252579E0,2.402693510E0
8.971108136E1,-3.245675325E0,1.597489357E0,2.393366337E0
8.976108136E1,6.863380671E-1,9.443578720E-1,-7.005171776E-1
8.981108136E1,3.879331827E0,-6.555480957E-1,5.463845730E0
8.986108136E1,5.043469906E0,-2.670732498E0,6.927803040E0
8.991108136E1,4.066147208E-1,-6.110438347E0,6.612034798E0
8.996108136E1,2.116251945E0,-6.829926491E0,4.744787216E0
9.001108136E1,-1.396007419E0,-6.911060333E0,-9.228379250E0
9.006108136E1,-4.937108994E0,-6.701714516E0,3.082060814E-1
9.011108136E1,-1.062478662E0,-4.129695892E-1,-3.710334063E0
9.016108136E1,2.111794472E0,4.899571419E0,-5.427278996E0
9.021108136E1,4.956783772E0,6.835118294E0,-7.436974049E0
9.026108136E1,1.135859251E0,7.993225574E0,-7.439043045E0
9.031108136E1,5.776236057E-1,5.226243973E0,1.758247137E0
9.036108136E1,-8.909541130E0,-2.358331680E1,8.753950119E0
9.041108136E1,-2.863197803E0,-7.966041565E-2,3.178653717E-1
9.046108136E1,-4.126839638E0,-1.850974083E0,-1.326469994E1
9.051108136E1,-1.534146428E0,6.371908188E0,-7.196551800E0
9.056108136E1,5.391399860E0,-5.035170555E0,-7.545044899E0
9.061108136E1,7.462459564E0,-6.119871140E-1,2.459357262E0
9.066108136E1,-9.995760322E-1,3.429399490E0,2.107840061E0
9.071108136E1,-3.059457302E0,1.021531105E0,2.585785627E0
9.076108136E1,-1.355272770E0,1.459282875E0,-5.123811960E-1
9.081108136E1,1.925764322E0,9.765148163E-2,3.838253498E0
9.086108136E1,6.554362774E0,-2.736358643E0,7.017184258E0
9.091108136E1,1.989386797E0,-6.860654831E0,5.841260910E0
9.096108136E1,1.872596025E0,-7.033295631E0,4.831690311E0
9.101108136E1,-3.538291216E0,-7.779300690E0,-8.873263359E0
9.106108136E1,-5.015180588E0,-7.479686737E0,1.774697423E0
9.111108136E1,2.219383121E-1,5.916452408E-1,-4.040198803E0
9.116108136E1,1.877202034E0,4.145458221E0,-4.496847153E0
9.121108136E1,5.667880058E0,6.792476654E0,-7.623315811E0
9.126108136E1,1.725515604E0,8.525351524E0,-7.621756554E0
9.131108136E1,5.636874437E-1,5.830606461E0,-2.384133577E0
9.136108136E1,-1.257655621E1,-2.478400803E1,8.662185669E0
9.141108136E1,-1.152161956E0,5.768108845E0,6.656274796E-1
9.146108136E1,-1.765080929E0,-1.023690605E1,-7.819549561E0
9.151108136E1,-4.993584633E0,3.088566780E0,-9.599885941E0
9.156108136E1,5.684299946E0,-7.798881531E-1,-1.218187714E1
9.161108136E1,7.900368214E0,-5.349090576E0,1.183652878E0
9.166108136E1,9.885030985E-1,3.824340820E0,1.934655428E0
9.171108136E1,-2.755297661E0,2.613786221E0,2.722789526E0
9.176108136E1,-1.065535069E0,6.565399170E-1,3.731577396E-1
9.181108136E1,1.501975656E0,1.353953362E0,1.875268221E-1
9.186108136E1,5.189751625E0,-2.735035896E0,8.338573456E0
9.191108136E1,1.669772387E0,-6.580226898E0,4.619723320E0
9.196108136E1,4.766806364E-1,-5.328408241E0,6.233316898E0
9.201108136E1,8.218733072E-1,-6.002587318E0,1.640904427E0
9.206108136E1,-3.203030586E0,-6.058073044E0,-6.551639080E0
9.211108136E1,-3.927651405E0,-4.388496399E0,-3.832139492E0
9.216108136E1,-2.439503074E-1,1.903666973E0,-5.621921539E0
9.221108136E1,4.665888309E0,5.110398293E0,-7.219844341E0
9.226108136E1,3.723278999E0,7.168325901E0,-6.462849617E0
9.231108136E1,2.140309811E0,7.445840359E0,-6.356926918E0
9.236108136E1,-2.259939194E0,3.773784637E-2,7.811143875E0
9.241108136E1,4.163970351E-1,-7.195196152E0,6.302697182E0
9.246108136E1,-2.214566231E0,8.936147690E-1,2.394987106E0
9.251108136E1,-2.444102287E0,-4.240143776E0,-1.175875664E1
9.256108136E1,-2.052692890E0,1.471416473E0,-7.376659393E0
9.261108136E1,5.417452335E0,-4.386701584E0,-3.921890736E0
9.266108136E1,7.300174236E0,-1.473115921E0,9.546463490E-1
9.271108136E1,-2.450770378E0,3.327660561E0,2.228962898E0
9.276108136E1,-3.268503666E0,1.583417892E0,2.900460720E0
9.281108136E1,-8.253598213E-1,7.008924484E-1,-2.661645412E0
9.286108136E1,1.712803245E0,6.208705902E-2,5.046957970E0
9.291108136E1,6.616053104E0,-2.893275261E0,6.455116749E0
9.296108136E1,1.137409449E0,-5.499862671E0,5.165506363E0
9.301108136E1,2.963596106E0,-5.810751915E0,6.182142735E0
9.306108136E1,-1.592469692E0,-6.212406158E0,-2.019540071E0
9.311108136E1,-5.117096901E0,-7.417684555E0,-2.622956038E0
9.316108136E1,-1.558909655E0,-2.110674858E0,-2.880450726E0
9.321108136E1,3.331654966E-1,2.624919891E0,-4.947143555E0
9.326108136E1,4.169715881E0,5.167862415E0,-7.035348892E0
9.331108136E1,1.441841483E0,7.328735352E0,-6.892680168E0
9.336108136E1,1.217641354E0,7.461545467E0,-4.815337181E0
9.341108136E1,-3.790353537E0,-2.606002808E0,9.274521828E0
9.346108136E1,-3.505600691E-1,-2.050454140E0,4.176763058E0
9.351108136E1,-1.012488961E0,-9.392499924E-1,4.091297150E0
9.356108136E1,-1.627881050E0,-6.366138458E-1,-9.951972961E0
9.361108136E1,-2.520074129E0,1.349579811E0,-9.761955261E0
9.366108136E1,4.630212784E0,-7.543263435E0,-1.392317414E0
9.371108136E1,8.164371490E0,1.304216385E-1,-4.654030204E-1
9.376108136E1,-2.548142195E0,2.813611984E0,3.247875929E0
9.381108136E1,-4.464468002E0,1.340557098E0,2.602870941E0
9.386108136E1,-2.971863449E-1,1.529793739E0,-1.611248970E0
9.391108136E1,5.075276375E0,-2.084844589E0,6.881636620E0
9.396108136E1,5.606136799E0,-4.135105133E0,7.006882668E0
9.401108136E1,7.601491213E-1,-5.070473671E0,7.424938202E0
9.406108136E1,2.261860132E0,-6.781548500E0,1.604414582E0
9.411108136E1,-4.134412289E0,-9.599390984E0,-8.026712418E0
9.416108136E1,-3.646897793E0,-5.751482964E0,-3.466356277E0
9.421108136E1,9.344570339E-2,1.048838615E0,-5.812276840E0
9.426108136E1,4.573364258E0,4.116056919E0,-7.603817940E0
9.431108136E1,3.094047546E0,7.893845081E0,-7.589283943E0
9.436108136E1,1.379041433E0,9.480556488E0,-7.773739815E0
9.441108136E1,-1.292432547E0,3.438027859E0,5.705324173E0
9.446108136E1,-3.584671497E0,-1.992352104E1,8.321446419E0
9.451108136E1,-1.742011905E0,3.530286312E0,1.819631100E0
9.456108136E1,-6.059988976E0,-6.699571609E0,-1.321740341E1
9.461108136E1,-1.035751104E0,1.992100716E0,-5.519128323E0
9.466108136E1,6.683289051E0,-4.847993851E0,-4.053270817E0
9.471108136E1,7.272299290E0,-6.421470642E-1,-7.889636159E-1
9.476108136E1,-2.311572075E0,3.431269646E0,5.324235439E0
9.481108136E1,-3.231706858E0,1.033912659E0,2.084531307E0
9.486108136E1,-7.510126829E-1,1.209436417E0,-1.034748673E0
9.491108136E1,4.051414490E0,-8.239049911E-1,4.200596809E0
9.496108136E1,7.353975773E0,-4.269575119E0,8.664041519E0
9.501108136E1,3.768655360E-1,-7.809553146E0,8.619197845E0
9.506108136E1,2.101482391E0,-7.907475471E0,3.164662123E-1
9.511108136E1,-4.911242485E0,-7.888228416E0,-6.556591988E0
9.516108136E1,-2.783925056E0,-6.028350830E0,-3.413691998E0
9.521108136E1,2.089356184E0,1.076339722E0,-6.968456268E0
9.526108136E1,3.956269026E0,5.044719696E0,-8.411821365E0
9.531108136E1,3.447527409E0,8.369018555E0,-8.027596474E0
9.536108136E1,2.191721916E0,8.570153236E0,-7.182761192E0
9.541108136E1,-3.625666618E0,-2.408218384E-1,1.142961121E1
9.546108136E1,1.402849197E0,-1.263148689E1,7.190946579E0
9.551108136E1,-1.894708276E0,5.394167900E0,3.932703972E0
9.556108136E1,-4.010969162E0,-5.316514969E0,-1.242250443E1
9.561108136E1,-1.560388684E0,3.064047337E0,-5.123213291E0
9.566108136E1,6.160762787E0,-4.238113403E0,-6.060393333E0
9.571108136E1,7.705347538E0,-1.367948532E0,4.870079756E-1
9.576108136E1,-1.905107021E0,3.562314034E0,2.679441929E0
9.581108136E1,-4.503121853E0,1.675659180E0,2.414657593E0
9.586108136E1,-1.517472565E-1,1.156243324E0,-1.729905844E0
9.591108136E1,9.981043935E-1,-1.356916428E-1,2.362552881E0
9.596108136E1,6.558081627E0,-5.351356506E0,1.365578556E1
9.601108136E1,1.438144684E0,-7.722813606E0,7.018489838E0
9.606108136E1,3.773306847E0,-7.544452667E0,4.585546494E0
9.611108136E1,-3.149008512E0,-7.003290176E0,-8.932707787E0
9.616108136E1,-6.585941792E0,-7.881203651E0,1.043250442E0
9.621108136E1,2.220980823E-2,1.410293579E-2,-4.318651199E0
9.626108136E1,2.462032080E0,4.461280823E0,-5.720119953E0
9.631108136E1,4.882471085E0,5.823293686E0,-6.685574055E0
9.636108136E1,1.792286277E0,8.425828934E0,-7.707991600E0
9.641108136E1,5.213350058E-1,6.624436378E0,-2.193860292E0
9.646108136E1,-1.181562233E1,-2.152733612E1,7.178410530E0
9.651108136E1,-2.518607616E0,5.218450546E0,7.739505768E-1
9.656108136E1,-1.216164351E0,-1.049724579E1,-3.647336483E0
9.661108136E1,-4.223464966E0,3.846474648E0,-1.193333244E1
9.666108136E1,3.853458405E0,-1.024408340E-1,-1.307445240E1
9.671108136E1,6.396377563E0,-7.308127403E0,5.038831234E-1
9.676108136E1,3.633567572E0,2.938555717E0,2.233141184E0
9.681108136E1,-4.287031174E0,2.322355747E0,2.965003967E0
9.686108136E1,-2.538138866E0,1.328906059E0,-1.615930796E-1
9.691108136E1,1.302325368E0,1.708040714E0,1.946610451E0
9.696108136E1,6.904712200E0,-3.501169205E0,9.152772903E0
9.701108136E1,2.009719849E0,-5.815974236E0,4.677373886E0
9.706108136E1,2.092154980E0,-5.824608803E0,7.358316422E0
9.711108136E1,-1.786396503E0,-6.134212494E0,-2.132355213E0
9.716108136E1,-3.181205511E0,-7.360398293E0,-3.269824028E0
9.721108136E1,-1.487122893E0,-2.593609810E0,-3.406509399E0
9.726108136E1,-6.516139507E-1,2.711199284E0,-5.663481712E0
9.731108136E1,4.594814301E0,5.310534000E0,-6.493170261E0
9.736108136E1,2.725254059E0,7.580339432E0,-7.336369038E0
9.741108136E1,1.079766035E0,7.154190540E0,-6.434467316E0
9.746108136E1,-6.768262386E0,-2.893831253E0,1.033761406E1
9.751108136E1,9.201782346E-1,-2.542590141E0,4.499438286E0
9.756108136E1,-9.695785046E-1,-5.798617363E0,-1.656983852E0
9.761108136E1,-2.320661306E0,3.215924263E0,-1.609431076E1
9.766108136E1,2.757092237E0,-9.674339294E-1,-1.465522671E1
9.771108136E1,5.660134792E0,-6.311262131E0,1.194285870E0
9.776108136E1,5.073893070E0,1.257168770E0,8.910467625E-1
9.781108136E1,-2.992331743E0,3.842227459E0,3.213920832E0
9.786108136E1,-3.624983788E0,1.437441826E0,1.482522488E0
9.791108136E1,3.691418171E-1,1.233777046E0,-1.580686092E0
9.796108136E1,4.473112106E0,-2.362139702E0,6.010771751E0
9.801108136E1,4.669116020E0,-3.439935684E0,6.473894596E0
9.806108136E1,1.851623774E0,-7.056200981E0,7.726738453E0
9.811108136E1,2.913627863E0,-6.629807472E0,1.533324480E0
9.816108136E1,-3.385524273E0,-7.716070175E0,-7.808463573E0
9.821108136E1,-3.956813335E0,-6.703437805E0,-2.117918968E0
9.826108136E1,1.000924110E0,1.047243118E0,-6.911999702E0
9.831108136E1,3.039143085E0,3.823804379E0,-5.549494267E0
9.836108136E1,4.113006115E0,6.945347786E0,-7.697072983E0
9.841108136E1,1.897695303E0,8.623098373E0,-7.563160896E0
9.846108136E1,-2.543564796E0,2.538623333E0,5.605110168E0
9.851108136E1,-3.674362898E0,-1.545045090E1,7.847785473E0
9.856108136E1,-1.898010135E0,2.551563263E0,3.450480938E0
9.861108136E1,-4.426245213E0,-6.630167961E0,-1.322143745E1
9.866108136E1,-2.734457254E0,4.874969482E0,-3.207354069E0
9.871108136E1,4.070841312E0,-4.642300606E0,-4.934640884E0
9.876108136E1,8.642712593E0,-2.670168877E0,-7.955585718E-1
9.881108136E1,-2.322403640E-1,3.888027668E0,2.548508883E0
9.886108136E1,-2.572457552E0,1.294819832E0,2.477136612E0
9.891108136E1,-2.269509077E0,1.309999466E0,3.291790485E-1
9.896108136E1,1.270421624E0,1.207500458E0,3.466399431E0
9.901108136E1,6.992804050E0,-3.145610809E0,7.485690117E0
9.906108136E1,8.487451077E-1,-6.811252594E0,6.708209515E0
9.911108136E1,2.945518970E0,-6.631357193E0,4.902081013E0
9.916108136E1,-3.145112276E0,-8.091049194E0,-8.991640091E0
9.921108136E1,-3.877907753E0,-8.665226936E0,2.021495581E0
9.926108136E1,-9.032341838E-2,-9.511222839E-1,-4.126117706E0
9.931108136E1,8.245689273E-1,3.936422348E0,-5.392247200E0
9.936108136E1,4.855598927E0,6.871088505E0,-8.210672379E0
9.941108136E1,1.777241111E0,9.022623062E0,-7.421002865E0
9.946108136E1,1.242781758E0,6.190559864E0,-2.281910896E0
9.951108136E1,-1.315055561E1,-2.240901184E1,1.092780113E1
9.956108136E1,-1.130562186E0,4.241087914E0,9.784779549E-1
9.961108136E1,-1.981754303E-1,-1.294322109E1,-4.253488541E0
9.966108136E1,-4.577420235E0,4.973915100E0,-1.188850212E1
9.971108136E1,1.578001380E0,-2.611095428E0,-1.441125584E1
9.976108136E1,9.046206474E0,-6.709960938E0,5.130980015E-1
9.981108136E1,3.512987614E0,3.393662453E0,1.405214787E0
9.986108136E1,-3.755826473E0,2.940505981E0,3.226541519E0
9.991108136E1,-2.859855175E0,8.671264648E-1,1.268481493E0
9.996108136E1,1.224740982E0,1.170143127E0,-2.569617271E0
1.000110814E2,3.430550814E0,-2.250541687E0,7.272511959E0
1.000610814E2,4.507072926E0,-4.694699287E0,3.352943659E0
1.001110814E2,1.155421734E0,-4.528656960E0,8.792781830E0
1.001610814E2,1.315969825E0,-6.157917976E0,3.190820694E0
1.002110814E2,-2.988348722E0,-8.220397949E0,-8.669558525E0
1.002610814E2,-3.560483694E0,-7.987380028E0,8.943276405E-1
1.003110814E2,1.488445520E0,1.042948723E0,-5.922809601E0
1.003610814E2,1.266386867E0,4.699386597E0,-4.939260960E0
1.004110814E2,4.848481655E0,6.869565487E0,-7.642526627E0
1.004610814E2,1.284361959E0,8.594432831E0,-7.204356194E0
1.005110814E2,7.010711432E-1,5.502749920E0,-3.097653389E-2
1.005610814E2,-1.245105076E1,-2.399484634E1,1.135303020E1
1.006110814E2,-4.419624805E-2,5.767448902E0,2.983579636E-1
1.006610814E2,-4.371779442E0,-1.236395454E1,-1.048207188E1
1.007110814E2,-4.852087975E0,5.294778824E0,-9.409639359E0
1.007610814E2,4.565425873E0,-1.978617668E0,-1.176655388E1
1.008110814E2,8.781937599E0,-4.860991478E0,-1.727960110E-1
1.008610814E2,1.153736353E0,3.142623425E0,2.529767990E0
1.009110814E2,-3.543036461E0,2.155095577E0,2.530431986E0
1.009610814E2,-1.773023963E0,1.564280510E0,-4.038647413E-1
1.010110814E2,-4.697688222E-1,3.777217865E-2,2.446653605E0
1.010610814E2,7.128684998E0,-2.955794334E0,9.385715485E0
1.011110814E2,1.516860008E0,-5.769651413E0,4.721735954E0
1.011610814E2,-1.186418533E-1,-3.880639076E0,7.605711937E0
1.012110814E2,1.539875746E0,-7.660056114E0,-1.960582256E0
1.012610814E2,-5.162324429E0,-7.321228027E0,-2.672328234E0
1.013110814E2,-3.791721344E0,-3.549419403E0,-3.851371765E0
1.013610814E2,6.276863813E-1,1.963330269E0,-5.828948975E0
1.014110814E2,5.386347294E0,5.207618713E0,-8.026026726E0
1.014610814E2,2.573333740E0,7.329262733E0,-6.916270733E0
1.015110814E2,9.080481529E-1,7.855017662E0,-6.232031345E0
1.015610814E2,-7.596919537E0,-7.709006310E0,1.762389755E1
1.016110814E2,7.808315754E-2,-3.602321625E0,6.154771328E0
1.016610814E2,-2.455113411E0,-8.822501183E0,5.670094490E0
1.017110814E2,-2.744638920E0,6.492315292E0,-1.924952507E1
1.017610814E2,9.011119604E-2,-1.151445389E0,-1.410329723E1
1.018110814E2,8.136779785E0,-7.268852234E0,4.127192497E-2
1.018610814E2,6.284675121E0,2.450893402E0,1.539011240E0
1.019110814E2,-2.512860060E0,4.133721828E0,3.223033905E0
1.019610814E2,-3.631504059E0,3.292675018E-1,5.170094967E-1
1.020110814E2,-2.598409891E0,1.329133034E0,1.037532091E0
1.020610814E2,4.524906158E0,-2.871040344E0,5.556113243E0
1.021110814E2,7.940171242E0,-4.271413803E0,5.062845230E0
1.021610814E2,-1.110892296E-1,-4.968395233E0,1.010228729E1
1.022110814E2,1.280412912E0,-6.156044960E0,3.377959490E0
1.022610814E2,-2.098382950E0,-6.707069397E0,-8.535946846E0
1.023110814E2,-4.570888519E0,-7.258413315E0,-2.708995342E0
1.023610814E2,4.637514949E-1,9.234704971E-1,-6.146040916E0
1.024110814E2,4.338211060E0,4.091805935E0,-5.320376396E0
1.024610814E2,3.765849590E0,6.890417576E0,-7.587026596E0
1.025110814E2,6.598266959E-1,7.483257294E0,-8.220479965E0
1.025610814E2,-2.258871555E0,4.678107738E0,4.532266140E0
1.026110814E2,-7.396399975E0,-1.783742905E1,8.255935669E0
1.026610814E2,3.898258209E-1,5.672719479E0,3.555773735E0
1.027110814E2,-3.930031776E0,-1.009018040E1,-1.291778946E1
1.027610814E2,-1.857057333E0,2.851053238E0,-5.335152626E0
1.028110814E2,4.945447922E0,-1.172529221E0,-7.592551231E0
1.028610814E2,9.267317772E0,-4.322186470E0,2.898752689E-2
1.029110814E2,-3.651649952E-1,3.600944996E0,3.854208469E0
1.029610814E2,-3.278213739E0,1.298735619E0,1.290740967E0
1.030110814E2,-2.997306585E0,1.485568523E0,-1.133531213E0
1.030610814E2,2.642008781E0,-5.655870438E-1,4.282084942E0
1.031110814E2,8.358109474E0,-2.402444839E0,8.228633881E0
1.031610814E2,-6.181930304E-1,-6.173921585E0,8.023790359E0
1.032110814E2,2.454756498E0,-7.405867577E0,2.804876089E0
1.032610814E2,-1.245622396E0,-7.123764038E0,-8.463459969E0
1.033110814E2,-4.269125938E0,-8.622785568E0,1.082137704E0
1.033610814E2,1.217853069E0,3.492841721E-1,-4.475141048E0
1.034110814E2,1.449788809E0,4.317761898E0,-5.787888527E0
1.034610814E2,5.858421326E0,7.265175819E0,-7.892612457E0
1.035110814E2,2.109963179E0,8.876829147E0,-7.441073418E0
