Time window,Time (s)_acc,Time (s)_gyro,Time (s)_mag,Time (s)_lin_acc,Time (s)_prox,Acceleration x (m/s^2),Acceleration y (m/s^2),Acceleration z (m/s^2),Gyroscope x (rad/s),Gyroscope y (rad/s),Gyroscope z (rad/s),Magnetic field x (µT),Magnetic field y (µT),Magnetic field z (µT),Linear Acceleration x (m/s^2),Linear Acceleration y (m/s^2),Linear Acceleration z (m/s^2),Distance (cm)
0.06,0.074874018,0.067276726,,,,2.160120726,5.149055004,11.58066368,-0.3014531136,0.6363501549,-0.1366770715,,,,,,,
0.09,,0.11808261099999999,0.10352146599999999,0.11108136099999999,,,,,-0.1068982705,-0.3309265077,-0.3239017725,3.52579999,-37.40520096,-38.96680069,-0.1000961065,-0.5310440063,-0.7711915970000001,
0.12,0.124874018,,,,,1.82482636,3.947260141,10.79073238,,,,,,,,,,
0.15,0.17487401800000002,0.16888771600000002,0.153521466,0.161081361,,0.6589235067,2.549253464,8.161917686,-0.1673721522,-0.12339114400000001,-0.6035171151,3.745399952,-37.56380081,-39.07659912,-0.6169233322,-1.6534338,-1.279860497,
0.18,,,0.203521466,,,,,,,,,3.8673999310000005,-37.40520096,-39.18639755,,,,
0.21,0.224874018,0.21969365300000002,,0.21108136100000002,,1.688435435,3.849154234,8.375178337000001,-0.7747070193000001,-1.382347345,-0.6620057225,,,,-0.7496855259,0.2316486835,-2.22171402,
0.24,,,0.25352146600000003,0.261081361,,,,,,,,3.7209999560000004,-37.12459946,-39.332798,0.1718685627,-3.392025471,1.114605904,
0.27,0.274874018,0.270500372,,,,1.68125701,1.234696507,10.19701385,-1.01171577,-0.8075400590999999,-0.9324583411,,,,,,,
0.3,0.324874018,0.321306205,0.303521466,0.311081361,,0.1968096644,1.275374413,8.714959145,-0.2903051674,0.12140589210000001,-0.07925742865,3.659999847,-36.56340027,-39.75979996,-1.4892585280000001,-2.224462032,-0.3486680984,
0.32999999999999996,,,0.353521466,,,,,,,,,3.6111998560000003,-36.13639832,-40.17459869,,,,
0.36,0.374874018,0.37211136100000003,,0.361081361,,1.300499082,2.7598218919999997,7.1949186329999995,0.8435800672,-0.3490992188,-0.004275931045,,,,-1.010643363,0.3597490788,-2.1519956590000002,
0.39,,,0.40352198,0.41108136100000003,0.41814046899999996,,,,,,,3.537999868,-36.02659988,-40.29660034,0.5450856686,0.7368505001000001,-1.619633675,5.0
0.42,0.42487401799999996,0.422917813,,,,2.5262224669999997,3.908974886,7.0151577,0.6314633489,0.1091889441,0.0838387832,,,,,,,
0.44999999999999996,0.47487401799999995,0.47372453200000003,0.45352198,0.461081361,,2.408974171,3.925724745,7.884350777000001,0.1913478971,-0.09101624042000002,0.1070509851,3.452600002,-36.09980011,-40.1989975,0.3318632841,0.9988725184999999,-1.650074005,
0.48,,,0.50352198,,,,,,,,,3.3550000189999998,-36.06319809,-40.21120071,,,,
0.51,0.524874018,0.524530365,,0.511081361,,1.817647934,4.105186462,9.342177391,0.409267664,-0.09177979826999999,-0.024586603050000003,,,,0.33615469929999997,1.046221256,0.8157196045,
0.54,,,0.55352198,0.5610813610000001,,,,,,,,3.147599936,-36.08760071,-40.11359787,-0.8060681820000001,0.8836550713,-0.14558887480000002,
0.57,0.5748740179999999,0.575335521,,,,1.420140266,4.272983074,8.499605179,0.42728766799999995,-0.8362498879000001,0.1311794519,,,,,,,
0.6,0.624874018,0.626141459,0.60352198,0.611081361,,4.587639332,5.429314613,10.39801121,0.1240019947,-1.6958646769999999,0.058641336860000004,2.7449998860000004,-36.25839996,-39.86959839,0.7973508834999999,1.4796514509999998,1.421490669,
0.63,,,0.65352198,,,,,,,,,2.110599995,-36.56340027,-39.3205986,,,,
0.6599999999999999,0.674874018,0.676948178,,0.661081361,,4.812564373,4.497908592,9.260822296,-0.3565820754,-2.5658638480000002,-0.2218902707,,,,1.3978433609999998,1.447230816,0.6536340714,
0.69,,,0.70352198,0.711081361,,,,,,,,1.049199939,-37.01480103,-38.39339828,2.5325455669999997,0.21807312969999998,2.7815027239999996,
0.72,0.724874018,0.727754063,,,,7.398308277000001,4.718048096,10.5538435,0.2619007528,-1.12319541,-0.3121429384,,,,,,,
0.75,0.774874018,0.778559219,0.75352198,0.7610813609999999,,6.8907308579999995,1.584347725,7.936992645,0.20585553350000002,-0.03985778242,-1.33103621,-0.2683999836,-37.58819962,-37.22219849,1.8653063769999998,-1.042803764,-0.04840278625,
0.78,,,0.80352198,,,,,,,,,-1.354200006,-38.1493988,-35.98999786,,,,
0.8099999999999999,0.8248740179999999,0.8293652090000001,,0.811081361,,3.9197425839999998,2.869891644,6.1462640760000005,0.26846736670000004,-0.17393875120000002,-1.6405830380000002,,,,-0.1874585152,-1.812605381,-1.575819492,
0.84,,,0.85352198,0.861081361,,,,,,,,-2.037400007,-38.74720001,-34.96519852,-0.292781353,-2.004135132,-2.163520336,
0.87,0.874874018,0.880171928,,,,3.282952785,2.027318954,5.564508915,-0.8832851648000001,-1.374559045,-0.5680879354,,,,,,,
0.8999999999999999,0.924874018,,0.90352198,0.9110813609999999,,3.637090445,0.0568295382,3.550948858,,,,-2.671799898,-39.27180099,-34.06240082,-1.159850836,-3.724890232,-3.198724747,
0.9299999999999999,,0.9309778129999999,0.95352198,,,,,,-1.7372496130000001,-2.4771382809999998,-0.3399364948,-3.6111998560000003,-39.40599823,-33.45240021,,,,
0.96,0.974874018,0.9817829690000001,,0.961081361,,4.791028976000001,-2.131406784,2.073679924,-3.013614893,-3.323314428,-0.4489727318,,,,-1.4066782,-4.453898907,-3.2032611369999997,
0.99,,,1.00352198,1.011081361,,,,,,,,-4.782400131,-38.97900009,-33.1595993,-0.07483673096,-6.402964592000001,-3.948719025,
1.02,1.024874018,1.0325889590000001,,,,7.161418915,-4.087240219,1.5951154230000002,-4.610217093999999,-4.862955093,0.5086830258,,,,,,,
1.05,1.074874018,,1.05352198,1.0610813609999998,,10.46261692,-0.8288139701,6.143871307,,,,-6.624599934,-37.47840118,-33.1473999,2.534436226,-2.671606302,0.6444554329,
1.08,,1.083395678,1.10352198,,,,,,-4.705356598,-4.147194862,0.8614473343000001,-9.064599991,-34.85540009,-33.00099945,,,,
1.1099999999999999,1.1248740179999999,1.134201563,,1.1110813609999999,,12.62692547,1.4694921969999999,7.946564198,-3.000787258,-2.838607311,0.8099834919,,,,4.195700645,1.5384922030000001,5.505934237999999,
1.14,,,1.15352198,1.161081361,,,,,,,,-12.09019947,-31.13439941,-32.41539764,2.992499352,3.765809059,5.098472595,
1.17,1.174874018,1.185006719,,,,13.87926865,1.495813251,7.211668491,-1.787339091,-2.435447931,2.672609568,,,,,,,
1.2,1.224874018,,1.20352198,1.211081361,,15.12892056,-0.7953144312,6.38076067,,,,-15.95759964,-26.22999954,-31.45159912,5.7405653,2.7346272469999997,6.167003632,
1.23,,1.235812761,1.25352198,,,,,,-0.5544965863,-1.004691005,2.00678587,-20.48379898,-20.32519913,-30.13399887,,,,
1.26,1.274874018,1.28661948,,1.261081361,,14.31954765,-1.180858016,0.1776670814,-0.6424586177,0.08414421231000001,1.516733766,,,,5.433205605,2.354269981,1.2394151690000001,
1.29,,,1.30352198,1.3110813609999998,,,,,,,,-25.09539986,-13.76159954,-28.64559937,4.394396782,2.0583753590000002,-0.8932031393000001,
1.3199999999999998,1.324874018,1.337425365,,,,11.49212933,-2.538485765,0.10588239880000001,-0.7275190949,0.6137487888000001,0.660631299,,,,,,,
1.3499999999999999,1.374874018,,1.35352198,1.3610813609999999,,6.689733982000001,-3.900599957,1.85593307,,,,-29.29220009,-7.197999954,-27.03520012,-1.8275170330000001,0.5846138,1.552130461,
1.38,,1.3882305730000002,1.40352198,,,,,,-0.05467082932999999,1.660893679,1.2285665270000001,-32.854599,-0.7319999933,-25.59560013,,,,
1.41,1.4248740180000001,1.4390365630000002,,1.411081361,,12.46421337,-2.799303293,2.6051857469999997,0.7153021693000001,0.5584670901,0.44851461049999997,,,,1.9406738280000002,1.718687534,2.764236927,
1.44,,,1.45352198,1.461081361,,,,,,,,-35.12379837,4.770199776,-24.47319984,1.418530464,1.40954113,-0.3363730907,
1.47,1.4748740180000002,1.4898433340000001,,,,7.374380112000001,-3.790530205,1.106680512,0.3442124426,0.689493835,0.06612421572,,,,,,,
1.5,1.5248740180000002,,1.503521198,1.511081361,1.525967708,6.49322319,-3.8383865360000002,0.4435695112,,,,-36.27059937,9.027999878,-23.72900009,-3.522233009,0.47450542450000005,-2.466125965,0.0
1.53,,1.540648437,1.553521198,,,,,,-0.5812211633,0.9371923804000001,0.33336988089999997,-36.42919922,12.34639931,-23.81439972,,,,
1.56,1.574874018,,,1.5610813609999998,,5.164608479,-2.603091955,3.529413462,,,,,,,-3.22267437,2.39157939,0.22313904760000003,
1.5899999999999999,,1.591453646,1.6035211980000001,1.6110813609999999,,,,,-0.2266243398,0.6826218367,0.6589514613,-35.770401,14.8107996,-24.58300018,-3.575709343,2.356941223,1.897070169,
1.6199999999999999,1.624874018,1.642259635,,,,4.989932537,-3.30927372,4.089632988,0.3990359604,0.35230615740000004,1.229330063,,,,,,,
1.65,1.6748740180000001,,1.6535211980000002,1.661081361,,7.872386456,-4.930111885,4.649852753,,,,-34.58699799,16.70179939,-25.87619972,-0.7466211319,1.127002716,1.9204094409999999,
1.68,,1.693066406,1.703521198,,,,,,0.43263256549999995,1.061041713,0.4598152637,-33.1352005,18.08040047,-27.55979919,,,,
1.71,1.7248740180000002,,,1.711081361,,14.38654709,-6.531807422999999,6.258726597000001,,,,,,,7.151963234,-0.3286852837,2.450491667,
1.74,,1.743872343,1.753521198,1.761081361,,,,,1.123806238,0.1455343664,-0.504712522,-31.56139946,18.89780045,-29.43859863,-0.1834330559,-1.012817383,5.239194393,
1.77,1.7748740180000002,1.7946775,,,,8.513961792,-6.646663189,5.973681927,0.46348035340000004,-0.1597365588,0.4709632397,,,,,,,
1.7999999999999998,1.824874018,,1.803521198,1.8110813609999998,,12.35892868,-7.458128929,0.8742775917,,,,-30.26819992,19.11739922,-31.00020027,-4.101756096,-2.6951150889999997,-6.103510857000001,
1.8299999999999998,,1.845483541,1.8535211980000001,,,,,,-0.665518105,0.43568679689999995,0.7461498976000001,-29.15799904,19.43459892,-32.22019958,,,,
1.8599999999999999,1.874874018,,,1.8610813609999999,,8.090133667,-7.965706347999999,1.278963685,,,,,,,0.5150856972,-0.8696727753,-0.1545648575,
1.89,,1.8962903119999999,1.9035211980000002,1.911081361,,,,,-0.9245173335,-1.221236348,0.2221956849,-28.1697998,20.08119965,-33.1473999,-2.049676418,-2.275418282,-4.19023037,
1.92,1.9248740180000001,1.94709625,,,,5.892325877999999,-7.522735119,-0.6266204119,-1.288735032,-0.7330167294,0.9196305275,,,,,,,
1.95,1.9748740180000002,,1.953521198,1.961081361,,9.287142754,-5.557330607999999,1.2837493420000001,,,,-27.55979919,20.91079903,-33.48899841,0.7265005112,2.849884987,-5.324064255,
1.98,,1.997901458,2.003521198,,,,,,-0.41186377409999997,-1.1653438809999999,1.3614258769999998,-27.16939926,22.05760002,-33.34259796,,,,
2.01,2.024874018,,,2.011081361,,4.446462631,-5.82532692,0.5847460628,,,,,,,-1.740437508,1.5499243740000002,-1.332692742,
2.04,,2.0487075,2.0535211980000003,2.061081361,,,,,-0.1015533581,-1.074022174,2.157054424,-26.9863987,23.41180038,-32.74480057,-1.192073822,3.8404779430000002,1.2904863359999998,
2.07,2.074874018,2.099514271,,,,5.011467934,-4.331607342,1.3244273659999999,-0.2677038014,-0.8344173431,1.9767017359999999,,,,,,,
2.1,2.1248740180000003,,2.103521198,2.111081361,,4.666602135,-6.017051697,1.4033905269999998,,,,-26.87660027,25.05879974,-31.6833992,-0.108232975,1.813835144,0.4055570364,
2.13,,2.150320208,2.153521198,,,,,,-1.128845692,-0.8562551737,1.9602088930000001,-26.6935997,27.40119934,-29.95100021,,,,
2.16,2.174874018,,,2.161081361,,2.566900492,-6.828517437,-2.2139592169999998,,,,,,,-0.6933908462999999,4.70128727,-0.2714241743,
2.19,,2.201125416,2.2035211980000002,2.2110813609999997,,,,,-1.337602735,-0.5109737515,1.779398084,-26.24219894,30.5,-27.75499916,0.5490033627,1.014069557,1.237963676,
2.2199999999999998,2.224874018,,,,,4.731208801,-7.211668491,-0.6242275834000001,,,,,,,,,,
2.25,2.274874018,2.251931458,2.253521198,2.261081361,,5.066503048,-12.20100307,0.26141586899999997,-1.370435834,-0.3950654566,1.681967974,-25.58339882,33.78179932,-25.229599,1.604958057,-1.9854230880000001,0.9581509233,
2.28,,2.302738281,2.3035211980000003,,,,,,-0.6974348426000001,-1.647302389,1.1005940440000002,-24.55859947,37.11240005,-22.41139984,,,,
2.31,2.324874018,,,2.311081361,,6.845267296,-13.93430328,1.784148335,,,,,,,3.9616308210000004,-4.223601341,4.568227291,
2.34,,2.353544218,2.353521198,2.361081361,,,,,1.291178346,-1.626228094,-0.13805148009999998,-23.28979874,40.22340012,-19.67860031,5.3980393410000005,-6.669796944,3.6476740839999997,
2.37,2.3748740180000003,,,,,7.810173035,-14.03719521,-0.2102692872,,,,,,,,,,
2.4,2.424874018,2.404349583,2.403521354,2.411081361,,2.763411045,-8.997611046,2.67487669,2.4290342330000003,-1.68166256,-0.4698942602,-22.13080025,42.72439957,-17.65340042,2.117060184,0.005275726318,4.672003746000001,
2.4299999999999997,,2.455155624,2.4535213540000003,,,,,,2.628170252,-0.22983127829999997,-0.3587200642,-21.1182003,44.49340057,-16.39679909,,,,
2.46,2.474874018,,,2.4610813609999997,,-0.6577271223,-6.9649086,-1.354636669,,,,,,,-2.75501585,2.258268356,-2.651720047,
2.4899999999999998,,2.505962395,2.503521354,2.511081361,,,,,2.015337706,2.7504925730000003,0.17622943219999998,-20.2519989,45.4693985,-16.03079987,-1.69449985,0.9285392761,5.5366091729999996,
2.52,2.524874018,,,,,0.8335995674,-9.390333176,5.499902725,,,,,,,,,,
2.55,2.574874018,2.556768385,2.553521354,2.561081361,,-3.200400352,-38.89742661,3.1079776289999996,2.189429283,5.099352837,3.633930445,-18.73920059,45.65240097,-17.15320015,0.1160143614,-6.957997322000001,0.1145944595,
2.58,,2.607573593,2.603521354,,,,,,0.1751604527,2.815700531,2.865331888,-15.53059959,45.10339737,-19.52000046,,,,
2.61,2.6248740180000003,,,2.611081361,,-2.975175858,-1.111466169,-0.8422735929,,,,,,,0.6860306263,12.36136246,-4.364710331,
2.6399999999999997,,2.658379635,2.653521354,2.661081361,,,,,2.187902212,0.020157959309999997,-1.371504784,-11.79739952,43.93219757,-22.44799995,3.02294302,5.018751621,-8.12934494,
2.67,2.674874018,,,,,3.105584621,-1.97826612,0.5536393522999999,,,,,,,,,,
2.6999999999999997,2.724874018,2.709186458,2.703521354,2.711081361,,-1.21555388,-3.16570425,-0.06161518394999999,0.06856760382999999,0.8948912620999999,-0.6302416325,-8.515600204,42.06559753,-26.22999954,1.9827194209999999,5.074990273,-3.4203119280000003,
2.73,,2.759992395,2.7535213539999996,,,,,,-1.524369359,1.514748454,-0.49402272700000005,-5.184999943,40.16239929,-30.25599861,,,,
2.76,2.774874018,,,2.7610813610000005,,0.5584250092999999,-4.829613209,3.804887056,,,,,,,1.681619287,4.523111343,-1.9507389069999999,
2.79,,2.810797656,2.803521354,2.8110813610000003,,,,,-0.8684720993,0.4366030693,-0.3907895386,-1.537199974,38.80820084,-33.56219864,-1.30326128,-3.2134981160000002,13.03202057,
2.82,2.824874018,,,,,-5.694917679,-19.86192322,20.58006859,,,,,,,,,,
2.85,2.8748740180000003,2.861603697,2.8535213539999997,2.861081361,,-1.81645143,-4.127918243,3.699303865,1.312252641,1.484969735,-0.3964398801,2.281399965,37.88100052,-36.19739914,-1.616150737,-3.496244431,0.6315131186999999,
2.88,,,2.9035213539999996,,,,,,,,,6.30739975,37.06359863,-38.36899948,,,,
2.9099999999999997,2.924874018,2.912410468,,2.9110813610000004,,-4.399802685,-15.81117344,1.4823536869999998,0.2334963679,-0.997208178,-0.1554606259,,,,-2.840191364,-6.684138298,-1.7644383909999999,
2.94,,2.963216458,2.953521354,2.961081361,,,,,-1.062110662,0.4373666346,1.003774762,9.259799957,36.49020004,-39.46699905,-3.076119184,0.020408630369999996,-8.317421912999999,
2.9699999999999998,2.974874018,,,,,-2.575574398,-7.762316704,-4.086342812,,,,,,,,,,
3.0,3.024874018,3.014021666,3.0035213539999996,3.0110813610000005,,2.5046870709999998,-10.52991486,-6.375077724,-2.419107914,-1.300188422,0.2451024652,10.52859974,36.40480042,-39.43040085,4.276563643999999,-0.3737678528,-10.34315586,
3.03,,,3.053521354,,,,,,,,,10.67500019,37.01480103,-38.71059799,,,,
3.06,3.074874018,3.06482776,,3.0610813610000003,,0.4004986882,-9.801898956,4.209274292,-1.131441832,-1.566823244,-1.128540277,,,,2.845859051,-1.45659256,-0.1164491177,
3.09,,3.1156345310000004,3.1035213539999997,3.111081361,,,,,-1.642568231,0.06856760382999999,-0.990183413,10.35779953,38.33239746,-37.34420013,-0.9742068648000001,-0.3321228027,-1.5098934169999998,
3.12,3.1248740180000003,,,,,-1.2729816440000001,-7.836493969,0.5368895531,,,,,,,,,,
3.15,3.174874018,3.16644052,3.1535213539999996,3.1610813610000004,,-0.7079764009,-6.873981476,1.142572761,-1.522078633,-1.311489105,-0.14080029730000002,9.601399422,39.94279861,-35.4897995,-0.08684939146,3.1869130130000003,1.826667786,
3.1799999999999997,,,3.203521354,,,,,,,,,8.45459938,41.35799789,-33.56219864,,,,
3.21,3.224874018,3.2172457289999996,,3.211081361,,-0.02572284266,-7.379166126,0.7618148923,-1.108229637,-2.660850763,-0.060779303310000005,,,,0.5331334472,2.307009697,0.9727173448,
3.2399999999999998,,3.268051822,3.2535213539999996,3.2610813610000005,,,,,-1.453052878,-1.399603724,0.1861557066,6.844199657000001,42.87080002,-31.30519867,0.5192514658,1.089372635,0.49383467439999995,
3.27,3.274874018,,,,,-0.2509472668,-8.777471542,-1.766202211,,,,,,,,,,
3.3,3.324874018,3.3188585930000003,3.303521354,3.3110813610000003,,-0.6218347549000001,-9.507581711,0.2733799815,-2.02343154,-0.9593356251999999,0.1620272398,4.8677997589999995,44.79840088,-28.29179955,-0.06370300055,1.104011536,-0.07413935661,
3.33,,,3.3535213539999997,,,,,,,,,2.89139986,46.9455986,-24.57079887,,,,
3.36,3.3748740180000003,3.369664583,,3.361081361,,2.349153519,-10.24008465,3.0720851419999997,-1.512915969,-0.7391251922,0.24326992030000003,,,,2.266176939,-1.694828987,5.716679096,
3.3899999999999997,,,3.4035213539999996,3.4110813610000004,,,,,,,,0.6832000017000001,48.93420029,-20.59359932,6.162732601,-3.7710809710000004,4.0111246110000005,
3.42,3.424874018,3.4204697910000004,,,,6.364010811,-13.81944847,3.778566122,-0.2982461751,-1.230857253,-1.211615562,,,,,,,
3.4499999999999997,3.474874018,3.471275885,3.453521354,3.461081361,,3.225524902,-14.61416435,6.431009769,2.444916248,-0.49173203109999997,-1.056460381,-1.50059998,50.43479919,-16.95800018,4.23453474,-7.266811371,8.973693848,
3.48,,,3.5035213539999996,,,,,,,,,-3.4282000060000004,51.41079712,-14.38379955,,,,
3.51,3.524874018,3.522082708,,3.5110813610000005,,-0.9092726111,-18.14776421,-7.296613692999999,4.440095901,-0.3778090179,-1.284764528,,,,-0.41075307130000005,-6.2595396039999995,0.9984000325,
3.54,,,3.553521354,3.5610813610000003,,,,,,,,-5.221600056000001,51.60599899,-13.46879959,-2.949429035,-7.118371964,-4.450329303999999,
3.57,3.574874018,3.572888645,,,,-0.40887355799999997,-14.86062527,1.6980067490000001,2.844563007,0.07314895837999999,-0.6568135023,,,,,,,
3.5999999999999996,3.6248740180000003,3.623693906,3.6035213539999997,3.611081361,,2.253440619,-12.00209904,-0.006580262445,2.054126501,0.8330429196,-0.6077930331,-6.917399883,51.02039719,-13.90799999,2.355717421,-4.162386894,-1.686095715,
3.63,,,3.6535213539999996,,,,,,,,,-8.112999916,49.78820038,-15.48180008,,,,
3.6599999999999997,3.674874018,3.6744999469999997,,3.6610813610000004,,-1.9172492030000001,-5.413761139,-2.616252422,1.4574815030000001,1.18260026,-0.7797465323999999,,,,-2.03227973,1.885931969,-6.915647507,
3.69,,,3.703521354,3.711081361,,,,,,,,-9.003600121,48.00699997,-18.01939964,-0.08144724369,5.285177708,-5.858150482,
3.7199999999999998,3.724874018,3.72530677,,,,2.1337995530000002,-3.40498662,-2.805285454,1.086391807,1.483900666,-0.9306257963,,,,,,,
3.75,3.774874018,3.776112812,3.7535213539999996,3.7610813610000005,,-0.6601199508,-3.141776085,-0.5117649436,-0.013896775430000001,1.673263311,-0.9417737722,-9.564800262,45.66460037,-21.7038002,-0.4508292675,5.284525394,-5.169288635,
3.78,,,3.803521354,,,,,,,,,-9.94299984,43.1391983,-26.13239861,,,,
3.81,3.824874018,3.826917968,,3.8110813610000003,,-0.9786644578,-3.5341989989999996,-0.2365903407,-1.5759859090000001,1.873773932,-0.17241163550000002,,,,-2.329167843,6.42365551,-5.785493851,
3.84,,,3.8535213539999997,3.861081361,,,,,,,,-9.698999405,40.86999893,-30.58539963,-0.7517828941,1.9624862669999998,0.18957901,
3.8699999999999997,3.8748740180000003,3.877724062,,,,1.343569875,-9.114859581000001,10.53709316,-1.4467917680000002,1.9676917790000001,0.040621344,,,,,,,
3.9,3.924874018,3.928530885,3.9035213539999996,3.9110813610000004,,4.649852753,-20.08236313,9.969695091,0.4909684956,1.4632846119999998,-1.353637576,-8.747400284,39.16199875,-34.0135994,4.375612736,-10.33183861,11.53734779,
3.9299999999999997,,,3.953521354,,,,,,,,,-7.441999912000001,37.8443985,-36.36819839,,,,
3.96,3.974874018,3.979336822,,3.961081361,,-1.979462504,-9.421440125,4.4943189619999995,0.006108472589,1.138619304,-0.8852704167000001,,,,-1.1212933059999999,1.8369131090000002,2.111711264,
3.9899999999999998,,,4.003521354,4.0110813610000005,,,,,,,,-5.916999817000001,37.01480103,-37.92979813,1.816813588,-8.084527016000001,3.431820154,
4.02,4.024874018,4.030142083,,,,4.623531342,-13.97737408,2.6386852259999998,0.44790375229999996,-0.12339114400000001,-1.3982293609999998,,,,,,,
4.05,4.074874018,,4.053521354,4.061081361,,-3.052045345,-8.540283203,-0.8350951076,,,,-4.63599968,36.50239944,-38.88140106,-4.245429993,1.997373581,-8.140657425,
4.08,,4.080948124,4.103521354,,,,,,-0.3139754832,0.4150707126,-1.041036487,-12.09019947,29.67039871,-39.99160004,,,,
4.109999999999999,4.124874018,4.131754947,,4.111081361,,1.7386847730000001,-8.837292671,-6.96879673,-1.5602566,-2.511193037,0.014049487190000001,,,,1.055078983,0.11871528630000001,-11.45986557,
4.14,,,4.1535213539999996,4.161081361,,,,,,,,-11.85839939,30.26819992,-39.56459808,-2.602216721,0.244764328,-0.3039693832,
4.17,4.174874018,4.182560989,,,,1.326820135,-9.658329964,2.169692039,-1.800777674,0.36055260899999997,0.7725690603,,,,,,,
4.2,4.224874018,,4.203521353999999,4.211081361000001,,1.101894855,-7.376772881,1.384247899,,,,-11.8949995,31.34179878,-38.52759933,-0.6006436347999999,1.2840795520000001,-1.0629576440000001,
4.2299999999999995,,4.233366145,4.253521354,,,,,,-1.804900885,-0.1430909634,0.6629219651,-12.05359936,32.61059952,-37.06359863,,,,
4.26,4.274874018,4.284172239,,4.2610813610000005,,2.717947483,-8.607281685,1.197607756,-1.96921885,-3.010407925,-0.06581879407,,,,1.583879709,1.339754105,0.5505561233,
4.29,,,4.303521354,4.311081361,,,,,,,,-12.68799973,34.3185997,-35.35559845,-1.338831186,-1.285645485,3.217608929,
4.32,4.324874018,4.3349790619999995,,,4.334782551,0.9269196987,-10.05105114,2.621935368,-1.2120736840000002,-1.261705041,0.6998782754,,,,,,,5.0
4.35,4.374874018,,4.353521354,4.361081361,,2.5166511540000003,-8.619246483,-0.5285146832000001,,,,-14.04220009,35.83139801,-32.69599915,0.9176096915999999,0.5038709641,0.9057259559999999,
4.38,,4.385784999,4.403521561,,,,,,-1.096012712,-0.575876236,1.1509889359999999,-15.20119953,37.57600021,-29.6337986,,,,
4.41,4.424874018,4.436590467,,4.411081361,,2.887837887,-6.594020844,-3.8563327789999997,-1.875301123,-1.0827267170000001,0.8773293495000001,,,,1.5560042859999998,2.678399563,-1.727371693,
4.4399999999999995,,,4.4535215610000005,4.461081361000001,,,,,,,,-16.15279961,39.54019928,-26.36419868,2.321320057,-2.022629738,5.075407028,
4.47,4.474874018,4.487396509,,,,3.2901310919999998,-12.7875433,5.576473236,-1.57430613,-0.3144336343,0.4497362971,,,,,,,
4.5,4.524874018,,4.503521561,4.5110813610000005,,5.566901683999999,-13.11536026,3.5988051889999997,,,,-16.76280022,41.82159805,-21.87459946,6.3653492929999995,-2.991365433,7.411619186,
4.53,,4.538203331,4.553521561,,,,,,0.5045598149,-1.095096469,-0.5407525301,-16.86039925,43.66379929,-17.87299919,,,,
4.56,4.574874018,4.589009373000001,,4.561081361,,1.6453646419999999,-14.93031597,6.337689877000001,2.617175102,0.692242682,-0.5140279531,,,,0.6582699418,-4.793597221000001,8.433753967000001,
4.59,,,4.603521561,4.611081361,,,,,,,,-16.95800018,45.03020096,-14.82299995,3.535646915,-5.531908989,3.7559428219999997,
4.62,4.624874018,4.639814529,,,,2.248655081,-14.71466255,-0.9475577474,4.281886578,0.5911474228,-0.7044596076,,,,,,,
4.6499999999999995,4.674874018,,4.653521561,4.661081361,,-1.359422326,-17.83909035,-3.2817561630000003,,,,-17.27519989,45.55479813,-13.62739944,-0.5988956094,-8.425544739,-8.713717461,
4.68,,4.690620623,4.7035215610000005,,,,,,2.8068430419999997,2.214932203,-0.1053711548,-16.98239899,45.54259872,-14.06659985,,,,
4.71,4.724874018,,,4.711081361000001,,-0.8255237937000001,-12.82104301,-0.9403793215999999,,,,,,,-2.242213249,-5.127828598,-1.7856618169999998,
4.74,,4.741427186,4.753521353,4.7610813610000005,4.750588383999999,,,,2.38551116,1.749466538,0.7201889156999999,-15.8477993,44.5666008,-16.18939972,-2.040127039,1.4484195709999999,-4.10048008,0.0
4.77,4.774874018,4.792233176,,,,-1.902892232,-6.36640358,-1.38574338,2.8502132889999996,0.08780929446,0.46103698020000006,,,,,,,
4.8,4.824874018,,4.803521353,4.811081361,,4.551746845,-2.713161707,-2.204387903,,,,-14.63999939,42.78540039,-19.32480049,2.417246342,6.197320938,-5.01083231,
4.83,,4.8430384360000005,4.8535213530000005,,,,,,1.709914207,2.2280654909999997,-0.2076880634,-12.99300003,40.12580109,-23.58259964,,,,
4.859999999999999,4.874874018,,,4.861081361,,2.023430586,-1.4443675280000001,-0.5500500798,,,,,,,3.925071716,6.9510793689999995,-5.824150562000001,
4.89,,4.893844478,4.903521353,4.911081361,,,,,-0.05635065958,2.702388287,-0.4955498278,-10.74819946,38.125,-29.52400017,0.8985712528,6.887145042,-6.824987411,
4.92,4.924874018,4.944651301,,,,0.1393819153,-2.145763636,-1.0743774179999999,-1.955474734,1.876217365,-0.7275190949,,,,,,,
4.95,4.974874018,,4.953521353,4.961081361000001,,-3.2291140560000002,-9.181859016,14.86062527,,,,-8.112999916,35.35559845,-34.50159836,0.5254468918,3.87065506,1.266121864,
4.9799999999999995,,4.995457342,5.003521353,,,,,,-0.3880407214,1.10914588,-0.6824691296,-5.392399788,33.17179871,-38.57640076,,,,
5.01,5.024874018,,,5.0110813610000005,,0.6972087026,-19.03849411,11.35573769,,,,,,,-2.9118134980000003,-19.44612503,6.97835207,
5.04,,5.046262498,5.053521353,5.061081361,,,,,0.9411629438,1.7155644890000001,-0.7359182239000001,-2.452199936,31.26859856,-41.29700089,-2.7933552269999997,4.863934994,-1.059182644,
5.069999999999999,5.074874018,5.097068592,,,,-4.948058128,-2.828017235,7.012764931,-0.004428642801999999,0.02168507688,-0.4792096615,,,,,,,
5.1,5.124874018,,5.1035213530000005,5.111081361,,-3.9185462,-15.66760445,-7.102795124,,,,0.4147999883,29.82899857,-42.59019852,-3.331373215,-5.00406456,-6.355852127,
5.13,,5.147875415,5.153521353,,,,,,-0.5479300022,-2.235395432,0.6704048514000001,2.500999928,28.85299873,-43.45639801,,,,
5.16,5.174874018,,,5.161081361,,-2.005783558,-6.840481757999999,-3.569194078,,,,,,,-3.397860765,-0.2513237,-8.623580933,
5.1899999999999995,,5.1986813530000004,5.203521353,5.211081361000001,,,,,-2.2978546619999998,-2.915726662,0.5670189857,3.977200031,28.81639862,-43.48080063,5.688062668,-0.1477737427,-11.79305267,
5.22,5.224874018,5.249486613,,,,6.160621166,-9.897911072000001,-6.379863262000001,-2.34901309,-2.1602613930000003,0.4158342779,,,,,,,
5.25,5.274874018,,5.253521353,5.2610813610000005,,5.626722336,-12.92632675,1.58315134,,,,4.209000111,30.07299995,-42.33399963,4.988771915,-4.27986908,0.0822095871,
5.279999999999999,,5.300292655,5.303521353,,,,,,-2.7436203960000003,0.17164808510000001,-0.6617003082999999,3.4282000060000004,32.20800018,-40.4917984,,,,
5.31,5.324874018,,,5.311081361,,0.8742775917,-6.409474372999999,1.578365684,,,,,,,2.73692894,3.1186203960000003,0.6809867023999999,
5.34,,5.351099478,5.3535213530000005,5.361081361,,,,,-1.99319458,-1.308740258,-1.150378108,1.8421999219999998,34.40399933,-37.86880112,-2.7234654430000003,2.323019505,2.708181143,
5.37,5.374874018,,,,,-2.056032896,-8.205287933,2.1337995530000002,,,,,,,,,,
5.3999999999999995,5.424874018,5.401905206,5.40352104,5.411081361,5.400557342000001,-1.5101702209999999,-8.341678619,-0.7633104324,-1.1538904909999999,-2.6755108830000003,-0.2370087355,-0.2683999836,36.29499817,-35.08720016,-2.7952933310000003,0.7162818909,2.66579771,5.0
5.43,,5.452710363,5.45352104,,,,,,-1.2039799690000001,-2.310071707,0.8672503829000001,-2.83039999,38.75939941,-31.95179939,,,,
5.46,5.4748740179999995,,,5.461081361000001,,1.317248821,-7.7838521,-2.3216362,,,,,,,-0.022730410099999997,1.8132038119999998,-2.742034435,
5.49,,5.503516456,5.50352104,5.5110813610000005,,,,,-2.28594327,0.10796725,0.929556787,-5.477799892,41.21159744,-27.88920021,3.7497658730000003,-2.465061188,6.311796188,
5.52,5.524874017999999,,,,,5.143073082,-12.97896957,5.779862881000001,,,,,,,,,,
5.55,5.574874017999999,5.554323279,5.55352104,5.561081361,,3.663411379,-13.48176098,0.05563312768999999,-0.24785128239999998,-1.4973393680000002,0.242659077,-7.722599982999999,43.67599869,-23.32639885,6.832354069,-1.665280342,6.268887042999999,
5.58,,5.605129217000001,5.60352104,,,,,,0.04489727318,0.3571929336,-0.48531815409999995,-9.698999405,45.84759903,-18.87339973,,,,
5.609999999999999,5.624874018,,,5.611081361,,2.694019079,-12.86411381,3.9460637569999997,,,,,,,3.899176598,-5.011470795,6.210634232,
5.64,,5.655934477000001,5.65352104,5.661081361,,,,,2.635195017,0.8929060101999999,-0.7817317843000001,-11.11419964,47.38479996,-15.17679977,0.8246238828,-6.360723495,5.827507019,
5.67,5.674874018,,,,,-0.1692921966,-15.52164268,3.632304668,,,,,,,,,,
5.7,5.7248740179999995,5.706740571,5.70352104,5.711081361000001,,-1.818844318,-16.6779747,-6.712465762999999,4.184303761000001,0.21318569780000002,-0.5523586273,-12.30980015,48.23880005,-13.17599964,-1.3678886890000002,-6.373947144,-8.025212287999999,
5.7299999999999995,,5.7575473420000005,5.75352104,,,,,,2.912367105,1.52696538,-0.19821994010000002,-12.99300003,48.01919937,-13.39559937,,,,
5.76,5.774874017999999,,,5.7610813610000005,,-2.015354872,-15.81117344,0.8455637096999999,,,,,,,-4.005947113,-7.125440598,0.29690074920000004,
5.79,,5.808353331,5.80352104,5.811081361,,,,,2.367491245,2.0051062109999997,0.4935645759,-12.7489996,47.15299988,-15.05480003,0.6775507927,-0.5510816574,-5.8065595629999995,
5.819999999999999,5.824874017999999,,,,,0.9966106415,-7.867600918,-2.228316069,,,,,,,,,,
5.85,5.874874018,5.85915854,5.85352104,5.861081361,,1.089930773,-4.432105541,-1.569990754,2.605568886,0.2437280566,-0.06016845629,-11.71199989,45.55479813,-18.01939964,-0.2784489393,3.687294006,-5.619069099,
5.88,,5.9099646329999995,5.90352104,,,,,,1.9565438030000002,2.4129993919999997,-0.1928750277,-10.60179996,43.24900055,-22.10639954,,,,
5.91,5.924874018,,,5.911081361,,3.3690943719999997,-3.129812002,-1.749452472,,,,,,,3.948037624,5.28045845,-6.606086254,
5.9399999999999995,,5.960771456,5.95352104,5.961081361000001,,,,,0.1374406368,2.7685124869999997,-0.6438329815999999,-9.247599602000001,39.73539734,-26.57159996,0.5172920227000001,7.013813496,-6.608188152,
5.97,5.9748740179999995,,,,,-0.3442673683,-0.965503931,-1.8212370869999999,,,,,,,,,,
6.0,6.024874017999999,6.011577497999999,6.00352104,6.0110813610000005,,-1.65613234,-3.462414265,3.761517286,-1.952573299,1.692046881,-0.8768712282,-7.063799857999999,36.80739975,-31.58580017,0.329510808,5.869617462000001,-5.027552605,
6.029999999999999,,,6.05352104,,,,,,,,,-4.648200035,34.51379776,-35.92900085,,,,
6.06,6.074874017999999,6.062382653999999,,6.061081361,,-8.405088425,-27.02992249,15.00688648,-1.3847907780000002,0.5430431962,-0.5465555786999999,,,,-7.426361084,-8.353354454,10.03450584,
6.09,,6.113188748,6.10352104,6.111081361,,,,,1.087613583,1.9959434269999998,-0.3851391971,-2.513200045,32.67160034,-38.83259964,3.3165278430000003,-4.15292263,4.220783234,
6.12,6.124874018,,,,,-1.51256299,-7.585247992999999,3.8312082289999996,,,,,,,,,,
6.1499999999999995,6.174874018,6.163995571,6.15352104,6.161081361,,-5.422136307000001,-18.95713806,3.34038043,0.9242119193,0.5833591223,-0.06413896382,0.2439999878,31.25639915,-40.63819885,-6.647051811,-4.330849648,2.861608982,
6.18,,,6.20352104,,,,,,,,,2.781599998,29.95100021,-41.83379745,,,,
6.21,6.2248740179999995,6.214801508,,6.211081361000001,,-2.458326101,-1.966302037,-8.941379547,0.189209938,-0.5152496696,0.6620057225,,,,-2.219922543,6.830403327999999,-17.84768867,
6.24,,6.265606769,6.25352104,6.2610813610000005,,,,,-2.655200243,-3.180681705,0.4462239146,4.79460001,29.35319901,-42.06559753,6.971111774,-2.031357765,-8.379720687999999,
6.27,6.274874017999999,,,,,7.604091167000001,-13.95823193,-7.229614735,,,,,,,,,,
6.3,6.324874017999999,6.316412862999999,6.30352104,6.311081361,,1.908575177,-10.52034378,4.32652235,-2.1324677469999997,-1.532921195,-0.2480039895,6.051199913,29.81679916,-41.44339752,3.465741158,-4.341942787,3.018015862,
6.33,,,6.35352104,,,,,,,,,6.160999775,31.35400009,-39.91839981,,,,
6.359999999999999,6.374874018,6.367219685,,6.361081361,,-0.030508488419999997,-8.011170387,1.202393413,-1.518260837,0.4016320705,-0.3990359604,,,,1.251380682,1.158967018,-0.08161187172,
6.39,,6.418025622999999,6.40352104,6.411081361,,,,,-1.906912446,-0.7284353375,-0.5245651007,5.5753998760000005,33.1230011,-38.08839798,-0.18233937030000003,1.33125782,-1.368643284,
6.42,6.424874018,,,,,0.12023933980000001,-8.985647202000001,1.233500123,,,,,,,,,,
6.45,6.4748740179999995,6.468830883,6.45352104,6.461081361000001,,-1.1078768970000001,-8.379963875,2.1577277180000003,-1.310878277,-1.4371708630000002,-0.6526902914,4.587199688,35.29459763,-36.44139862,-0.3048913777,0.7999429703000001,2.298720598,
6.4799999999999995,,,6.50352104,,,,,,,,,3.171999931,36.80739975,-34.55039978,,,,
6.51,6.524874017999999,6.519636977,,6.5110813610000005,,-0.8733802437999999,-8.540283203,-0.7345965505,-1.37272656,-1.3632583619999998,-0.078952007,,,,-2.068387747,1.523783684,-0.3068126738,
6.54,,,6.55352104,6.561081361,,,,,,,,1.183400035,38.68619919,-32.01279831,2.261780262,1.048271179,0.8938465714,
6.569999999999999,6.574874017999999,6.5704438,,,,2.109871387,-9.588937759,-0.7202396393000001,-1.6980026959999999,-1.355317354,0.4081986845,,,,,,,
6.6,6.624874018,6.621249842,6.60352104,6.611081361,,0.994217813,-11.63839054,4.295415878,-2.067107201,-0.07589777559,0.06383354217000001,-1.085799932,41.08959961,-28.57239914,1.4642938380000001,-1.7081184390000002,5.201498032,
6.63,,,6.65352104,,,,,,,,,-3.4038000110000004,43.51739883,-24.70499992,,,,
6.66,6.674874018,6.672054997999999,,6.661081361,,2.935694218,-11.86810112,1.9229321480000001,0.18707197899999997,-1.490314603,-0.1131594554,,,,3.696632862,-3.4720668789999998,6.516345024,
6.6899999999999995,,,6.70352104,6.711081361000001,,,,,,,,-5.14839983,45.54259872,-21.14259911,-0.5194159746,-5.4887905120000005,8.765385627999999,
6.72,6.7248740179999995,6.7228610920000005,,,,-0.547657311,-15.61735535,5.571687698,1.79940331,0.0520747304,-0.1516428292,,,,,,,
6.75,6.774874017999999,6.773667915,6.75352104,6.7610813610000005,,0.4316053987,-15.40888023,-4.6366920469999995,3.9176688189999997,0.173480615,0.1452289373,-6.453799725,46.81139755,-18.4951992,1.6396720409999999,-5.5965023039999995,4.81769371,
6.779999999999999,,,6.80352104,,,,,,,,,-7.46639967,47.40919876,-17.5802002,,,,
6.81,6.824874017999999,6.8244739039999995,,6.811081361,,-2.47507596,-14.43709564,-3.104687452,2.7060532569999998,0.4723376334,0.1282779276,,,,-0.9588876367,-4.770096779,-6.528643607999999,
6.84,,,6.85352104,6.861081361,,,,,,,,-7.844599724,47.15299988,-18.09259987,-0.6241163015,-3.810818672,-0.760545969,
6.87,6.874874018,6.875279165,,,,-0.8111668825,-11.80349541,-0.2413759828,1.6465387340000002,3.2826931480000003,0.6108472347,,,,,,,
6.8999999999999995,6.924874018,6.926085362,6.903521144,6.911081361,,-2.630609512,-7.79820919,-1.220339537,1.67906642,-0.6290199757,-0.007482878863999999,-7.149199962999999,46.49419785,-19.39799881,-2.5022325519999997,-0.06862449646,-5.671114922,
6.93,,,6.953521144,,6.9349929139999995,,,,,,,-6.148799896,45.06679916,-21.82579994,,,,0.0
6.96,6.9748740179999995,6.976892185,,6.961081361000001,,1.925324917,-4.932504654,-3.351148129,1.150378108,0.2026485801,0.2693836391,,,,2.408082962,4.34161377,-6.460527897,
6.989999999999999,,,7.003521144,7.0110813610000005,,,,,,,,-4.953199863,43.1391983,-25.14419937,1.570277691,6.3372735979999995,-5.747900962999999,
7.02,7.024874017999999,7.027698175,,,,-0.7390831112999999,-2.861516714,-2.099103689,0.315808028,1.352873921,-0.7380561829000001,,,,,,,
7.05,7.074874017999999,7.078503435,7.053521143999999,7.061081361,,-0.7704889178000001,-3.603590965,0.1082752272,-1.424343109,1.847507477,-0.5215108395,-3.5745999810000004,40.99200058,-29.08479881,-0.4425313473,5.461062431,-4.093930244,
7.08,,,7.103521144,,,,,,,,,-1.8665999169999998,39.16199875,-32.90340042,,,,
7.109999999999999,7.124874018,7.1293095289999995,,7.111081361,,0.8359923959000001,-6.641877651000001,3.7471601960000003,-1.45244205,1.4292298559999999,-0.8032641411,,,,1.109868288,2.9319076539999998,-1.4055576319999998,
7.14,,,7.153521144,7.161081361,,,,,,,,-0.09759999812,37.75899887,-35.56299973,-2.897184372,-8.570827484,9.149213791000001,
7.17,7.174874018,7.180116352000001,,,,-5.304887772,-22.91456604,14.6261282,1.394564271,1.097387075,-0.8159392476,,,,,,,
7.199999999999999,7.2248740179999995,,7.203521144,7.211081361000001,,-3.0281169410000004,-8.698508262999999,4.013062477,,,,1.4639999869999998,36.6731987,-37.10020065,-1.894587517,-0.6864004134999999,4.617259026,
7.2299999999999995,,7.230922342,7.253521144,,,,,,1.240325332,0.6836907864,-0.1440072358,2.976799965,35.81919861,-38.08839798,,,,
7.26,7.274874017999999,7.281727602,,7.2610813610000005,,-0.9643075466,-11.76760292,-4.648955345,0.7408050299,-2.537001371,0.478446126,,,,1.05602181,-7.534005165,-4.005331993,
7.29,,,7.303521143999999,7.311081361,,,,,,,,4.416399956,35.52639771,-38.78379822,-4.196751595,4.443127155,-11.56352806,
7.319999999999999,7.324874017999999,7.3325336960000005,,,,-4.80209589,-7.371987343,-1.574776411,-1.1343433859999998,-2.704984426,1.257887244,,,,,,,
7.35,7.374874018,,7.353521144,7.361081361,,3.512663603,-11.4825573,-5.362315655,,,,4.4651999469999994,35.31900024,-38.96680069,1.484595418,-2.006140709,-7.515360832000001,
7.38,,7.383340571000001,7.403521144,,,,,,-0.451721549,-4.723223686,1.6072918180000002,3.92840004,35.58739853,-38.74720001,,,,
7.41,7.424874018,7.434146612,,7.411081361,,6.431009769,-7.934599876,1.688435435,-1.526812673,-0.7857022881999999,0.15393351019999998,,,,5.852688313,-1.946797371,1.213858843,
7.4399999999999995,,,7.453521144,7.461081361000001,,,,,,,,2.854799986,36.24620056,-38.1493988,1.5440597530000002,0.3607769012,-2.35953331,
7.47,7.4748740179999995,7.484951821,,,,-0.2724826932,-9.722935677,1.66450727,-1.819561243,-1.613094926,-0.7547017932,,,,,,,
7.5,7.524874017999999,,7.503521144,7.5110813610000005,,-3.248256683,-7.383951664,3.4552359580000003,,,,1.110199928,37.00259781,-37.39299774,-2.303035736,2.139315605,2.624057293,
7.529999999999999,,7.5357579139999995,7.553521143999999,,,,,,-1.154501319,-1.56499064,0.260068208,-0.34160000090000003,37.92979813,-36.17300034,,,,
7.56,7.574874017999999,7.586564737000001,,7.561081361,,-1.2610175609999998,-8.95932579,3.1821551319999997,-0.6174138784000001,-1.128998399,0.9880454540000001,,,,-2.112450123,2.609082699,2.830324173,
7.59,,,7.603521144,7.611081361,,,,,,,,-2.525399923,38.80820084,-34.90419769,1.8969695569999998,0.07928085327,-1.27643466,
7.62,7.624874018,7.637370831,,,,2.358724833,-8.854042052999999,-0.7417750359,-1.2763653990000001,-0.41720867159999997,0.9591829181,,,,,,,
7.6499999999999995,7.674874018,,7.653521144,7.661081361,,1.106680512,-10.24726295,3.069692373,,,,-4.806799889,40.11359787,-33.03759766,2.110318661,0.2757911682,2.0393981930000002,
7.68,,7.688176039,7.703521144,,,,,,-1.326454878,0.4885250926,0.4501944184,-6.600199699,41.99239731,-30.42679977,,,,
7.71,7.7248740179999995,7.7389821329999995,,7.711081361000001,,0.2015953064,-9.588937759,3.7447674269999998,-0.014965757730000001,-0.16065283119999998,-0.03741439432,,,,1.8158370259999999,0.8563671112000001,4.060097218,
7.739999999999999,,,7.753521144,7.7610813610000005,,,,,,,,-8.100799561,43.70039749,-27.8647995,0.808021903,-1.671954155,6.142828941,
7.77,7.774874017999999,7.789788956000001,,,,-0.8494520187000001,-12.40199947,6.304190159,2.006327868,-1.110978484,-0.07879929990000001,,,,,,,
7.8,7.824874017999999,,7.803521143999999,7.811081361,,0.7570292354000001,-13.20897961,5.909075737,,,,-9.101200104,45.15219879,-25.55900002,-0.9404402375,-4.664186478,7.874798297999999,
7.83,,7.84059505,7.853521144,,,,,,3.571471214,-0.9634588361,-0.10277505220000001,-9.698999405,45.79879761,-24.53419876,,,,
7.859999999999999,7.874874018,,,7.861081361,,-0.04007977992,-15.0403862,-3.8946180339999996,,,,,,,1.2656872270000001,-4.4974412919999995,-6.969539642000001,
7.89,,7.891400257999999,7.903521144,7.911081361,,,,,1.972425818,0.258235693,-1.005607247,-10.02839947,45.55479813,-24.85140038,0.1060401797,-3.793874741,1.210599422,
7.92,7.924874018,7.942206352,,,,-0.32033914329999996,-13.58704472,6.505187511,2.040229797,0.09101624042000002,-0.8217422962,,,,,,,
7.949999999999999,7.9748740179999995,,7.953521144,7.961081361000001,,-2.451147795,-9.275477409,0.11306086929999999,,,,-10.02839947,44.5666008,-25.88839912,-2.973356962,-2.890425682,-2.648255348,
7.9799999999999995,,7.9930132270000005,8.003521144,,,,,,1.522842169,-0.00946813263,-0.5868715047999999,-10.05280018,43.00500107,-27.92580032,,,,
8.01,8.024874018,,,8.011081361,,-2.8507490160000004,-5.954838276,4.029812336,,,,,,,-3.244899273,1.892357349,-2.386175632,
8.04,,8.043819217000001,8.053521144,8.061081361,,,,,1.03828764,0.2854183912,-0.20555010440000002,-10.24800014,40.90660095,-30.5121994,-1.989949107,3.063654423,-2.679413795,
8.07,8.074874018,8.094624477,,,,-0.9140582681,-5.114359379,2.021037817,0.27976804969999997,1.5747642519999998,0.01175880991,,,,,,,
8.1,8.124874018,,8.103521144,8.111081361,,-1.345065475,-5.174180031000001,0.6684948206,,,,-10.39439964,38.32019806,-33.76959991,-0.8623499273999999,3.0149545669999998,-4.869523525,
8.129999999999999,,8.145430623,8.153521143999999,,,,,,-0.8072346449,1.57797122,0.06872031837999999,-10.10159969,35.7947998,-37.18560028,,,,
8.16,8.174874017999999,,,8.161081361,,-0.5309075117000001,-5.7343993189999996,3.7734813689999998,,,,,,,-0.6076369882,2.7799005510000003,-2.100954771,
8.19,,8.196237446,8.203521144,8.211081361,,,,,-1.5747642519999998,2.5293657780000003,-0.052838288250000004,-9.259799957,33.65979767,-40.15019989,1.027580619,2.329471111,0.9765696526000001,
8.219999999999999,8.224874018,8.247043539,,,,0.1896311939,-6.158228397,5.684150219,-2.156901598,5.173112869,-0.720647037,,,,,,,
8.25,8.274874018,,8.253521144,8.261081361,,-5.881857395,-12.10289669,2.61714983,,,,-7.759199618999999,32.46419907,-41.73619843,1.5094010830000002,3.012604713,14.64229393,
8.28,,8.297848748,8.303521144,,,,,,0.9904888272,1.007134438,-0.4859289825,-5.465600014,32.06159973,-42.11439896,,,,
8.31,8.324874018,,,8.311081361,,-1.471885085,-10.82662487,6.263512135,,,,,,,-0.9962500334000001,-4.579304695,6.461787224,
8.34,,8.348654842,8.353521144,8.361081361,,,,,0.7062921524,0.7956285476999999,-0.20860433579999998,-1.73239994,32.5617981,-41.72399902,-1.920469046,-7.4224386220000005,2.804713011,
8.37,8.374874018,8.399461717000001,,,,-1.833201289,-17.51576042,2.447259426,0.09315420687,-1.978534222,0.0282516852,,,,,,,
8.4,8.424874017999999,,8.403521143999999,8.411081361,,-5.7786664960000005,-2.643769979,-7.148258686,,,,0.7929999828000001,32.68379974,-41.6385994,-3.090467453,4.573421478,-12.45617962,
8.43,,8.450267706,8.453521144,,,,,,-2.052141428,-1.731446505,0.6360446811,2.879199982,33.28160095,-41.17499924,,,,
8.459999999999999,8.474874018,,,8.461081361,,-1.158126116,-8.95932579,-5.2378888130000005,,,,,,,-1.46256268,0.40893840789999997,-3.8458039760000005,
8.49,,8.501073019,8.503521144,8.511081361,,,,,-2.4188025,-2.250972033,0.9261971712,4.538399696,34.67239761,-39.94279861,6.148905277000001,-4.131723404,-4.551380157,
8.52,8.524874018,,,,,5.552545071,-15.06670666,0.3714857101,,,,,,,,,,
8.549999999999999,8.574874018,8.551879112,8.553521144,8.561081361,,3.6490545269999997,-8.437391281,2.044965982,-2.520661116,1.136633992,-0.3897205591,5.5265998839999995,36.49020004,-38.07619858,8.496772766,0.13408660890000001,0.6856459379000001,
8.58,,8.602685987000001,8.603521144,,,,,,-2.282583475,-0.6106945276,-1.496728539,5.795000076,38.40559769,-35.62400055,,,,
8.61,8.624874018,,,8.611081361,,-1.558026671,-7.060920715,2.954836845,,,,,,,-0.6210454702,2.601866722,4.069526672,
8.64,,8.653491977,8.653521143999999,8.661081361,,,,,-1.583926916,-1.260177851,-0.8715263009,4.85559988,40.1989975,-32.90340042,-1.036826372,1.610458374,2.84869957,
8.67,8.674874017999999,,,,,-1.03848505,-8.051848412,0.46031925079999997,,,,,,,,,,
8.7,8.724874018,8.704297237,8.703521144,8.711081361,,-0.1740778536,-9.110074043,-2.405683994,-1.399145603,-0.485165447,-0.014354910700000001,2.903599977,41.84600067,-30.08519936,-0.16905185579999998,0.4237031937,1.132761002,
8.73,,8.755103643,8.753521403999999,,,,,,-1.4895510669999998,-0.745233655,0.2754921019,0.7319999933,43.98099899,-26.63259888,,,,
8.76,8.774874018,,,8.761081361,8.768781455,-1.996212244,-10.54427242,-2.154138565,,,,,,,-0.8335760236,-0.1113977432,0.1824352741,5.0
8.79,,8.805910466,8.803521404,8.811081361,,,,,-2.060235023,0.2675510943,0.30710345510000003,-1.390799999,46.23799896,-22.36260033,1.634693027,-3.880992889,6.2151966089999995,
8.82,8.824874018,,,,,2.873480797,-12.0595274,7.7336030010000005,,,,,,,,,,
8.85,8.874874018,8.856716508,8.853521404,8.861081361,,4.6570310589999995,-15.18156242,3.763910055,0.2990097404,-0.9546015263,0.2728960216,-2.988999844,48.3973999,-17.65340042,5.935069083999999,-4.685382843,8.001664162,
8.879999999999999,,8.907521767999999,8.903521404,,,,,,1.9357749219999998,1.301715493,-0.34482327100000004,-4.306600093999999,50.00779724,-13.66399956,,,,
8.91,8.924874017999999,,,8.911081361,,2.9931221010000004,-16.62772369,2.179263115,,,,,,,3.6437795160000004,-8.332945824,5.516586304,
8.94,,8.958327914,8.953521404,8.961081361,,,,,4.119706631000001,1.3285927770000001,-0.5699204803,-5.368000031,51.15459824,-11.23619938,-0.8687412143000001,-2.626958847,-2.949933052,
8.969999999999999,8.974874018,,,,,-1.170090318,-15.3035965,-8.599205971,,,,,,,,,,
9.0,9.024874018,9.009134737,9.003521403999999,9.011081361,,-3.9664025310000004,-18.92603111,2.732304335,4.08427763,-0.07223268597999999,-0.11728267369999999,-6.087800026,51.31319809,-10.8579998,-3.1544761660000002,-9.339838027999999,-3.77786541,
9.03,,9.059940779,9.053521404,,,,,,2.731709003,2.857390881,0.2854183912,-6.0145998,50.53239822,-12.50500011,,,,
9.06,9.074874018,,,9.061081361,,-1.806880236,-9.960124016,-3.3607194419999997,,,,,,,-2.228119135,-1.899325371,-4.858017921,
9.09,,9.110745674,9.103521039,9.111081361,9.101045882000001,,,,2.9377171989999997,0.01649287529,0.01420219894,-5.075200081,48.9951973,-15.45739937,-0.1278461814,2.3841977119999997,-5.277276993,0.0
9.12,9.124874018,,,,,-0.6409773827,-5.0712885860000005,-2.264208317,,,,,,,,,,
9.15,9.174874017999999,9.16155182,9.153521039,9.161081361,,4.826921463,-2.239083767,-3.7127635480000003,2.65688014,2.635653257,0.1666085869,-3.7819998260000003,46.9090004,-19.44680023,4.072634697,5.402842522,-6.8809833529999995,
9.18,,,9.203521039,,,,,,,,,-1.8055999280000001,43.78580093,-24.46100044,,,,
9.209999999999999,9.224874018,9.212358643,,9.211081361,,-0.08315058798,-0.7929216027,-2.618645191,0.7342383862,3.155178785,-0.37750360369999997,,,,2.681347132,6.992412567000001,-7.494325637999999,
9.24,,9.263164684,9.253521038999999,9.261081361,,,,,-1.5697247980000002,2.320150614,-0.6334486008,0.9027999640000001,40.43079758,-29.9144001,1.1176552770000001,7.231428146,-6.34982872,
9.27,9.274874018,,,,,-1.8427724840000002,-1.554437399,1.79132688,,,,,,,,,,
9.299999999999999,9.324874018,9.313969945,9.303521039,9.311081361,,-16.72702599,-24.92543602,11.27438164,-1.266286373,0.3681881726,-1.127471328,3.769799948,37.61259842,-34.6114006,-5.109764576,-0.31521701809999997,12.13351059,
9.33,,,9.353521039,,,,,,,,,6.7100000379999996,35.17259979,-37.95420074,,,,
9.36,9.374874018,9.364776091,,9.361081361,,-1.019342422,-7.712067604,5.93778944,1.3139324190000001,1.1673290729999999,-0.04856235534,,,,0.4039399624,-7.741260529,7.786887169,
9.389999999999999,,9.415582914,9.403521039,9.411081361,,,,,0.6181774139,0.1456870735,-0.4924955964,9.662400246,32.8789978,-40.32099915,-2.5468106269999997,1.75797081,5.1958885189999995,
9.42,9.424874017999999,,,,,-4.249054909,-13.35015583,5.255535603,,,,,,,,,,
9.45,9.474874018,9.466389527999999,9.45352156,9.461081361,9.467711299,-2.448754787,-5.305785179,-7.026224612999999,-0.8861866593000001,-2.416817188,0.4726430774,12.26099968,31.19540024,-41.49219894,-1.2552905079999999,-1.4391307830000002,-13.77807617,5.0
9.48,,,9.50352156,,,,,,,,,13.94460011,30.28039932,-41.98019791,,,,
9.51,9.524874018,9.517194737,,9.511081361,,1.906182289,-10.5538435,-9.420243263,-2.794320822,-2.5501346590000002,0.40835139159999995,,,,0.820191443,-1.095694542,-8.55969429,
9.54,,9.56800083,9.55352156,9.561081361,,,,,-2.7190339569999997,-1.949213624,0.16828842460000001,14.85960007,30.792799,-41.28479767,5.219542503,-4.77017498,-5.003855705,
9.57,9.574874018,,,,,3.802494287,-15.3035965,1.0348957779999999,,,,,,,,,,
9.6,9.624874018,9.618807705,9.60352156,9.611081361,,3.6059837339999996,-7.702496052000001,0.9005986452,-3.331713676,0.41705596450000004,-1.040731072,14.60339928,32.47639847,-39.66220093,6.152042389,-1.120491028,0.9663891792,
9.629999999999999,,,9.65352156,,,,,,,,,13.2003994,35.09939957,-37.01480103,,,,
9.66,9.674874017999999,9.669613695,,9.661081361,,-2.877070189,-6.507879257000001,3.555734396,-2.363215446,-2.118418217,-1.639514089,,,,-1.970580101,3.806644917,3.269046068,
9.69,,,9.70352156,9.711081361,,,,,,,,10.78479958,37.49060059,-34.14780045,-3.312807322,1.994204521,3.8729882239999998,
9.719999999999999,9.724874018,9.720418955,,,,-2.546860695,-7.709674357999999,1.343569875,-1.354706526,-3.04339385,-0.2756448388,,,,,,,
9.75,9.774874018,9.771225101,9.75352156,9.761081361,,0.4651049078,-8.339285851,-2.82682085,-1.213295341,-2.097649574,0.8335011004999999,7.795799732000001,39.61339951,-30.80500031,-0.3737969697,1.10866642,-1.515250683,
9.78,,,9.80352156,,,,,,,,,4.73360014,42.32180023,-27.08399963,,,,
9.81,9.824874018,9.822031924,,9.811081361,,3.761816263,-12.83061409,2.667698145,-2.09428978,0.6988092661,0.7258392572,,,,3.253943682,-3.0549888610000004,3.594608545,
9.84,,,9.85352156,9.861081361,,,,,,,,1.976400018,45.15219879,-22.71640015,7.044881343999999,-2.930074692,7.8414926529999995,
9.87,9.874874018,9.872838018,,,,4.76949358,-14.59502125,2.310868502,-0.08017370105,-1.3406569959999999,-0.08933641016,,,,,,,
9.9,9.924874017999999,9.923643226,9.90352156,9.911081361,,0.5584250092999999,-14.0683012,4.077668667,0.872289896,0.6992673873999999,-0.4735593498,-0.4757999778,47.8117981,-18.04380035,0.9447367787000001,-6.296707153,6.8625645639999995,
9.93,,,9.95352156,,,,,,,,,-2.36680007,50.42259979,-14.27400017,,,,
9.959999999999999,9.974874018,9.97444932,,9.961081361,,-0.11904292550000001,-14.49452305,2.2055842880000003,3.9027030469999997,1.314085126,-0.5444176197,,,,1.982787848,-6.475985527000001,4.829950809,
9.99,,,10.00352156,10.01108136,,,,,,,,-3.8917999269999997,51.61819839,-12.13899994,-0.8356361389,-7.0213184360000005,-8.139081955,
10.02,10.02487402,10.02525614,,,,-1.811665893,-17.07757568,-6.959225655,4.206599712,-0.6981984377,-0.2932066917,,,,,,,
10.049999999999999,10.07487402,10.07606213,10.05352156,10.06108136,,-3.569194078,-15.15045547,-0.2653042078,2.759960651,2.346264362,0.09956810623,-5.062999725,51.54499817,-12.40740013,-4.78689146,-7.325621605,0.9390816689,
10.08,,,10.10352156,,,,,,,,,-5.111799717,50.52019882,-14.40819931,,,,
10.11,10.12487402,10.12686739,,10.11108136,,-0.413659215,-8.348856926,-2.527718067,2.653673172,1.2139061690000001,0.22998400030000002,,,,1.189707041,-0.2213878632,-5.473557472,
10.139999999999999,,,10.15352156,10.16108136,,,,,,,,-4.221199989,48.45840073,-17.73880005,1.9757902619999999,4.6004390719999995,-5.745269775,
10.17,10.17487402,10.17767354,,,,2.9261229039999996,-3.713959932,-1.62502563,2.7851581569999997,1.809329629,0.20387026670000002,,,,,,,
10.2,10.22487402,10.22848036,10.20352156,10.21108136,,2.7873392110000004,-1.482652783,-2.613859653,1.3632583619999998,2.768054247,-0.5925218463,-2.83039999,45.75,-22.10639954,5.386651992999999,6.2834892270000005,-8.176581383,
10.23,,,10.25352156,,,,,,,,,-0.8905999659999999,42.45599747,-27.21819878,,,,
10.26,10.27487402,10.2792864,,10.26108136,,-0.5404788256,-0.5560321807999999,-2.9488549230000003,-0.8724426031,2.770803213,-1.064095974,,,,1.32802844,7.63458252,-7.93157959,
10.29,,,10.30352156,10.31108136,,,,,,,,1.683599949,39.35720062,-32.20800018,0.18526649480000001,5.926576614,-0.7068979740000001,
10.32,10.32487402,10.33009156,,,,-2.886641502,-6.0266227720000005,15.16002655,-1.767181158,0.47814068200000004,-1.521620512,,,,,,,
10.35,10.37487402,,10.35352156,10.36108136,,-4.402195454,-25.91426849,12.80907917,,,,4.294399738,37.17340088,-36.9416008,-13.48049068,-22.77591324,10.38789845,
10.379999999999999,,10.38089765,10.40352156,,,,,,1.045617819,1.538266063,0.26144263149999997,7.014999866,34.81879807,-39.90620041,,,,
10.41,10.42487402,10.43170448,,10.41108136,,-1.438385487,-0.7833502889,8.403892517000001,0.49112120270000004,0.4460712075,-0.6615476012,,,,0.6060523986999999,6.2861924170000005,0.6140885353,
10.44,,,10.45352156,10.46108136,,,,,,,,9.869799614,32.8789978,-41.6629982,-4.190393925,-6.866785049,-9.882935524,
10.469999999999999,10.47487402,10.48251047,,,,-6.602396011000001,-15.74656773,-7.457231997999999,-0.8874083757,-2.583578587,0.4561502039,,,,,,,
10.5,10.52487402,,10.50352156,10.51108136,,-1.127019525,-7.647460937999999,-3.777369738,,,,11.95599937,31.6711998,-42.57799911,-1.6824672219999999,2.072808266,-8.466299057,
10.53,,10.53331573,10.55352156,,,,,,-2.105132341,-2.223636627,0.7029324770000001,13.27359962,31.50039864,-42.12659836,,,,
10.559999999999999,10.57487402,10.58412182,,10.56108136,,5.092823982,-12.54078388,-5.603990555,-2.590450525,-2.1805720330000002,0.3695625961,,,,6.89467907,-1.5224123,-10.14101696,
10.59,,,10.60352156,10.61108136,,,,,,,,13.5053997,32.59840012,-40.97979736,6.177684307000001,-3.3198843,0.6573152542,
10.62,10.62487402,10.63492859,,,,5.583651542999999,-10.92233849,2.255833626,-3.13410449,0.9576557875,-0.8915315866,,,,,,,
10.65,10.67487402,,10.65352156,10.66108136,,-2.750250578,-6.414260387000001,2.952444077,,,,12.73680019,34.89199829,-38.60079956,1.577793121,2.936589718,2.1668820380000002,
10.68,,10.68573458,10.70352156,,,,,,-2.173699856,-1.7005987169999999,-1.580719948,10.84579945,37.42959976,-35.84359741,,,,
10.709999999999999,10.72487402,10.73653984,,10.71108136,,-3.763012648,-7.618747234,2.761018276,-1.405101418,-2.814020634,-0.2927485406,,,,-4.188343048,1.891981125,3.069484234,
10.74,,,10.75352156,10.76108136,,,,,,,,8.796199799,39.44260025,-32.90340042,-2.093756199,1.0102863309999999,0.04731285572,
10.77,10.77487402,10.78734588,,,,-0.2509472668,-9.232108116000001,-3.4875390530000003,-1.158319116,-3.0545418260000003,0.7094991206999999,,,,,,,
10.799999999999999,10.82487402,,10.80352156,10.81108136,,2.7035903930000003,-9.627223015,-0.04486542568,,,,6.026799679,41.85820007,-29.69479942,1.730166316,0.5784816742000001,-0.826821804,
10.83,,10.8381527,10.85352156,,,,,,-2.302436113,0.7272136806999999,0.8029587269,3.2451999189999996,44.51779938,-25.79080009,,,,
10.86,10.87487402,10.88895864,,10.86108136,,5.372784137999999,-11.67428303,4.7024946210000005,-0.8092198968000001,-0.8246437906999999,0.001985253533,,,,5.87179327,-3.010498047,8.790281296,
10.889999999999999,,,10.90352156,10.91108136,,,,,,,,0.9882000089,47.11639786,-21.1303997,1.195603132,-7.685726166,5.431941986,
10.92,10.92487402,10.93976385,,,,-0.7271189690000001,-16.60858154,4.439284325,0.7029324770000001,0.36192700270000006,-0.2605263591,,,,,,,
10.95,10.97487402,,10.95352156,10.96108136,,3.902992725,-15.29641819,4.2690944669999995,,,,-0.6832000017000001,49.65399933,-17.15320015,1.8022561069999998,-3.5224781039999997,8.02600956,
10.98,,10.99056994,11.00352156,,,,,,3.626142025,0.7560762167,-0.2883199155,-2.13499999,51.17900085,-13.99339962,,,,
11.01,11.02487402,,,11.01108136,,1.479960799,-17.14726639,-7.045367241,,,,,,,3.301035643,-6.1624403,-0.5423196554,
11.04,,11.04137672,11.05352156,11.06108136,,,,,4.2046141619999995,0.1517955512,-0.5926745534000001,-3.269599915,51.58160019,-13.32240009,-3.3220999239999998,-6.911737442000001,-6.9113283160000005,
11.07,11.07487402,11.09218265,,,,-4.943272591,-16.77607918,0.1800599098,2.675969124,2.087723255,-0.30404922370000004,,,,,,,
11.1,11.12487402,,11.10352156,11.11108136,,-2.25703001,-9.943374634,-1.0767701859999999,,,,-3.818599939,51.0447998,-14.39599991,-4.600605011,-3.6103525160000003,-3.942820549,
11.129999999999999,,11.14298786,11.15352156,,,,,,2.6997921469999997,1.3629529480000002,0.2093679011,-3.171999931,49.62960052,-16.89699936,,,,
11.16,11.17487402,,,11.16108136,,0.08913264424,-5.011467934,-2.1972093580000003,,,,,,,-0.7782170773,2.534851074,-5.745488167,
11.19,,11.1937939,11.20352156,11.21108136,,,,,2.9227514269999997,1.618287086,0.17729841170000002,-2.098399878,47.48239899,-20.37400055,4.905043125,4.823056221,-7.303091049,
11.219999999999999,11.22487402,11.24460073,,,,5.643472195,-2.883052111,-3.0113673210000003,1.556591511,2.9529883860000004,-0.4037700295,,,,,,,
11.25,11.27487402,,11.25352156,11.26108136,,0.3909274042,-0.6804589629000001,-2.927319288,,,,-0.329400003,44.48119736,-24.97340012,3.298658371,6.270487309,-6.9337382320000005,
11.28,,11.29540672,11.30352156,,,,,,-0.5335750579999999,3.164494276,-0.838998735,2.037400007,41.22380066,-30.01199913,,,,
11.309999999999999,11.32487402,,,11.31108136,,-1.378564954,-1.010967612,1.80807662,,,,,,,1.254892111,7.862140179,-6.352367401,
11.34,,11.34621182,11.35352156,11.36108136,,,,,-1.851783514,0.4427115619,-1.517802715,4.513999939,38.50320053,-34.28199768,-9.043416022999999,-7.332593918,15.16636753,
11.37,11.37487402,11.39701786,,,,-13.39442253,-29.44787025,12.81386471,0.9683456421,1.514748454,0.13621893529999998,,,,,,,
11.4,11.42487402,,11.40352156,11.41108136,,-1.275374413,-4.142275333,4.8388857839999995,,,,7.088200092,36.12419891,-37.80780029,1.7630246880000002,-4.582555771,6.219126701,
11.43,,11.44782463,11.45352156,,,,,,0.7366818190000001,0.6529957056,-0.6187883019,9.845399857,33.97700119,-39.88179779,,,,
11.459999999999999,11.47487402,,,11.46108136,,-5.508277893,-16.71865273,-3.375076294,,,,,,,-2.972663641,-1.522062302,-2.397587299,
11.49,,11.49863057,11.50352156,11.51108136,,,,,-0.5783196688000001,-2.398186445,0.4254551232,12.39519978,32.34220123,-41.12619781,-3.29992485,-0.05417633057,-12.63088894,
11.52,11.52487402,11.54943578,,,,-2.800499916,-5.542973517999999,-5.062913418,-2.449802876,-2.6755108830000003,0.5285356045,,,,,,,
11.549999999999999,11.57487402,,11.55352156,11.56108136,,4.65463829,-10.773983,-7.600800991,,,,14.26179981,32.65940094,-41.72399902,2.599737644,0.6623926163,-10.80955601,
11.58,,11.60024177,11.60352156,,,,,,-2.502946615,-2.926874638,0.5276193023,14.94499969,33.1352005,-41.06520081,,,,
11.61,11.62487402,,,11.61108136,,4.721637249,-14.45623779,3.048156977,,,,,,,4.242593765,-5.986138344,-0.4528880119,
11.639999999999999,,11.65104854,11.65352156,11.66108136,,,,,-3.43784833,1.112658262,-0.7166765331999999,14.48139954,34.94079971,-39.10099792,5.736718177999999,1.617865562,-0.18234956260000001,
11.67,11.67487402,,,,,1.750648856,-5.928517342,2.847159863,,,,,,,,,,
11.7,11.72487402,11.70185442,11.70352156,11.71108136,,-2.506182671,-7.594819069,2.653042078,-2.184542418,-1.9797559980000001,-1.5187189580000002,13.04179955,37.44179916,-36.46579742,-2.341973305,2.753339767,4.183546543,
11.73,,11.75265963,11.75352156,,,,,,-1.307976723,-2.984447002,-0.4262186885,10.60179996,39.5890007,-33.19619751,,,,
11.76,11.77487402,,,11.76108136,,-1.950748682,-8.027919769,-2.788535595,,,,,,,-2.558855534,1.489057541,1.014350653,
11.79,,11.80346562,11.80352156,11.81108136,,,,,-1.407544851,-2.958944082,0.6103891134,7.844599724,41.82159805,-30.12179947,-0.03915010393,1.47359848,-0.6410515308,
11.82,11.82487402,,,,,1.149751306,-8.063812256,1.0731809140000002,,,,,,,,,,
11.85,11.87487402,11.85427239,11.85352156,11.86108136,,6.483652115,-12.00209904,4.309772491,-2.153847456,0.7809682487999999,0.8460234404000001,4.8677997589999995,44.39579773,-26.41300011,4.463178158,-2.793526649,5.686648368999999,
11.879999999999999,,11.90507828,11.90352156,,,,,,-0.2921377122,-1.276212692,0.036650836469999996,2.244799852,47.07979965,-21.9843998,,,,
11.91,11.92487402,,,11.91108136,,2.353939295,-16.00768471,1.400997639,,,,,,,5.18513298,-4.739999771,5.5152630810000005,
11.94,,11.95588344,11.95352156,11.96108136,,,,,0.5900784731000001,0.7962393761,-0.5358657836999999,0.43919998409999994,49.33679962,-17.38500023,0.8325064778,-6.04172802,10.02622986,
11.969999999999999,11.97487402,,,,,0.4507479668,-15.21745491,5.523830891,,,,,,,,,,
12.0,12.02487402,12.00668942,12.00352156,12.01108136,,-1.517348647,-16.57268906,-5.932106495,4.005020142,0.8617527484999999,-0.3286358118,-1.293200016,51.05699921,-13.94460011,0.5876972079,-6.571986197999999,2.1780688759999998,
12.03,,12.05749614,12.05352156,,,,,,3.877352953,-0.6120689511,-0.2983988822,-2.647399902,51.86219788,-12.55379963,,,,
12.059999999999999,12.07487402,,,12.06108136,,-4.490729808999999,-16.7042942,-2.395813704,,,,,,,-2.84800005,-7.1726675029999996,-7.75130415,
12.09,,12.10830203,12.10352156,12.11108136,,,,,2.8477699760000004,2.540819168,0.06306997687,-3.635599852,51.60599899,-13.23699951,-3.6576936239999998,-6.3948240279999995,-2.8451697830000002,
12.12,12.12487402,,,,,-3.1118657589999996,-12.84975624,-1.21555388,,,,,,,,,,
12.15,12.17487402,12.15910718,12.15352156,12.16108136,,0.012562318710000001,-6.225227356,-2.7550361160000003,2.616869688,0.027793550860000002,0.26862007379999997,-3.330600023,50.34939957,-15.29879951,-0.2340075672,1.501515388,-6.801186562000001,
12.18,,12.20991317,12.20352156,,,,,,2.792793751,2.406738281,0.16676130890000002,-2.4644000530000003,48.43399811,-18.54399872,,,,
12.209999999999999,12.22487402,,,12.21108136,,4.946861744,-3.668496132,-3.087937593,,,,,,,4.326765537,4.2387394910000005,-7.484638213999999,
12.24,,12.26071989,12.25352156,12.26108136,,,,,1.367686987,2.883962631,-0.43538138270000004,-0.8661999702,45.62799835,-22.99699974,3.8092064860000003,7.586752892000001,-7.093274117000001,
12.27,12.27487402,,,,,1.472782373,-0.09391828626,-2.1732811930000002,,,,,,,,,,
12.299999999999999,12.32487402,12.31152578,12.30352156,12.31108136,,-1.2993026970000001,-0.9678967595,-1.785344839,-0.7791357040000001,2.859681368,-0.8150229454000001,1.2200000290000002,42.49259949,-28.01119995,1.267632365,7.693189144,-7.98482132,
12.33,,,12.35352156,,,,,,,,,3.58679986,39.57679749,-32.80579758,,,,
12.36,12.37487402,12.36233094,,12.36108136,,-4.066901207,-9.390333176,17.10150337,-1.773747683,1.0280559059999999,-1.8730103969999998,,,,-0.2345402241,3.364797592,4.8634958269999995,
12.389999999999999,,12.41313687,12.40352156,12.41108136,,,,,0.4564556181,0.7020162343999999,-0.1699682474,6.002399921,37.39299774,-36.49020004,-8.707229614,-21.77350998,11.35212231,
12.42,12.42487402,,,,,-2.788535595,-20.3048954,12.31346512,,,,,,,,,,
12.45,12.47487402,12.46394359,12.45352156,12.46108136,,-6.707680225,-7.18534708,9.031110764,1.344474792,1.088377118,-0.4763081372,8.539999962000001,35.39220047,-38.96680069,-2.623478413,4.216581345,-1.859954834,
12.48,,,12.50352156,,,,,,,,,11.24839973,33.63539886,-40.40639877,,,,
12.51,12.52487402,12.51474953,,12.51108136,,-1.648953915,-8.315358162,-14.40479279,0.31504446269999997,-0.5775560737,0.491579324,,,,0.3462456465,-5.358799933999999,-14.99236298,
12.54,,12.56555458,12.55352156,12.56108136,,,,,-2.326869965,-2.818601847,0.391705811,13.22480011,32.23239899,-41.28479767,-1.4586039780000002,4.0078368189999996,-9.216449738,
12.57,12.57487402,,,,,-2.470290184,-9.706186295,-1.6609179969999999,,,,,,,,,,
12.6,12.62487402,12.61636052,12.60352156,12.61108136,,2.593221426,-14.01326656,-1.8406788109999999,-2.999259949,-3.75762701,0.45431765909999994,14.50579929,32.18359756,-41.16279984,4.857488632,-4.634655952,-12.16466331,
12.629999999999999,,,12.65352156,,,,,,,,,14.43260002,33.63539886,-39.83300018,,,,
12.66,12.67487402,12.66716724,,12.66108136,,6.526722907999999,-11.0997057,1.183250785,-2.936495543,0.37964156270000005,0.1107160673,,,,6.318205357,-3.747635841,0.5260448456,
12.69,,12.71797307,12.70352156,12.71108136,,,,,-2.568612814,-1.232384324,-1.556896925,13.55420017,35.7826004,-37.69799805,2.42666316,3.30183506,-0.007242798805,
12.719999999999999,12.72487402,,,,,-0.38015970590000003,-5.928517342,1.6764713530000002,,,,,,,,,,
12.75,12.77487402,12.76877823,12.75352156,12.76108136,,-3.198007345,-7.3480591770000006,0.8575277925,-1.600267053,-3.214736462,-1.0034693479999999,11.90719986,38.05179977,-34.66019821,-2.4016568659999997,3.037560463,2.697830915,
12.78,,,12.80352156,,,,,,,,,9.418399811,40.06480026,-31.9762001,,,,
12.809999999999999,12.82487402,12.81958416,,12.81108136,,-2.879462957,-9.179466247999999,-0.7944171429000001,-1.170841455,-2.663752079,0.4262186885,,,,-3.725658894,0.2586784363,0.5141602159,
12.84,,,12.85352156,12.86108136,,,,,,,,6.587999821,42.34619904,-28.71879959,2.7787904739999996,1.994693756,2.031856298,
12.87,12.87487402,12.87039083,,,,4.365106583,-8.49721241,0.3212364316,-1.4096827509999998,-0.5184566379,0.9994988441,,,,,,,
12.9,12.92487402,12.92119666,12.90352156,12.91108136,,4.858027935,-11.53789139,3.230310678,-1.336075664,-0.5836645364999999,0.576487124,3.769799948,45.00579834,-24.87579918,5.604186535,-2.8277034760000004,4.116363048999999,
12.93,,,12.95352156,,,,,,,,,1.281000018,48.22660065,-20.80099869,,,,
12.959999999999999,12.97487402,12.97200177,,12.96108136,,3.172583818,-15.00688648,1.202393413,-0.19852535429999998,0.1443126649,-0.1818797737,,,,5.350957394,-5.500237465,4.711673737,
12.99,,,13.00352156,13.01108136,,,,,,,,-0.8051999806999999,50.4469986,-16.50659943,1.022883177,-4.90742588,6.978731155,
13.02,13.02487402,13.0228077,,,,-0.3131606579,-12.43310642,3.1821551319999997,1.3154596090000001,0.1705790907,-0.4815003574,,,,,,,
13.049999999999999,13.07487402,13.07361437,13.05352156,13.06108136,,-3.1190443039999995,-14.93031597,1.3459627630000002,3.907131672,1.597823739,-0.5037962793999999,-2.31799984,51.87439728,-13.28579998,-0.46704107520000004,-4.511958122,3.784881592,
13.08,,,13.10352156,,,,,,,,,-3.69659996,52.55759811,-12.09019947,,,,
13.11,13.12487402,13.12442021,,13.11108136,,-3.58355093,-17.0799675,-4.682454586,3.942560911,-1.282473803,-0.26266431809999996,,,,-2.073399544,-7.638871193,-7.606288433,
13.139999999999999,,,13.15352156,13.16108136,,,,,,,,-4.355400085,52.13059998,-12.94419956,-3.9834361080000003,-7.656874657,-0.9305180311,
13.17,13.17487402,13.17522531,,,,-2.936890602,-14.98774338,-1.225125194,2.7098710539999997,2.126664639,0.26785650850000003,,,,,,,
13.2,13.22487402,13.22603125,13.20352156,13.21108136,,0.2542374134,-7.206882477000001,-1.574776411,2.568612814,0.6317687631000001,0.1229330078,-3.940599918,50.98379898,-15.21339989,2.830404043,0.504907608,-4.701718807,
13.229999999999999,,,13.25352156,,,,,,,,,-2.927999973,49.05619812,-18.71479988,,,,
13.26,13.27487402,13.27683786,,13.26108136,,3.9077785019999998,-4.28614378,-2.156531334,2.7063586710000003,2.4504137040000002,0.05848862602999999,,,,4.077425957,4.504359245,-4.173005581,
13.29,,,13.30352156,13.31108136,,,,,,,,-1.6957999469999998,46.40879822,-23.20439911,4.583046436,6.66048336,-7.424749374,
13.32,13.32487402,13.3276437,,,,1.051645517,-1.006181955,-1.711167336,1.0647068020000001,3.019876242,-0.8119687438,,,,,,,
13.35,13.37487402,13.3784488,13.35352156,13.36108136,,-0.466301322,-1.50418818,-2.664108992,-1.11174202,2.6860480310000003,-1.1795459990000001,0.5245999694,43.23679733,-28.34059906,1.4574221369999998,7.574375152999999,-8.013563156,
13.379999999999999,,,13.40352156,,,,,,,,,2.915799856,40.33319855,-33.25719833,,,,
13.41,13.42487402,13.42925468,,13.41108136,,-1.993819475,-5.85882616,7.510771275,-1.7977235319999998,0.685217917,-1.7235054969999999,,,,0.1130870581,4.863127708,-1.490761042,
13.44,,,13.45352156,13.46108136,,,,,,,,5.270400047,38.10059738,-37.12459946,-13.09386158,-22.34162521,9.019812584,
13.469999999999999,13.47487402,13.48006135,,,,-4.462016106,-28.09771919,13.59422398,0.9437590241,1.541167617,-0.0035123717969999997,,,,,,,
13.5,13.52487402,,13.50352156,13.51108136,,-3.801297903,-3.579662561,5.135894775,,,,7.8079996110000005,36.06319809,-39.77199936,0.08050203322999999,2.539507866,1.5888590809999998,
13.53,,13.53086713,13.55352156,,,,,,1.018893242,0.9790354371,-0.7221741676000001,10.12599945,34.17219925,-41.19939804,,,,
13.559999999999999,13.57487402,13.58167224,,13.56108136,,-2.7789642810000004,-15.44028664,-10.05464077,-0.3252761662,-1.960819721,0.4033119082,,,,-1.6838845009999999,-5.940151215,0.5783958435000001,
13.59,,,13.60352156,13.61108136,,,,,,,,12.26099968,33.02539825,-42.05339813,-2.5531244280000003,2.9928450580000003,-13.25440788,
13.62,13.62487402,13.63247812,,,,-4.105186462,-6.067300797000001,-3.30089879,-1.867054701,-1.801541328,0.35261157159999995,,,,,,,
13.65,13.67487402,,13.65352156,13.66108136,,3.577269793,-11.23131084,-7.2607212070000005,,,,13.44439983,32.93999863,-41.9435997,2.042459726,-0.7838363647,-12.40275764,
13.68,,13.68328474,13.70352156,,,,,,-2.590450525,-3.617131948,0.7728744745,13.71280003,34.0135994,-40.80899811,,,,
13.709999999999999,13.72487402,13.73409052,,13.71108136,,5.56929493,-13.68754387,2.056930065,-2.652451515,0.6965186,0.036803547289999995,,,,4.262611389,-5.629338263999999,1.730366945,
13.74,,,13.75352156,13.76108136,,,,,,,,13.00519943,36.01440048,-38.88140106,5.4322438239999995,1.3980865480000002,-0.9388702512,
13.77,13.77487402,13.78489562,,,,1.266999602,-6.562914371000001,2.0688943859999998,-2.5702924730000003,-1.202911019,-1.570641041,,,,,,,
13.799999999999999,13.82487402,,13.80352156,13.81108136,,-3.0089745519999997,-7.166204929,3.2853455539999996,,,,11.46799946,38.23479843,-36.46579742,-2.577636242,3.265769958,3.924826145,
13.83,,13.83570151,13.85352156,,,,,,-1.295454383,-2.3603138919999997,-0.6778877378,9.308599472000001,40.16239929,-33.95259857,,,,
13.86,13.87487402,13.88650812,,13.86108136,,-0.8279166222,-8.647959709,-1.2900304790000001,-1.0066763159999998,-2.560824394,0.4845545888,,,,-2.273356915,0.9285745620999999,1.360710144,
13.889999999999999,,,13.90352156,13.91108136,,,,,,,,6.7100000379999996,42.29739761,-31.00020027,0.4340063035,0.7084684372,-1.429363966,
13.92,13.92487402,13.9373139,,,,1.0612168309999999,-8.995218277000001,-1.0743774179999999,-1.9634158609999999,-0.5725166202,0.896876514,,,,,,,
13.95,13.97487402,,13.95352156,13.96108136,,3.7642090319999997,-11.52832031,4.707280159,,,,4.013800144,45.18880081,-27.37679863,3.077508926,-1.32897377,4.554174423,
13.979999999999999,,13.98811896,14.00352156,,,,,,-1.42067802,-0.29626092309999996,0.6163448691,1.6347999569999998,47.78739929,-23.04579926,,,,
14.01,14.02487402,14.03892484,,14.01108136,,3.0433712010000002,-14.68355656,1.827219248,0.027793550860000002,-0.23303823170000001,-0.1531699449,,,,5.020265102,-3.034721375,5.303239346,
14.04,,,14.05352156,14.06108136,,,,,,,,-0.219599992,49.97119904,-18.81239891,4.386652946,-7.358733177,6.668063163999999,
14.07,14.07487402,14.08973146,,,,4.324428558,-14.57109356,3.675375462,1.904163599,0.516471386,-0.8435800672,,,,,,,
14.1,14.12487402,,14.10352156,14.11108136,,-2.4942185880000003,-14.48016644,3.4552359580000003,,,,-1.707999945,51.55719757,-15.34759998,1.455178738,-6.257205963,4.741339684,
14.129999999999999,,14.14053724,14.15352156,,,,,,4.216067791,1.368908763,-0.6227588058,-3.074399948,52.31359863,-13.56639957,,,,
14.16,14.17487402,,,14.16108136,,-2.936890602,-16.34028625,-6.387042046,,,,,,,-2.877753735,-7.32356739,-8.490110397,
14.19,,14.19134224,14.20352156,14.21108136,,,,,3.532377005,-0.03649812192,-0.04856235534,-3.977200031,52.14279938,-14.04220009,-4.236004353,-6.18986702,0.9610674381000001,
14.219999999999999,14.22487402,14.24214812,,,,-2.822035313,-14.67877007,-0.451944381,2.7146053310000005,2.01350522,0.4381301999,,,,,,,
14.25,14.27487402,,14.25352156,14.26108136,,-0.102293171,-8.116454124,-2.7622146610000002,,,,-3.7087998389999997,51.05699921,-16.03079987,1.108174205,-0.3087673187,-6.193911552,
14.28,,14.29295474,14.30352156,,,,,,2.7715666289999996,0.30710345510000003,-0.05467082932999999,-2.842599869,49.2757988,-19.04419899,,,,
14.309999999999999,14.32487402,,,14.31108136,,2.6724836830000003,-4.264608383000001,-2.467897415,,,,,,,2.142095566,3.836355686,-4.543612003,
14.34,,14.34376047,14.35352156,14.36108136,,,,,2.560977221,2.7362902160000004,-0.033443886789999995,-1.56159997,46.6527977,-23.24099922,4.751326561,5.454053879,-7.238223552999999,
14.37,14.37487402,14.39456552,,,,2.198405743,-2.363510609,-1.7374883890000001,0.6975875497,2.875868797,-0.7273663878,,,,,,,
14.399999999999999,14.42487402,,14.40352156,14.41108136,,-1.2370892759999998,-0.9320043921,-2.388635159,,,,0.329400003,43.28559875,-28.30399895,0.5786372423,6.9425873760000005,-7.534371853,
14.43,,14.44537135,14.45352156,,,,,,-1.462368369,1.976854444,-1.2297883029999999,2.757200003,40.06480026,-33.30599976,,,,
14.459999999999999,14.47487402,,,14.46108136,,-1.040877819,-3.730709553,8.791529655,,,,,,,0.5866106153,6.076099396,-0.9222931862,
14.49,,14.49617796,14.50352156,14.51108136,,,,,-1.092194915,-0.04672981426,-1.25865078,5.124000072,37.49060059,-37.49060059,-10.16292286,-17.74888611,11.61802101,
14.52,14.52487402,14.54698369,,,,-6.111567974,-26.60848618,13.47697544,0.8139539956999999,1.8649166819999998,-0.1441599578,,,,,,,
14.549999999999999,14.57487402,,14.55352156,14.56108136,,-2.920140982,-4.637888432,5.95214653,,,,7.088200092,35.23360062,-40.7845993,0.1644603014,2.046567917,1.9350867269999998,
14.58,,14.59778874,14.60352156,,,,,,0.38162681460000003,-0.1902789176,-0.3248180151,9.735599517999999,33.33039856,-42.44379807,,,,
14.61,14.62487402,,,14.61108136,,-5.797809124,-17.18794441,-8.584849358,,,,,,,-3.625166178,-8.877212523999999,-6.0291728970000005,
14.639999999999999,,14.64859458,14.65352156,14.66108136,,,,,-0.6714738606999999,-2.506764412,0.3216110766,11.60219955,32.09819794,-43.38319778,-2.57701683,4.514377594,-12.05853844,
14.67,14.67487402,14.69940114,,,,-2.623430967,-5.370690346,-1.622632861,-3.0519456860000003,-3.140518427,0.6013791561,,,,,,,
14.7,14.72487402,,14.70352156,14.71108136,,3.1390841010000003,-12.80189991,-4.160520554,,,,12.62699986,31.79319954,-43.50519943,2.38499999,-1.3720664980000001,-13.10449028,
14.729999999999999,,14.75020692,14.75352156,,,,,,-2.338170528,-1.767333865,0.8967237473,12.54160023,33.07419968,-42.26079941,,,,
14.76,14.77487402,,,14.76108136,,7.491628647000001,-12.45942783,0.936490953,,,,,,,6.34820509,-5.476898192999999,0.275080204,
14.79,,14.80101192,14.80352156,14.81108136,,,,,-3.0936360360000004,0.6015318632,-0.8290724158,11.63879967,35.35559845,-40.11359787,3.570833921,2.168030262,1.229923248,
14.82,14.82487402,,,,,0.5009972453,-6.007480145,3.263810158,,,,,,,,,,
14.85,14.87487402,14.85181776,14.85352156,14.86108136,,-2.426920414,-8.0757761,1.786541224,-1.86659646,-1.765501261,-1.342795014,9.65019989,38.00299835,-37.28319931,-2.65120101,2.633413315,2.33349061,
14.879999999999999,,14.90262432,14.90352156,,,,,,-1.21589148,-2.919086456,-0.25579229,7.307799816,40.24779892,-34.45280075,,,,
14.91,14.92487402,,,14.91108136,,-1.859522343,-8.537890434,-1.4479568,,,,,,,-2.640149355,0.8877820969,0.2343642712,
14.94,,14.95343005,14.95352156,14.96108136,,,,,-1.420067191,-2.135063887,0.7568397522,4.4651999469999994,42.74879837,-30.85379982,-0.268098563,1.312358856,0.11775004859999999,
14.969999999999999,14.97487402,,,,,0.9005986452,-8.157431602,1.200000525,,,,,,,,,,
15.0,15.02487402,15.00423505,15.00352156,15.01108136,,6.524330139,-11.26241779,3.6059837339999996,-1.91347909,0.2786990702,0.9440644383,1.622599959,45.42060089,-26.96199989,4.546873569,-1.770173073,4.97940588,
15.03,,15.05504088,15.05352156,,,,,,-0.5099047422,-0.8800781965000001,0.1919587553,-0.6953999996,48.0802002,-22.32600021,,,,
15.059999999999999,15.07487402,,,15.06108136,,2.511865616,-15.68435383,1.290927768,,,,,,,5.751270293999999,-4.820903778,4.860414982,
15.09,,15.10584744,15.10352156,15.11108136,,,,,0.5413633585000001,0.6641436815,-0.5228852629999999,-2.586400032,50.42259979,-17.83639908,1.3958432669999998,-6.645755768,8.941303253,
15.12,15.12487402,,,,,0.965503931,-14.80080414,4.922933578,,,,,,,,,,
15.149999999999999,15.17487402,15.15665317,15.15352156,15.16108136,,-1.60827589,-14.17837143,-1.335494161,3.577732325,0.7171346545,-0.7169819474,-3.903999805,52.32579803,-14.62779999,1.256720662,-5.243180275,1.77829659,
15.18,,15.20745817,15.20352156,,,,,,3.824056625,-0.1540862173,-0.4242334068,-5.245999813,53.02119827,-13.28579998,,,,
15.209999999999999,15.22487402,,,15.21108136,,-4.404588223,-16.21825218,-3.691227913,,,,,,,-3.2066507339999997,-6.776428223,-7.509731293,
15.24,,15.25826395,15.25352156,15.26108136,,,,,2.8453264239999996,2.1428520680000003,0.1618745178,-5.9414000510000005,52.69179916,-13.87139988,-4.189187527,-5.190634727,-1.839380026,
15.27,15.27487402,,,,,-2.932105064,-12.38046455,-1.244267821,,,,,,,,,,
15.299999999999999,15.32487402,15.30907052,15.30352156,15.31108136,,-0.8135597109999999,-7.161418915,-2.833999395,2.5203557009999997,0.3668137789,0.2580829561,-5.685199738,51.65480042,-15.78679943,-0.37616389990000004,0.3765945435,-5.578992844,
15.33,,15.35987624,15.35352156,,,,,,2.739802599,1.3424896,0.1516428292,-4.818999767,50.04439926,-18.92219925,,,,
15.36,15.37487402,,,15.36108136,,4.013062477,-3.874279022,-2.463111877,,,,,,,3.34770751,4.181611061,-5.803160191,
15.389999999999999,,15.41068119,15.40352156,15.41108136,,,,,1.3838744159999998,2.627101421,-0.5378510356,-3.635599852,47.45800018,-23.24099922,4.025044918,5.96319294,-6.748121262000001,
15.42,15.42487402,,,,,1.3794622419999998,-1.741077542,-1.565205097,,,,,,,,,,
15.45,15.47487402,15.46148703,15.45352156,15.46108136,,-0.04486542568,-1.748256087,-1.92203474,-0.6125270724,2.9363427160000004,-0.9176452756,-1.939799905,44.40800095,-28.36499977,1.6862163540000001,7.105713843999999,-7.517160416,
15.479999999999999,,,15.50352156,,,,,,,,,0.23179998989999998,41.68740082,-33.18399811,,,,
15.51,15.52487402,15.51229359,,15.51108136,,-3.741477251,-8.585746765,12.30389404,-2.063136578,0.7873821259,-1.7022786140000001,,,,-0.49043917659999997,3.9248418810000003,3.205280304,
15.54,,15.56309927,15.55352156,15.56108136,,,,,0.6322268844,1.413500547,-0.0392469354,2.061800003,39.49139786,-36.85620117,-6.845452785,-20.99777985,10.88676262,
15.57,15.57487402,,,,,-0.2700898647,-18.41366768,11.69103241,,,,,,,,,,
15.6,15.62487402,15.61390427,15.60352156,15.61108136,,-3.85394001,-7.123134136,5.724828242999999,1.197107911,1.425106645,-0.6604785919,4.50180006,37.47840118,-39.46699905,-1.087538719,4.76584816,0.03825998306,
15.629999999999999,,,15.65352156,,,,,,,,,6.978399754,35.7947998,-41.15060043,,,,
15.66,15.67487402,15.66471005,,15.66108136,,-4.572085857,-11.41795158,-7.720442295,-0.05879404767999999,-1.8171179290000001,0.38590276240000004,,,,-4.978722572,-8.380472183,-12.2147007,
15.69,,15.71551656,15.70352156,15.71108136,,,,,-1.853615999,-2.033510447,0.5844281316,8.674200058,34.64799881,-42.11439896,-2.321385145,3.0440812110000004,-7.829944611,
15.719999999999999,15.72487402,,,,,-1.170090318,-8.118846892999999,-3.2386853689999997,,,,,,,,,,
15.75,15.77487402,15.76632229,15.75352156,15.76108136,,3.553341627,-14.55195045,-1.730309844,-2.596100807,-3.737163544,0.6916317940000001,9.698999405,34.52600098,-42.00460052,5.349322796,-3.128873825,-10.48651886,
15.78,,,15.80352156,,,,,,,,,9.686800003,35.70940018,-40.7723999,,,,
15.809999999999999,15.82487402,15.81712724,,15.81108136,,5.8564333920000005,-10.90558815,0.8718847632,-3.099438906,0.5456393361,-0.2341072112,,,,6.378905296,-3.348790169,-0.6465156078000001,
15.84,,15.86793302,15.85352156,15.86108136,,,,,-2.371309042,-1.5570496319999998,-1.468629479,8.68639946,37.88100052,-38.46659851,-0.06622350216,3.281117439,2.9055840969999998,
15.87,15.87487402,,,,,-1.814058661,-6.75912571,3.1582267280000003,,,,,,,,,,
15.899999999999999,15.92487402,15.91873958,15.90352156,15.91108136,,-2.395813704,-8.116454124,2.193620205,-1.234522343,-2.622825384,-0.6908682584999999,6.6977996829999995,40.07699966,-35.73379898,-2.661630869,1.699001789,3.1347017289999997,
15.93,,,15.95352156,,,,,,,,,4.306600093999999,41.88259888,-32.8302002,,,,
15.959999999999999,15.97487402,15.96954526,,15.96108136,,-1.253839016,-7.877171992999999,-4.519443989,-1.052184463,-3.4332671169999998,0.4318690002,,,,-2.02666831,1.5887308119999999,-2.287440777,
15.99,,,16.00352156,16.01108136,,,,,,,,1.4029999969999998,44.07859802,-29.41419983,1.141146421,2.3400797840000003,3.360548019,
16.02,16.02487402,16.0203502,,,,2.52143693,-8.183753014,1.7243278030000002,-2.025874853,-0.2922904193,1.0367605690000001,,,,,,,
16.05,16.07487402,16.07115598,16.05352156,16.06108136,,6.90030241,-12.38764286,2.3994028569999997,-1.323858738,-0.3843756318,0.8376243114,-1.451799989,46.61619949,-25.16860008,6.223586082000001,-3.8385400769999998,5.744196892000001,
16.08,,,16.10352156,,,,,,,,,-3.794199944,49.22699738,-20.37400055,,,,
16.11,16.12487402,16.1219625,,16.11108136,,1.219143152,-14.67877007,1.5376876590000002,-0.47569730880000005,-0.35306972270000003,-0.589925766,,,,4.155054092,-5.544675827000001,3.394015312,
16.14,,,16.15352156,16.16108136,,,,,,,,-5.758399963,50.95940018,-15.62819958,-1.8419871330000002,-3.597628593,7.367943764,
16.169999999999998,16.17487402,16.17276817,,,,-0.7055835723999999,-14.13530064,4.2260236739999995,2.074895382,0.2857238054,-0.33352261780000003,,,,,,,
16.2,16.22487402,16.22357312,16.20352156,16.21108136,,-0.9451649189,-16.66840172,-6.379863262000001,4.360685825,0.600615561,-0.4085040987,-7.295599937,52.39899826,-12.15119934,0.3135738671,-6.464580536000001,4.180072308,
16.23,,,16.25352156,,,,,,,,,-8.527799606,52.88699722,-10.88239956,,,,
16.259999999999998,16.27487402,16.2743789,,16.26108136,,-4.34476757,-16.62772369,0.07716853172,3.589491129,-0.2145601064,-0.42026290299999997,,,,-3.077380419,-6.9423618320000005,-4.931183815,
16.29,,,16.30352156,16.31108136,,,,,,,,-9.174399376,52.47219849,-11.59000015,-2.950938225,-6.837909698,-3.163648367,
16.32,16.32487402,16.32518541,,,,-2.127817631,-13.03639698,-1.043270707,2.6997921469999997,2.105590582,0.4085040987,,,,,,,
16.349999999999998,16.37487402,16.37599109,16.35352156,16.36108136,,-0.3945166469,-6.498308182000001,-1.598704576,2.625726938,0.4056025743,0.07482878864,-8.491199493,50.99599838,-13.84700012,0.7196015715999999,1.400956154,-5.525946617000001,
16.38,,,16.40352156,,,,,,,,,-7.551799774,49.11719894,-17.18980026,,,,
16.41,16.42487402,16.42679599,,16.41108136,,3.728017569,-3.694817305,-3.066402197,2.542346239,3.138533115,0.059252183879999996,,,,3.6286540030000003,4.078861237,-6.471169472000001,
16.439999999999998,,,16.45352156,16.46108136,,,,,,,,-5.9414000510000005,46.25019836,-21.92339897,3.6933748719999997,6.917217255,-7.598203659,
16.47,16.47487402,16.47760177,,,,0.5799604058,-0.7929216027,-2.1972093580000003,0.7357655168,2.9326777460000004,-0.6355865598,,,,,,,
16.5,16.52487402,16.52840828,16.50352156,16.51108136,,-0.5596213937,-1.3938192130000002,-0.7848458290000001,-1.5898827309999999,1.88538003,-1.149003744,-3.842999935,43.05379868,-27.18159866,1.005794287,7.705984116000001,-7.263290882000001,
16.53,,,16.55352156,,,,,,,,,-1.512799978,40.11359787,-32.62279892,,,,
16.56,16.57487402,16.57921395,,16.56108136,,-7.519444942000001,-13.2520504,16.716259,-0.8295305967000001,0.5593833923,-1.108687758,,,,-2.104723454,2.167879105,7.622829437,
16.59,,,16.60352156,16.61108136,,,,,,,,0.9271999598,37.74679947,-36.79520035,-1.852977991,-16.2443924,8.586688995,
16.62,16.62487402,16.63001885,,,,0.8958129883,-13.58943844,10.40758228,1.165191174,1.7424417730000001,-0.1921114624,,,,,,,
16.65,16.67487402,,16.65352156,16.66108136,,-3.401397467,-7.326523781000001,8.370392799,,,,3.647799969,35.55080032,-39.74760056,-1.512064815,5.871863842000001,1.100591183,
16.68,,16.68082463,16.70352156,,,,,,0.3307738006,0.1792836636,-0.6421532035,6.417200089,33.79399872,-41.56539917,,,,
16.71,16.72487402,16.73163109,,16.71108136,,-4.471587181,-12.93111229,-8.132307053,-0.7331694365000001,-2.491798639,0.2414373755,,,,-4.198691845,-9.506770134,-15.91370487,
16.74,,,16.75352156,16.76108136,,,,,,,,8.161799431,32.78139877,-42.34619904,-3.410953522,4.09668541,-6.666886806,
16.77,16.77487402,16.78243677,,,,-2.1206390859999997,-5.940481186,-2.206780672,-2.676732779,-1.684105873,0.3884988427,,,,,,,
16.8,16.82487402,,16.80352156,16.81108136,,2.91655159,-12.90479183,-3.265006542,,,,9.394000053,32.78139877,-42.24860001,4.6491065030000005,-1.02616024,-11.29831886,
16.83,,16.83324166,16.85352156,,,,,,-2.157512426,-2.9143521789999998,0.8900044559999999,9.223199844,34.24539948,-40.86999893,,,,
16.86,16.87487402,16.88404744,,16.86108136,,6.8093748089999995,-11.35573769,1.6692929269999999,-2.964594364,1.1648857590000001,-0.607029438,,,,7.296911716,-4.632876396,1.128659129,
16.89,,,16.90352156,16.91108136,,,,,,,,8.33259964,36.41699982,-38.64960098,1.7911615369999998,3.82988739,2.208889961,
16.919999999999998,16.92487402,16.9348539,,,,-0.8350951076,-5.9644093510000005,2.887837887,-2.027860165,-1.38265276,-1.439767003,,,,,,,
16.95,16.97487402,,16.95352156,16.96108136,,-3.01376009,-8.437391281,2.016252279,,,,6.6977996829999995,38.125,-35.52639771,-3.047298431,2.326179504,3.147845984,
16.98,,16.98565958,17.00352156,,,,,,-1.176949978,-2.560213566,-0.2383831441,4.538399696,40.16239929,-32.59840012,,,,
17.009999999999998,17.02487402,17.03646447,,17.01108136,,-0.7992027401999999,-8.312965392999999,-4.131806374,-1.519788027,-2.386274815,0.6908682584999999,,,,-1.435973763,0.9786472320999999,-1.57514739,
17.04,,,17.05352156,17.06108136,,,,,,,,1.939799905,42.49259949,-29.10919952,0.7347254156999999,0.7949008942,1.491667747,
17.07,17.07487402,17.0872702,,,,1.0301101209999999,-10.3214407,1.338784218,-2.535932302,1.006218195,0.8328902125,,,,,,,
17.099999999999998,17.12487402,,17.10352156,17.11108136,,5.614758492000001,-12.09093285,5.14785862,,,,-0.5978000164,45.09119797,-24.74160004,4.808315754,-4.223800659,9.035741806,
17.13,,17.13807671,17.15352156,,,,,,-0.18355959649999998,-1.7118994,0.11957334730000001,-3.037799835,47.73859787,-20.11779976,,,,
17.16,17.17487402,17.18888234,,17.16108136,,1.051645517,-15.06909943,2.686840773,0.4995203316,0.40835139159999995,-0.3961344361,,,,2.953361034,-6.174211502,4.655291557,
17.189999999999998,,,17.20352156,17.21108136,,,,,,,,-4.7579998969999995,49.75159836,-15.77460003,2.657618999,-3.789542198,7.349834919,
17.22,17.22487402,17.23968724,,,,3.507878065,-14.73141289,4.108775616,3.3989069460000003,1.024085402,-0.5299099684,,,,,,,
17.25,17.27487402,,17.25352156,17.26108136,,-0.9762716293000001,-17.15683746,-7.954938889,,,,-5.9779996870000005,51.00819778,-12.7489996,0.9059785008,-5.58581543,2.3745653630000003,
17.28,,17.29049296,17.30352156,,,,,,4.051597118,0.3119902313,-0.5659499764,-7.063799857999999,51.38639832,-11.91940022,,,,
17.31,17.32487402,,,17.31108136,,-4.711168766,-16.28046608,1.726720691,,,,,,,-4.077124119,-6.587188721,-5.157907486,
17.34,,17.34129942,17.35352156,17.36108136,,,,,2.962761879,2.219208002,-0.17989452179999998,-7.417599677999999,50.83739853,-12.94419956,-4.024533272,-4.9392871860000005,-4.209815025,
17.37,17.37487402,17.39210505,,,,-1.392921925,-10.75723362,-1.881356835,2.6327517030000003,0.8974873423999999,0.13988402490000001,,,,,,,
17.4,17.42487402,,17.40352156,17.41108136,,0.9053842425,-5.885147095,-1.826022744,,,,-6.75880003,49.37339783,-15.16459942,0.9202463626999999,1.3542952540000002,-5.128470421,
17.43,,17.44290994,17.45352156,,,,,,2.88197732,1.147323847,-0.09865183383,-5.72179985,47.2262001,-18.65379906,,,,
17.46,17.47487402,,,17.46108136,,4.276273251,-3.096312523,-2.388635159,,,,,,,3.680608988,4.631803513,-6.95788765,
17.49,,17.49371567,17.50352156,17.51108136,,,,,1.818339586,2.988264799,-0.4567610323,-4.306600093999999,44.2737999,-23.43619919,2.3541996480000003,6.689770222000001,-7.158795834,
17.52,17.52487402,17.54452213,,,,0.046061836179999996,-0.4124628007,-2.283350945,-0.3358132839,2.9679541589999996,-0.8225058317,,,,,,,
17.55,17.57487402,,17.55352156,17.56108136,,-0.7896314859,-0.6661019921,-0.1214357466,,,,-2.586400032,41.54100037,-29.36540031,0.5082520843,7.704777241,-7.357245445,
17.58,,17.59532776,17.60352156,,,,,,-2.1801137919999998,1.023779988,-1.627755284,-0.1586000025,38.75939941,-34.09899902,,,,
17.61,17.62487402,,,17.61108136,,-10.87837029,-21.00629044,16.64896011,,,,,,,-3.72190094,0.1855592728,10.88335228,
17.64,,17.64613265,17.65352156,17.66108136,,,,,0.4611896873,1.068371892,-0.01328592747,2.171599865,36.47800064,-37.81999969,-0.40192019939999996,-10.38118553,8.489744186,
17.669999999999998,17.67487402,17.69693838,,,,-0.9188438654000001,-8.822935103999999,8.303393364,0.9179506898,1.054780483,-0.4955498278,,,,,,,
17.7,17.72487402,,17.70352156,17.71108136,,-2.8938198089999996,-15.27727509,5.648257732,,,,4.782400131,34.35519791,-40.16239929,-2.652830124,1.354177475,1.9944252969999998,
17.73,,17.74774484,17.75352156,,,,,,-0.2860292196,-2.159803152,0.1359135211,7.210199833,32.76919937,-41.58979797,,,,
17.759999999999998,17.77487402,,,17.76108136,,-4.37348175,-4.408177376,-10.10488987,,,,,,,-2.5477266309999997,-0.1354703903,-13.48901367,
17.79,,17.79855046,17.80352156,17.81108136,,,,,-2.006022453,-1.902483821,0.3301629424,8.588799477,31.86639977,-42.29739761,-1.402344108,1.4852862359999999,-7.169710159,
17.82,17.82487402,17.84935531,,,,1.786541224,-9.734899521000001,-9.870393753,-2.648328304,-4.164298533999999,1.025001645,,,,,,,
17.849999999999998,17.87487402,,17.85352156,17.86108136,,4.487140656,-15.88295841,3.900599957,,,,9.284199715,32.31779861,-41.79719925,3.158069849,-4.48426342,-4.339574337,
17.88,,17.90016104,17.90352156,,,,,,-3.035605431,1.025154471,-0.005039489828,9.076799393,34.00139999,-40.10139847,,,,
17.91,17.92487402,,,17.91108136,,5.1095738410000004,-7.800601959,-0.2964109182,,,,,,,7.824807644,-0.6662559509,-1.204169273,
17.939999999999998,,17.9509675,17.95352156,17.96108136,,,,,-2.5881598,-1.0538642409999999,-1.439614296,7.97879982,36.46579742,-37.28319931,-2.2757291790000003,3.064312935,3.925695181,
17.97,17.97487402,,,,,-2.8938198089999996,-6.481558323,2.9213373660000004,,,,,,,,,,
18.0,18.02487402,18.00177307,18.00352156,18.01108136,,-2.347957134,-8.708079338,0.1968096644,-1.4092246290000001,-2.517912388,-0.6368082762,5.929199696,38.82040024,-34.35519791,-3.175946712,1.681836128,1.948340058,
18.029999999999998,,18.05257796,18.05352156,,,,,,-1.3234006170000001,-2.878923178,0.4842491746,3.537999868,40.96759796,-31.13439941,,,,
18.06,18.07487402,,,18.06108136,,-0.6242275834000001,-8.360821724,-2.2666013240000003,,,,,,,-1.257074833,0.8043575287000001,-1.114646316,
18.09,,18.10338359,18.10352156,18.11108136,,,,,-2.0358011719999998,0.05894676222999999,1.168398142,0.7929999828000001,43.51739883,-27.2670002,3.221251488,-0.8750400543000001,3.896176577,
18.12,18.12487402,,,,,4.688137531000001,-12.42353535,3.208476067,,,,,,,,,,
18.15,18.17487402,18.1541901,18.15352156,18.16108136,,5.988337994,-13.36211967,2.114656925,-1.1754227879999999,-0.3833066523,0.5651864409,-1.012599945,46.57959747,-22.76519966,8.410902023,-2.265715599,7.732269287,
18.18,,18.20499572,18.20352156,,,,,,0.1052184403,0.2783936262,-0.5767925382,-2.879199982,49.05619812,-17.92179871,,,,
18.21,18.22487402,,,18.21108136,,-0.5620142221,-15.94517231,5.0521459580000005,,,,,,,0.08231037855000001,-7.52696228,6.516994476,
18.24,,18.25580057,18.25352156,18.26108136,,,,,2.931150675,0.8628217578,-0.7455390692,-4.416399956,50.92279816,-13.76159954,2.002361774,-7.226371765,4.448295593,
18.27,18.27487402,,,,,-0.37776687740000003,-15.06192112,0.048454657199999994,,,,,,,,,,
18.3,18.32487402,18.3066063,18.30352156,18.31108136,,-3.674478292,-16.74018669,-7.306184769,4.282497406,0.022601349280000002,-0.6114581227,-5.636399746,51.9231987,-11.60219955,-3.174185753,-7.095965385,-8.112624168,
18.33,,18.3574127,18.35352156,,,,,,3.146168709,1.235133171,-0.14736689630000002,-6.587999821,51.9109993,-11.56559944,,,,
18.36,18.37487402,,,18.36108136,,-4.466801643,-15.12413502,-0.6888338327,,,,,,,-5.3947649,-6.596577644,1.037540436,
18.39,,18.40821828,18.40352156,18.41108136,,,,,2.682993889,0.7446228266,0.4237752855,-6.624599934,51.02039719,-13.16379929,-1.8145521880000002,0.9334087372,-4.604725838,
18.419999999999998,18.42487402,,,,,-0.2222333997,-8.097311974,-1.900499344,,,,,,,,,,
18.45,18.47487402,18.45902317,18.45352156,18.46108136,,3.558127165,-4.341178417,-1.9674984219999998,3.021861315,1.0590564009999999,0.3379512429,-5.9414000510000005,49.38559723,-16.15279961,2.7372810839999997,4.424538612,-4.719051361,
18.48,,18.50982885,18.50352156,,,,,,2.115364075,2.772941113,-0.3348970115,-4.782400131,46.9211998,-20.32519913,,,,
18.509999999999998,18.52487402,,,18.51108136,,2.744268417,-2.475973129,-1.845464468,,,,,,,4.616950988999999,5.025776863,-7.18136549,
18.54,,18.56063526,18.55352156,18.56108136,,,,,0.17653486129999998,2.934968472,-0.6749862431999999,-2.964599848,43.26119995,-25.19299889,0.05490112305,7.339910983999999,-7.23628664,
18.57,18.57487402,,,,,-1.526919961,-0.6254240274,-2.25703001,,,,,,,,,,
18.599999999999998,18.62487402,18.61144088,18.60352156,18.61108136,,-2.199602127,-3.6059837339999996,11.37966633,-1.917449594,1.003622055,-1.082115889,-0.7929999828000001,40.13800049,-30.41459846,-0.10956561570000001,6.829478264,-2.02668786,
18.63,,,18.65352156,,,,,,,,,1.439599991,37.64920044,-34.96519852,,,,
18.66,18.67487402,18.66224572,,18.66108136,,-7.41625452,-28.42583656,13.26371479,-0.2698417902,0.43324342369999996,-0.5441122055,,,,-10.77825165,-15.65526009,10.575984,
18.689999999999998,,18.7130514,18.70352156,18.71108136,,,,,1.2493354079999999,1.258345366,-0.22860959170000003,3.842999935,35.4654007,-38.1493988,-1.093375564,0.9430141448999999,2.9227318760000003,
18.72,18.72487402,,,,,-4.411766528999999,-5.135894775,10.07258701,,,,,,,,,,
18.75,18.77487402,18.76385781,18.75352156,18.76108136,,-5.730810165,-13.6851511,-14.249259,0.030389651660000003,-1.477639556,-0.05619794875,6.319600105,33.44020081,-40.34539795,-1.2722994090000002,-8.740820885,-5.861689567999999,
18.779999999999998,,,18.80352156,,,,,,,,,8.112999916,32.02499771,-41.71179962,,,,
18.81,18.82487402,18.81466338,,18.81108136,,-4.004687786,-6.275476456,1.374676585,-1.7193822859999999,-2.531809092,0.4798205197,,,,-4.702627182,4.674592018,-9.137386322000001,
18.84,,18.86546822,18.85352156,18.86108136,,,,,-3.122040272,-4.487589358999999,0.8713735937999999,9.088999747999999,31.74440002,-41.9557991,4.638324261,-2.723003387,-14.0148077,
18.87,18.87487402,,,,,5.059324265,-13.35494137,-4.857131004,,,,,,,,,,
18.9,18.92487402,18.91627395,18.90352156,18.91108136,,8.18345356,-11.14756203,1.896611094,-2.877548695,0.39811968799999997,0.6116108297999999,8.869400023999999,32.81800079,-40.82119751,7.082026957999999,-5.850988387999999,1.392524123,
18.93,,,18.95352156,,,,,,,,,7.368799686,35.03839874,-38.38119888,,,,
18.96,18.97487402,18.96708036,,18.96108136,,0.3020938635,-5.846862316,2.052144527,-2.654894829,-0.1608055383,-1.4078502659999999,,,,3.6175026889999997,3.275216103,1.212794304,
18.99,,19.01788593,19.00352156,19.01108136,,,,,-1.8206303119999998,-2.4278123380000003,-1.117697716,5.477799892,37.58819962,-35.5019989,-3.699285507,2.642834663,2.43764782,
19.02,19.02487402,,,,,-3.10947299,-7.580461979,1.408176184,,,,,,,,,,
19.05,19.07487402,19.06869078,19.05352156,19.06108136,,-2.2354946140000003,-8.24118042,-2.465504646,-1.1457967759999999,-3.3773744110000004,0.2195995897,2.988999844,39.75979996,-32.37879944,-3.127667904,1.299004555,0.9320431948000001,
19.08,,,19.10352156,,,,,,,,,0.17080000039999998,41.99239731,-28.73099899,,,,
19.11,19.12487402,19.11949645,,19.11108136,,1.204786181,-9.967302322,1.3244273659999999,-1.9255433080000002,-0.20707722010000001,1.024390817,,,,0.3347230256,0.5072689056,2.7328050139999998,
19.14,,,19.15352156,19.16108136,,,,,,,,-3.184200048,44.09079742,-23.88759995,5.925895691,-3.207464218,6.356295586,
19.169999999999998,19.17487402,19.17030286,,,,6.567699909,-11.4825573,3.7208392619999997,-1.1916103359999999,-1.087308168,0.6665870547,,,,,,,
19.2,19.22487402,19.22110838,19.20352156,19.21108136,,1.705185294,-15.14806271,2.607578516,-0.1832541823,-0.02641914412,-0.37383851409999996,-5.44119978,46.76259995,-18.84899902,5.179137707,-5.915671349,4.332805634,
19.23,,,19.25352156,,,,,,,,,-7.283400059,48.92200089,-14.0788002,,,,
19.259999999999998,19.27487402,19.27191322,,19.26108136,,2.768196583,-16.5655117,2.82083869,2.394521236,0.8486195803000001,-0.5625903010000001,,,,2.5073664190000002,-5.628628731,7.770493507,
19.29,,,19.30352156,19.31108136,,,,,,,,-8.503399849,50.25180054,-10.88239956,-2.504539728,-6.85914135,-0.013381600379999999,
19.32,19.32487402,19.3227189,,,,-3.0640094280000003,-17.74577141,-8.517551422,4.24004364,0.558314383,-0.6148177385,,,,,,,
19.349999999999998,19.37487402,19.37352531,19.35352156,19.36108136,,-5.32163763,-16.84307861,2.64825654,3.243293524,0.8528954983,-0.3081724346,-9.637999535,50.67879868,-9.772199631,-5.295949936,-7.0103597639999995,-3.86599946,
19.38,,,19.40352156,,,,,,,,,-10.2723999,50.23959732,-10.49199963,,,,
19.41,19.42487402,19.42433088,,19.41108136,,-2.668894529,-10.22572803,-1.201196909,2.8757162089999997,1.257123709,0.5468609929,,,,-3.3517866130000002,-3.32484436,-3.3564462660000003,
19.439999999999998,,,19.45352156,19.46108136,,,,,,,,-9.845399857,49.08060074,-12.78559971,0.8551456331999999,2.330675125,-5.986083031000001,
19.47,19.47487402,19.47513567,,,,1.8296120169999999,-4.9851469989999995,-0.94277215,2.926569223,0.9260444641,0.1476723254,,,,,,,
19.5,19.52487402,19.52594135,19.50352156,19.51108136,,4.063312054,-2.646162748,-3.480360508,2.328855276,2.701319218,-0.284807533,-8.808400154,47.15299988,-16.46999931,4.887410641000001,5.277057648,-8.091959,
19.529999999999998,,,19.55352156,,,,,,,,,-7.381000042,44.51779938,-21.52079964,,,,
19.56,19.57487402,19.57674776,,19.56108136,,0.5368895531,-0.3287140131,-2.175673962,0.3268032968,3.203283072,-0.6285618544,,,,2.000457525,7.139221191,-7.029523848999999,
19.59,,,19.60352156,19.61108136,,,,,,,,-5.416800022,41.47999954,-26.92539978,0.9198260306999999,6.667071818999999,-6.9394741060000005,
19.62,19.62487402,19.62755333,,,,-1.424028635,-1.975873351,-0.02333002165,-1.702431321,1.775885701,-1.415638566,,,,,,,
19.65,19.67487402,19.67835812,19.65352156,19.66108136,,-15.33111382,-23.89622307,15.66042614,-0.3080197275,0.273812294,-0.8360971808,-2.9523999689999996,38.85699844,-31.93959999,-3.421308279,0.28263473510000003,13.30381966,
19.68,,,19.70352156,,,,,,,,,-0.573399961,36.63660049,-35.88019943,,,,
19.71,19.72487402,19.7291638,,19.71108136,,0.07238288223999999,-8.487641335,7.431807995,1.222305417,1.590035439,-0.27365958690000003,,,,1.357272148,-7.586787224,7.456766129,
19.74,,,19.75352156,19.76108136,,,,,,,,1.903199911,34.3064003,-38.85699844,-3.0007100110000002,0.6682634354,2.569393635,
19.77,19.77487402,19.77997015,,,,-3.999902248,-13.92473221,5.09760952,0.4434750974,-0.6714738606999999,-0.0520747304,,,,,,,
19.8,19.82487402,,19.80352156,19.81108136,,-4.191627026,-5.449653625,-9.626026154,,,,4.34319973,32.51300049,-40.79679871,-5.2788167,-3.719219208,-12.61946297,
19.83,,19.83077572,19.85352156,,,,,,-1.256665468,-2.587854385,0.5092939138,6.026799679,31.40279961,-41.84600067,,,,
19.86,19.87487402,19.88158052,,19.86108136,,1.5065809490000002,-10.3094759,-9.358030319,-3.164646864,-4.090691566,0.7024743556999999,,,,0.5243659615999999,0.8810319901000001,-9.216796875,
19.89,,,19.90352156,19.91108136,,,,,,,,6.539199829,31.73219872,-41.44339752,4.086954116999999,-5.090978622,-4.203407288,
19.919999999999998,19.92487402,19.93238619,,,,4.6402812,-16.21346664,2.499901533,-2.826848507,-0.06413896382,0.5786250829999999,,,,,,,
19.95,19.97487402,,19.95352156,19.96108136,,4.436891556,-6.771090031,1.223928809,,,,6.197599887999999,33.33039856,-39.86959839,7.468116283,-0.35638237,-0.2397208214,
19.98,,19.98319255,20.00352156,,,,,,-3.043088436,-0.2141019702,-1.308740258,4.953199863,35.73379898,-37.13679886,,,,
20.009999999999998,20.02487402,20.03399812,,20.01108136,,-1.905285001,-7.161418915,2.5573291780000003,-1.8974442480000002,-2.5182178019999997,-1.335464835,,,,-1.0747091770000001,3.4734745030000003,3.474009275,
20.04,,,20.05352156,20.06108136,,,,,,,,2.598599911,37.97859955,-34.07460022,-3.092110634,0.8091983795000001,3.181590557,
20.07,20.07487402,20.08480291,,,,-2.458326101,-8.681459427,0.9101698995,-1.064248681,-3.620491743,-0.06230641901,,,,,,,
20.099999999999998,20.12487402,,20.10352156,20.11108136,,-0.7247261405,-7.486843109,-1.364207983,,,,-0.060999996960000004,40.08919907,-30.64639854,-2.288432121,1.455286026,-1.811862588,
20.13,,20.13560859,20.15352156,,,,,,-1.6007252930000002,-1.527729034,1.0257653,-2.622999907,42.50479889,-26.46179962,,,,
20.16,20.17487402,20.18641494,,20.16108136,,4.899005413,-12.75643635,2.509472847,-1.668987393,0.2278460264,0.9604045749,,,,3.3311109539999997,-1.8258857730000002,4.272656918,
20.189999999999998,,,20.20352156,20.21108136,,,,,,,,-5.306999683,45.31079865,-21.55739975,8.990181923,-1.585552216,6.472402572999999,
20.22,20.22487402,20.23722046,,,,5.49033165,-13.26879978,2.413759947,-0.1858502775,-0.7030851841,-0.44637662170000003,,,,,,,
20.25,20.27487402,,20.25352156,20.26108136,,0.0580259487,-14.34856129,6.55782938,,,,-7.637199879,47.90940094,-16.4211998,0.5843075514,-5.4079952239999995,7.171396255,
20.279999999999998,,20.28802531,20.30352156,,,,,,1.5471234319999998,0.6829272509000001,-0.5661026835,-9.29640007,49.67839813,-12.10239983,,,,
20.31,20.32487402,20.33883093,,20.31108136,,0.6541379093999999,-16.04118347,2.179263115,4.333045006,0.8805363178,-0.5354076028,,,,1.7983858590000001,-6.521831512,5.716014385,
20.34,,,20.35352156,20.36108136,,,,,,,,-10.56519985,50.69099808,-9.58920002,-1.480832696,-8.861914635,-8.341837883,
20.37,20.37487402,20.38963729,,,,-3.171686411,-18.00419617,-7.399505137999999,3.5334460739999995,-0.1937913001,-0.33550786969999996,,,,,,,
20.4,20.42487402,,20.40352156,20.41108136,,-3.025724173,-16.3713932,-0.35862427950000003,,,,-11.72420025,50.67879868,-9.454999924,-4.545915604,-6.947061539,1.763213515,
20.43,,20.44044281,20.45352156,,,,,,2.820281744,2.010145664,0.3344388604,-11.79739952,49.84919739,-11.06540012,,,,
20.46,20.47487402,,,20.46108136,,0.03649054468,-8.186145782,-2.6808586119999998,,,,,,,-0.6102177501,0.10020542140000001,-5.55296278,
20.49,,20.4912476,20.50352156,20.51108136,,,,,2.502488613,0.43293800950000005,0.06917845457999999,-11.04099941,48.3852005,-14.05439949,1.988547206,4.333384514,-4.624844551,
20.52,20.52487402,20.54205328,,,,3.546163082,-4.048954964,-1.675274968,2.792946339,3.0107133389999996,0.1786728203,,,,,,,
20.55,20.57487402,,20.55352156,20.56108136,,3.1438698769999998,-0.941575706,-2.6497519019999998,,,,-9.540399551,46.00619888,-18.4708004,5.3109564780000005,6.342435837000001,-7.992305756,
20.58,,20.59285963,20.60352156,,,,,,0.8406785131,3.073019743,-0.6039752364000001,-7.551799774,43.07819748,-23.74119949,,,,
20.61,20.62487402,,,20.61108136,,-0.3323032558,-0.08913264424,-3.126222849,,,,,,,1.4608488080000002,8.357123375,-7.949972152999999,
20.64,,20.64366515,20.65352156,20.66108136,,,,,-1.421441555,2.528907537,-1.123806238,-5.014199734,40.1989975,-29.13360023,0.2440313101,5.957658768,-2.600409269,
20.669999999999998,20.67487402,20.69446994,,,,-1.696810365,-4.350749969,9.588937759,-1.1534323690000001,0.08429691940999999,-1.356844425,,,,,,,
20.7,20.72487402,,20.70352156,20.71108136,,-7.770691395,-29.72573662,11.06351471,,,,-2.269199848,37.91759872,-33.83060074,-14.45079136,-20.82069778,11.75548935,
20.73,,20.74527557,20.75352156,,,,,,1.179698825,1.6143165830000001,-0.04382828996,0.5001999736,35.81919861,-37.35639954,,,,
20.759999999999998,20.77487402,,,20.76108136,,-6.011069775,-4.92054081,6.158228397,,,,,,,-2.05867362,3.062487602,0.3149003983,
20.79,,20.79608192,20.80352156,20.81108136,,,,,0.7922688723000001,0.3539859951,-0.2261662036,3.23300004,33.92819977,-39.79639816,-0.0258282423,-9.40113163,-1.556284428,
20.82,20.82487402,20.84688744,,,,-3.8635113239999996,-13.02921867,-14.66082478,-0.9119949341,-2.981850863,0.34146362539999997,,,,,,,
20.849999999999998,20.87487402,,20.85352156,20.86108136,,-3.387040377,-5.04736042,0.01734796353,,,,5.782799721,32.47639847,-41.32139969,-3.1889061930000002,5.585889816,-13.29092598,
20.88,,20.89769224,20.90352156,,,,,,-3.02934432,-3.6351521019999997,0.6484143734000001,7.283400059,32.09819794,-41.71179962,,,,
20.91,20.92487402,,,20.91108136,,4.257130623,-13.15364552,-4.155734539,,,,,,,3.07389164,-2.8156518939999997,-12.47690487,
20.939999999999998,,20.94849786,20.95352156,20.96108136,,,,,-2.3971173759999997,-1.8501036169999998,1.014617324,7.5151996610000005,33.09859848,-40.73579788,7.129853725,-6.114185332999999,1.2275128359999998,
20.97,20.97487402,20.99930421,,,,7.659126282000001,-12.14836025,1.3794622419999998,-2.917101145,0.7534800768000001,-0.8594620824,,,,,,,
21.0,21.02487402,,21.00352156,21.01108136,,0.3619144261,-6.158228397,2.18644166,,,,7.234600067000001,35.08720016,-38.49100113,4.526520252,2.8103713989999997,1.0697968009999999,
21.029999999999998,,21.05010974,21.05352156,,,,,,-2.259371281,-1.5420838590000001,-1.39670229,5.5753998760000005,37.41740036,-35.72159958,,,,
21.06,21.07487402,,,21.06108136,,-2.405385017,-7.771887779,1.71236372,,,,,,,-2.88290596,2.429486752,2.66347146,
21.09,,21.10091447,21.10352156,21.11108136,,,,,-1.424343109,-2.6471066469999998,-0.39460733530000003,3.269599915,39.46699905,-32.70819855,-2.904877663,1.027884483,1.503339648,
21.119999999999997,21.12487402,,,,,-2.376671076,-8.365607262000001,-1.6298112869999999,,,,,,,,,,
21.15,21.17487402,21.1517201,21.15352156,21.16108136,,0.35712876920000003,-8.003992081,1.51106751,-1.461146593,-2.66833353,0.6722373962,0.573399961,41.6507988,-29.09700012,-0.4643557668,2.117926598,-0.3269788027,
21.18,,21.20252645,21.20352156,,,,,,-1.866901994,0.4242334068,1.054016948,-2.305799961,44.34700012,-24.70499992,,,,
21.21,21.22487402,,,21.21108136,,6.603592396,-12.1292181,4.566103935,,,,,,,4.925796032,-2.997379303,5.731668472000001,
21.24,,21.25333197,21.25352156,21.26108136,,,,,-0.2921377122,-1.389219403,0.08429691940999999,-4.782400131,47.03099823,-19.666399,7.416206837000001,-4.043447495,6.708610535,
21.27,21.27487402,,,,,2.696412086,-15.45942879,1.087537885,,,,,,,,,,
21.3,21.32487402,21.30413671,21.30352156,21.31108136,,1.300499082,-14.32223988,3.7423746589999998,0.7411104440999999,0.9184088706999999,-0.5381564498,-6.661200047,49.16600037,-14.98159981,1.8717134,-6.685274123999999,8.707559586,
21.33,,21.35494234,21.35352156,,,,,,3.844214439,1.582247138,-0.6248967648,-8.027600288,50.59339905,-11.46799946,,,,
21.36,21.37487402,,,21.36108136,,-2.8459634780000003,-16.62054634,-5.767001629,,,,,,,-1.237603426,-6.63584137,3.160835028,
21.39,,21.40574869,21.40352156,21.41108136,,,,,4.0207495689999995,-0.7768449783,-0.2333436459,-9.308599472000001,51.14239883,-10.63840008,-3.51388526,-7.4449052810000005,-6.1999998089999995,
21.419999999999998,21.42487402,,,,,-5.0700922010000005,-16.89811325,0.4818546474,,,,,,,,,,
21.45,21.47487402,21.45655421,21.45352156,21.46108136,,-2.070389748,-11.85853004,-0.5333003402000001,2.786685228,2.305032015,0.07543963939,-10.02839947,50.83739853,-11.17519951,-3.055907726,-6.562618256,-2.927457333,
21.48,,21.50735895,21.50352156,,,,,,2.388870955,0.35856732729999996,0.06261184067,-9.637999535,49.67839813,-13.40779972,,,,
21.509999999999998,21.52487402,,,21.51108136,,0.33798620100000004,-6.12472868,-1.8212370869999999,,,,,,,0.5249891281,1.485081673,-6.177619934,
21.54,,21.55816458,21.55352156,21.56108136,,,,,2.864568233,2.603889227,0.3399364948,-8.62539959,47.8239975,-16.90919876,4.149951935,4.9984903339999995,-6.537967205,
21.57,21.57487402,,,,,4.523033142,-2.638984203,-3.131008387,,,,,,,,,,
21.599999999999998,21.62487402,21.60897088,21.60352156,21.61108136,,0.9173483848999999,-0.46989053490000005,-2.060818434,1.235285878,3.0514874460000003,-0.2499892414,-6.905200005,44.94479752,-21.63059998,3.933576345,7.328263282999999,-7.285660267000001,
21.63,,21.6597764,21.65352156,,,,,,-0.8956547976000001,2.698723078,-0.9345963001,-4.684800148,41.9314003,-26.94979858,,,,
21.66,21.67487402,,,21.66108136,,-1.122233868,-1.631007791,-1.826022744,,,,,,,1.274069548,7.360513687,-7.879868984,
21.689999999999998,,21.71058114,21.70352156,21.71108136,,,,,-1.752673507,0.4169032574,-1.918518543,-2.073999882,39.2840004,-31.90299988,-1.8614385130000002,2.099980354,5.475618839,
21.72,21.72487402,,,,,-10.65314579,-17.98983955,20.13500404,,,,,,,,,,
21.75,21.77487402,21.76138677,21.75352156,21.76108136,,0.7642077208,-9.677472115,9.981659889,1.061652541,1.3470709319999998,-0.03069507517,0.37819999460000003,37.16119766,-35.90459824,-2.156606197,-14.87687874,9.212287903,
21.779999999999998,,,21.80352156,,,,,,,,,2.964599848,35.7826004,-39.0033989,,,,
21.81,21.82487402,21.81219307,,21.81108136,,-2.57078886,-8.308178902,3.086441994,0.7230904698,0.5775560737,-0.7785248159999999,,,,-1.661551595,6.297756195,1.546787739,
21.84,,21.86299859,21.85352156,21.86108136,,,,,-0.4188885093,-2.247307062,0.21364383399999998,5.514400005,34.14780045,-40.80899811,-5.274109364,-10.97145271,-13.46812439,
21.869999999999997,21.87487402,,,,,-5.240281582,-11.97577858,-7.342077255,,,,,,,,,,
21.9,21.92487402,21.91380333,21.90352156,21.91108136,,0.8694919348000001,-7.000801086,-7.251150131,-2.2497503759999997,-1.4880238769999998,0.39918869729999995,7.1858000760000005,33.23279953,-41.62639999,-1.4762432580000002,3.9044942860000003,-5.895589352000001,
21.93,,,21.95352156,,,,,,,,,8.173999786,33.40359879,-41.39459991,,,,
21.96,21.97487402,21.9646089,,21.96108136,,4.310071945,-15.15763378,0.3547359705,-2.444152594,-3.776868582,0.7808154821,,,,4.448197365,-3.0704803469999997,-4.962645531000001,
21.99,,22.01541526,22.00352156,22.01108136,,,,,-3.417232275,0.8139539956999999,-0.5543438792000001,7.417599677999999,34.73339844,-39.61339951,7.272018909,-3.2082691189999997,-1.422629237,
22.02,22.02487402,,,,,5.763113499,-8.600103378,0.43399819729999994,,,,,,,,,,
22.05,22.07487402,22.06622072,22.05352156,22.06108136,,-3.162115097,-6.409474372999999,4.060919285,-2.2605929369999997,-1.358982444,-1.471378326,6.099999905,37.00259781,-37.03919983,-1.215145469,3.655104637,4.49890089,
22.08,,,22.10352156,,,,,,,,,3.818599939,39.23519897,-34.0257988,,,,
22.11,22.12487402,22.11702546,,22.11108136,,-2.673680305,-8.906683922000001,0.6637091637,-1.000415087,-3.0075063710000003,-0.3810159862,,,,-3.3435888289999998,1.608456612,3.223569393,
22.14,,22.16783099,22.15352156,22.16108136,,,,,-1.318971992,-2.81157732,0.6545228362,1.439599991,41.15060043,-30.95139885,-1.19172883,1.300722122,-1.42416954,
22.169999999999998,22.17487402,,,,,-0.09750752151,-8.068597794,-2.175673962,,,,,,,,,,
22.2,22.22487402,22.21863739,22.20352156,22.21108136,,5.073681355,-10.51077271,3.419343472,-2.119945526,0.7948650121999999,0.9704836011,-1.366400003,43.85899734,-27.68179893,3.848704815,0.08682537079,4.024701118,
22.23,,,22.25352156,,,,,,,,,-3.769799948,46.38439941,-23.13119888,,,,
22.259999999999998,22.27487402,22.26944286,,22.26108136,,4.254737854,-12.93350506,2.464009047,-0.5248705149,-1.26384294,-0.008399149403,,,,6.327741623,-2.726146698,6.769042969,
22.29,,,22.30352156,22.31108136,,,,,,,,-5.807199955,48.76339722,-18.43420029,0.2185719311,-6.696948051000001,7.405220985,
22.32,22.32487402,22.3202476,,,,0.4818546474,-15.44028664,5.056931496,0.6255075932,0.364828527,-0.4146125913,,,,,,,
22.349999999999998,22.37487402,22.37105317,22.35352156,22.36108136,,1.355534077,-16.25414467,1.96839571,3.6734826560000005,1.166718245,-0.7030851841,-7.551799774,50.61779785,-14.38379955,3.089370251,-6.551627159,5.476961136,
22.38,,,22.40352156,,,,,,,,,-8.771800041,51.6303978,-12.06579971,,,,
22.41,22.42487402,22.42185947,,22.41108136,,-3.162115097,-17.08236122,-7.193722247999999,4.219274521,-0.7021689415000001,-0.4259132445,,,,-2.167671442,-7.4853610989999995,-7.9822978970000005,
22.439999999999998,,,22.45352156,22.46108136,,,,,,,,-9.796599387999999,51.58160019,-12.07800007,-5.694675446000001,-7.9174528120000005,1.0354719159999999,
22.47,22.47487402,22.47266494,,,,-4.7877388,-16.28046608,-1.131805062,2.8874750139999996,2.111240864,0.1585148573,,,,,,,
22.5,22.52487402,22.52346968,22.50352156,22.51108136,,-0.6002993584,-7.920242786,-2.132603168,2.709260225,0.6444438696,0.5960342288,-9.723400116,50.60559845,-13.94460011,-0.431142807,-0.06150913239,-4.282191277,
22.529999999999998,,,22.55352156,,,,,,,,,-8.918199539,48.92200089,-16.90919876,,,,
22.56,22.57487402,22.57427526,,22.56108136,,4.096811295,-4.604389191,-2.1302104,2.77202487,1.7520626780000002,0.3810159862,,,,3.5194478030000003,3.80091095,-4.858808993999999,
22.59,,,22.60352156,22.61108136,,,,,,,,-7.478600025,45.78659821,-20.8375988,5.351279259,5.963040352,-7.3440427779999995,
22.619999999999997,22.62487402,22.62508156,,,,1.800898194,-1.623829246,-2.067996979,1.145338655,2.418497086,-0.587176919,,,,,,,
22.65,22.67487402,22.67588703,22.65352156,22.66108136,,-0.6098706722,-0.03888336942,-2.585145712,-0.8550334573,2.530282021,-0.8246437906999999,-5.72179985,42.71220016,-25.92499924,0.965547204,8.12891674,-7.563995361,
22.68,,,22.70352156,,,,,,,,,-3.4647998810000002,39.73539734,-31.02459908,,,,
22.71,22.72487402,22.72669177,,22.71108136,,-0.7486543655,-4.326821327,9.239286423,-2.034426689,0.7496622801,-1.7862701419999998,,,,0.9253955483,6.560829162999999,-1.006510496,
22.74,,,22.75352156,22.76108136,,,,,,,,-1.2078000309999999,37.36859894,-35.34339905,-11.74324417,-23.13454247,12.61731339,
22.77,22.77487402,22.77749734,,,,-5.2737813,-30.269207,14.15683651,1.072189689,1.6401249169999998,-0.007482878863999999,,,,,,,
22.8,22.82487402,22.82830364,22.80352156,22.81108136,,-5.046164036,-4.530211448999999,5.451747417000001,1.000873208,0.491579324,-0.7120952009999999,1.122399926,35.56299973,-38.88140106,-0.8098773956,4.69567728,1.340955734,
22.83,,,22.85352156,,,,,,,,,3.830799818,33.58660126,-41.00419998,,,,
22.86,22.87487402,22.87910911,,22.86108136,,-7.184150696000001,-14.04915905,-9.128020287,-0.2929012477,-2.263189077,0.3452814221,,,,-3.15608716,-10.31208992,-10.42632198,
22.89,,,22.90352156,22.91108136,,,,,,,,5.697400093,32.28120041,-42.2364006,-3.559395313,5.04099226,-9.554149628,
22.919999999999998,22.92487402,22.9299138,,,,-2.9249265189999996,-6.756732941,-1.641775489,-2.711245537,-2.127275467,0.7386670709000001,,,,,,,
22.95,22.97487402,,22.95352156,22.96108136,,4.5182471280000005,-16.31635857,-0.8685946465000001,,,,6.844199657000001,32.01279831,-42.44379807,6.141137122999999,-3.387306213,-10.81941414,
22.98,,22.98071937,23.00352156,,,,,,-2.485079288,-2.872814655,0.8342646359999999,6.746599674,33.28160095,-41.10179901,,,,
23.009999999999998,23.02487402,23.03152567,,23.01108136,,7.089335442,-10.1587286,1.542473316,-3.2045047280000003,0.6290199757,-0.9468132256999999,,,,7.9442038539999995,-4.059617043,0.19452118870000001,
23.04,,,23.05352156,23.06108136,,,,,,,,5.9414000510000005,35.31900024,-38.83259964,1.3035776620000001,3.786973953,1.079997778,
23.07,23.07487402,23.08233114,,,,-1.847558141,-6.1055860520000005,2.69162631,-2.276933193,-1.303853512,-1.6305040119999998,,,,,,,
23.099999999999998,23.12487402,,23.10352156,23.11108136,,-4.016652107,-7.853243827999999,2.6724836830000003,,,,4.013800144,37.68579865,-35.94120026,-4.097594738,2.299954414,2.436872721,
23.13,,23.13313583,23.15352156,,,,,,-1.1343433859999998,-2.982156277,-0.3147390485,1.6957999469999998,39.63779831,-33.01319885,,,,
23.16,23.17487402,23.1839414,,23.16108136,,-1.833201289,-8.580961227000001,-3.164507866,-1.189166903,-2.468739271,0.8191461563,,,,-3.080808878,0.6447610855,-1.122281432,
23.189999999999998,,,23.20352156,23.21108136,,,,,,,,-0.7563999891,41.9314003,-29.3409996,1.6134157180000002,1.841984749,1.8479763269999998,
23.22,23.22487402,23.2347477,,,,3.0720851419999997,-9.478867531,1.281356573,-1.90462172,0.1487413049,1.102884769,,,,,,,
23.25,23.27487402,,23.25352156,23.26108136,,7.381558895,-11.19781208,2.954836845,,,,-3.4038000110000004,44.49340057,-25.19299889,7.079961777,-3.195950508,6.432180405,
23.279999999999998,,23.28555312,23.30352156,,,,,,-0.6253548861,-1.073105931,0.2252499312,-5.428999901,47.07979965,-20.45940018,,,,
23.31,23.32487402,23.33635786,,23.31108136,,-0.17168502510000003,-15.41605854,2.054537296,0.053754560650000005,0.6103891134,-0.35917818549999997,,,,2.524773359,-5.920131682999999,2.809489965,
23.34,,,23.35352156,23.36108136,,,,,,,,-7.1858000760000005,49.19039917,-16.11619949,2.420640707,-5.278577805,6.722797394,
23.369999999999997,23.37487402,23.38716333,,,,2.7514469619999997,-14.70748425,2.1337995530000002,3.170297384,0.8353336453,-0.7898254991,,,,,,,
23.4,23.42487402,,23.40352156,23.41108136,,-3.2530424589999996,-16.18953896,-6.925725937,,,,-8.161799431,50.34939957,-13.32240009,-1.8519221540000002,-5.43204689,3.81888628,
23.43,,23.43796968,23.45352156,,,,,,4.169337748999999,-0.09300149232,-0.38361206649999996,-9.101200104,50.7154007,-12.49279976,,,,
23.46,23.47487402,23.4887751,,23.46108136,,-5.268995285,-16.57986832,1.733899117,2.98139286,1.665780425,0.0536018461,,,,-4.7918715480000005,-6.533452988,-2.9662158489999997,
23.49,,,23.50352156,23.51108136,,,,,,,,-9.247599602000001,50.12979889,-13.45660019,-2.084126949,-4.31111908,-2.468042612,
23.52,23.52487402,23.53957984,,,,-1.0743774179999999,-10.75723362,-0.7944171429000001,2.652298689,0.8118160367,0.3872771561,,,,,,,
23.55,23.57487402,,23.55352156,23.56108136,,1.453639746,-5.727221012,-1.1437692640000001,,,,-8.430199623,48.76339722,-15.8477993,0.8687576652,1.5914211269999998,-5.571205616,
23.58,,23.59038536,23.60352156,,,,,,2.7926409239999996,1.418234587,0.1007898003,-7.234600067000001,46.14039993,-19.3491993,,,,
23.61,23.62487402,,,23.61108136,,3.8001015189999996,-2.813660383,-2.611466885,,,,,,,4.124130248999999,5.3895311360000004,-6.97627449,
23.64,,23.64119166,23.65352156,23.66108136,,,,,1.655396104,2.7356793880000003,-0.44332239030000004,-5.587599754,43.21239853,-23.85099983,2.583114147,6.271612644,-7.054409981,
23.669999999999998,23.67487402,23.69199708,,,,0.41964125630000004,-1.216750264,-2.036890268,-0.1021642014,2.94138217,-0.8003626466,,,,,,,
23.7,23.72487402,,23.70352156,23.71108136,,-0.4256233275,-1.604686737,-0.3442673683,,,,-3.4038000110000004,39.95499802,-28.90180016,1.207261801,7.004388809,-7.111482143,
23.73,,23.74280177,23.75352156,,,,,,-2.082989216,0.9712471366,-1.7193822859999999,-0.9027999640000001,37.11240005,-33.47679901,,,,
23.759999999999998,23.77487402,,,23.76108136,,-10.16231823,-17.88455391,18.35115433,,,,,,,-2.608259201,1.347664833,9.40217495,
23.79,,23.79360734,23.80352156,23.81108136,,,,,0.2018850148,1.28262651,-0.2307475507,1.817799926,35.4897995,-37.31979752,-0.9446619748999999,-13.02595234,7.530819892999999,
23.82,23.82487402,23.84441359,,,,0.022133609280000004,-9.917053223,7.680661678,1.21069932,1.4684767719999998,-0.534185946,,,,,,,
23.849999999999998,23.87487402,,23.85352156,23.86108136,,-2.312064886,-13.522439,2.0593230719999998,,,,4.660399914,33.31819916,-39.6012001,-2.981354713,2.007100105,1.613854885,
23.88,,23.89521901,23.90352156,,,,,,-0.1415638477,-1.917296886,0.21318569780000002,7.271199703,31.56139946,-41.02859879,,,,
23.91,23.92487402,,,23.91108136,,-4.768596649,-5.904589176,-9.341280937,,,,,,,-4.069384575,-1.196685791,-11.86553764,
23.939999999999998,,23.94602369,23.95352156,23.96108136,,,,,-1.777260065,-2.030303478,0.6985038519,8.979199409,30.5243988,-41.61420059,-0.5421917439,0.6348114014,-7.946651459,
23.97,23.97487402,23.99682927,,,,2.294118643,-10.29511929,-10.03071213,-2.7912664410000003,-3.589338541,0.8293778895999999,,,,,,,
24.0,24.02487402,,24.00352156,24.01108136,,4.975575447,-15.34906006,3.223132133,,,,9.881999968999999,30.76840019,-41.04079819,5.136092186,-4.62750721,-4.246240139,
24.029999999999998,,24.04763552,24.05352156,,,,,,-2.926263809,0.6445965767,-0.1392731816,9.906399727,32.15919876,-39.49139786,,,,
24.06,24.07487402,,,24.06108136,,4.41296339,-7.515556812000001,0.3020938635,,,,,,,6.852715492000001,0.03865146637,-0.052427291869999997,
24.09,,24.09844093,24.10352156,24.11108136,,,,,-2.439418554,-1.0653176309999999,-1.579498291,8.881599426000001,34.37960052,-36.91719818,-2.074228287,3.247890949,3.386579275,
24.119999999999997,24.12487402,24.14924562,,,,-2.977568626,-6.64427042,2.420938253,-1.439308882,-2.668638945,-0.8412894011,,,,,,,
24.15,24.17487402,,24.15352156,24.16108136,,-3.049652576,-8.595317841,0.517746985,,,,7.002799988,36.51459885,-34.20879745,-3.7490031719999997,1.4520559309999999,3.6796946530000003,
24.18,,24.20005109,24.20352156,,,,,,-0.9327637553,-2.9890284539999996,0.5351021886,4.660399914,37.79560089,-30.89039993,,,,
24.21,24.22487402,,,24.21108136,,0.4148556292,-7.814958572,-3.308077335,,,,,,,-0.7452368736,1.3630132680000002,-2.486353397,
