"Time (s)","Acceleration x (m/s^2)","Acceleration y (m/s^2)","Acceleration z (m/s^2)"
7.353635400E-2,-2.012962103E0,3.975973845E0,8.375178337E0
1.235363540E-1,-1.186840057E0,4.208376884E0,9.069396019E0
1.735363540E-1,-1.727917075E0,3.549752474E0,8.521140099E0
2.235363540E-1,-1.573280841E-1,3.978366852E0,9.512367249E0
2.735363540E-1,-4.399802685E-1,4.062115669E0,1.010130119E1
3.235363540E-1,-2.413759828E-1,3.920938969E0,9.524331093E0
3.735363540E-1,-4.351946115E-1,3.542573929E0,9.210572243E0
4.235363540E-1,-4.088735580E-1,3.834797382E0,8.621639252E0
4.735363540E-1,-4.926223755E-1,2.527718067E0,9.165108681E0
5.235363540E-1,4.387838542E-1,1.373480201E0,9.399904251E0
5.735363540E-1,2.018645048E0,1.263410330E0,8.286643982E0
6.235363540E-1,3.637090445E0,-1.178465188E-1,6.165406704E0
6.735363540E-1,3.227917671E0,1.232303619E0,9.677472115E0
7.235363540E-1,7.599305630E0,-7.238288224E-2,7.680661678E0
7.735363540E-1,6.368796349E0,1.094716340E-1,9.387641907E0
8.235363540E-1,7.259524822E0,5.682953820E-2,7.163811684E0
8.735363540E-1,8.434998512E0,-4.316053987E-1,7.836493969E0
9.235363540E-1,1.064716339E1,-1.686042666E0,4.362713814E0
9.735363540E-1,8.533104897E0,-5.563312769E-2,8.614460945E0
1.023536354E0,9.210572243E0,-9.966106415E-1,5.861218929E0
1.073536354E0,8.466105461E0,-1.430010676E0,2.574079037E0
1.123536354E0,9.090931892E0,-1.575972795E0,3.486342669E0
1.173536354E0,6.318547249E0,-2.689233541E0,2.303689957E0
1.223536354E0,1.140838051E1,-4.147060871E0,1.779362798E0
1.273536354E0,7.779066563E0,-4.491926193E0,2.808874607E0
1.323536354E0,9.212965012E0,-5.782256126E0,3.005086184E0
1.373536354E0,6.452545166E0,-6.297011852E0,4.353142738E0
1.423536354E0,8.825327873E0,-6.438188553E0,2.088036776E0
1.473536354E0,6.038587093E0,-4.661816597E0,2.085644007E0
1.523536354E0,6.253941059E0,-4.534996986E0,3.962813377E0
1.573536354E0,6.521937370E0,-5.746363640E0,2.787339211E0
1.623536354E0,5.217250824E0,-7.130312443E0,3.682554007E0
1.673536354E0,4.515854359E0,-1.147059345E1,1.776969910E0
1.723536354E0,5.533402443E0,-1.088644600E1,3.979563236E0
1.773536354E0,5.715256691E0,-9.428618431E0,1.566401482E0
1.823536354E0,5.255535603E0,-6.366403580E0,2.665305376E0
1.873536354E0,5.109573841E0,-7.161418915E0,2.751446962E0
1.923536354E0,4.056133270E0,-7.886743546E0,2.174477577E0
1.973536354E0,3.105584621E0,-9.004789352E0,2.638685226E0
2.023536354E0,4.295415878E0,-7.108777046E0,2.679662228E0
2.073536354E0,3.914957047E0,-3.879064560E0,3.323630571E0
2.123536354E0,2.981158018E0,-7.376772881E0,3.474378586E0
2.173536354E0,3.165405273E0,-8.578568459E0,4.106382847E0
2.223536354E0,2.169692039E0,-1.005583763E1,3.467200041E0
2.273536354E0,3.369094372E0,-1.005344391E1,4.649852753E0
2.323536354E0,2.160120726E0,-7.080062866E0,-2.581257522E-1
2.373536354E0,-6.768696904E-1,-9.533903122E0,5.320142269E0
2.423536354E0,2.853440940E-1,-8.715258598E0,3.158226728E0
2.473536354E0,2.159522474E-1,-8.511569023E0,3.428914785E0
2.523536354E0,9.631111473E-2,-1.006301594E1,4.144668102E0
2.573536354E0,-2.485544533E-1,-9.404690742E0,3.086441994E0
2.623536354E0,-1.453639716E-1,-9.098110199E0,4.527818680E0
2.673536354E0,-2.572284266E-2,-9.081359863E0,3.943670750E0
2.723536354E0,3.309273720E0,-1.760220170E0,2.883052111E0
2.773536354E0,-1.129412293E0,-9.565009117E0,3.821636915E0
2.823536354E0,-4.016951025E-1,-6.172585011E0,2.198405743E0
2.873536354E0,7.283154130E-1,-1.068066311E1,7.108478069E0
2.923536354E0,1.611865163E0,-1.009412193E1,4.599603176E0
2.973536354E0,1.353141189E0,-9.483653069E0,4.666602135E0
3.023536354E0,-2.389831543E-1,-7.848458290E0,4.223630905E0
3.073536354E0,1.214357495E0,-7.810173035E0,4.448855400E0
3.123536354E0,1.848754644E0,-9.043074608E0,4.439284325E0
3.173536354E0,1.633101404E-1,-8.260322571E0,4.237987995E0
3.223536354E0,-6.194419861E-1,-7.989634991E0,3.749552965E0
3.273536354E0,2.542374134E-1,-7.704888821E0,3.656233072E0
3.323536354E0,8.048857450E-1,-8.657531738E0,3.634697676E0
3.373536354E0,1.331605792E0,-8.839685440E0,3.819244146E0
3.423536354E0,-2.940180898E-1,-9.883553505E0,2.444866419E0
3.473536354E0,-4.447658956E-1,-1.098245811E1,4.139882088E0
3.523536354E0,4.268197417E-1,-1.051077271E1,4.257130623E0
3.573536354E0,-5.979065299E-1,-8.875576973E0,2.394617319E0
3.623536354E0,8.718847632E-1,-1.007019424E1,2.270190477E0
3.673536354E0,2.306082726E0,-7.901100159E0,2.129014015E0
3.723536354E0,2.851945400E0,-9.155537605E0,2.586043119E0
3.773536354E0,7.426723242E-1,-8.430212975E0,2.576471806E0
3.823536354E0,1.097109199E0,-9.675079346E0,3.443271875E0
3.873536354E0,1.607079506E0,-8.944969177E0,1.367498159E0
3.923536354E0,2.095514536E0,-1.024247742E1,2.210369825E0
3.973536354E0,1.566401482E0,-8.882756233E0,2.018645048E0
4.023536354E0,1.535294771E0,-9.957731247E0,2.581257343E0
4.073536354E0,1.379462242E0,-8.877969742E0,1.887039781E0
4.123536354E0,9.870393574E-2,-9.332905769E0,2.351546526E0
4.173536354E0,6.780661345E-1,-9.533903122E0,1.736291885E0
4.223536354E0,2.638086975E-1,-9.838089943E0,1.664507270E0
4.273536354E0,1.202393413E0,-9.411869049E0,1.980359793E0
4.323536354E0,9.293124676E-1,-9.708579063E0,1.714756489E0
4.373536354E0,-3.227319419E-1,-8.834898949E0,9.221340418E-1
4.423536354E0,4.818546474E-1,-1.018265629E1,6.661019921E-1
4.473536354E0,8.694919348E-1,-1.010608673E1,1.274178028E-1
4.523536354E0,1.171286702E0,-9.675079346E0,1.266999602E0
4.573536354E0,1.039681435E0,-1.057059288E1,6.373881102E-1
4.623536354E0,1.001396298E0,-9.129216194E0,1.659721613E0
4.673536354E0,2.679662228E0,-9.335298538E0,4.579264224E-1
4.723536354E0,-2.103889227E0,-1.045095158E1,-5.093721151E-1
4.773536354E0,-1.549352705E-1,-1.109013462E1,-5.620142221E-1
4.823536354E0,7.666005492E-1,-1.043898773E1,3.146262646E0
4.873536354E0,1.870290041E0,-1.068305588E1,2.545365095E0
4.923536354E0,4.154239178E0,-9.782755852E0,4.003491402E0
4.973536354E0,1.664507270E0,-1.330469227E1,5.863611698E0
5.023536354E0,-5.620142221E-1,-1.166710377E1,3.773481369E0
5.073536354E0,2.609971285E0,-6.560521603E0,4.997110844E0
5.123536354E0,2.713161707E0,-4.769493580E0,4.697709084E0
5.173536354E0,4.496711731E0,-3.021835804E0,5.312963486E0
5.223536354E0,4.688137531E0,-3.040978432E0,5.186143875E0
5.273536354E0,1.973181367E0,-3.460021496E0,6.431009769E0
5.323536354E0,4.307679176E0,-6.196513176E0,8.873184204E0
5.373536354E0,4.582853794E0,-5.693721294E0,7.568199158E0
5.423536354E0,4.058526516E0,-4.245465755E0,7.228417873E0
5.473536354E0,3.206382275E0,-3.749852180E0,7.247560501E0
5.523536354E0,4.127918243E0,-4.963611603E0,7.522735119E0
5.573536354E0,4.151846409E0,-6.488736629E0,8.324929237E0
5.623536354E0,2.947658300E0,-5.602794170E0,8.789136887E0
5.673536354E0,3.007478952E0,-5.806184292E0,8.224131584E0
5.723536354E0,2.808874607E0,-4.882255554E0,8.286643982E0
5.773536354E0,2.911766052E0,-5.324927807E0,9.287142754E0
5.823536354E0,1.707578063E0,-5.784648895E0,9.294321060E0
5.873536354E0,2.344367981E0,-4.175774574E0,7.257132053E0
5.923536354E0,2.997907639E0,-5.581258774E0,9.658329964E0
5.973536354E0,2.705983400E0,-3.151347399E0,7.745566845E0
6.023536354E0,1.872383654E-1,-8.024929166E-1,6.230012894E0
6.073536354E0,1.022931695E0,-1.942074656E0,6.768697262E0
6.123536354E0,1.561615825E0,-1.793719649E0,9.157930374E0
6.173536354E0,7.115656137E-1,-9.008977413E-1,8.001599312E0
6.223536354E0,7.905287743E-1,-2.124228239E0,1.070698357E1
6.273536354E0,4.027419567E0,-4.120739460E0,1.181067371E1
6.323536354E0,2.550150633E0,-4.963611603E0,6.809374809E0
6.373536354E0,1.700399637E0,-2.408974171E0,7.419844151E0
6.423536354E0,2.198405743E0,-8.123632431E0,1.175563812E1
6.473536354E0,1.817647934E0,-7.218846798E0,7.134799004E0
6.523536354E0,2.176870346E0,-3.084049225E0,5.047360420E0
6.573536354E0,1.793719649E0,-5.274678230E0,5.487938881E0
6.623536354E0,1.528116345E0,-8.075776100E0,6.830910206E0
6.673536354E0,1.369890928E0,-8.315358162E0,5.617151260E0
6.723536354E0,8.913264424E-2,-1.039591694E1,6.433403015E0
6.773536354E0,1.736291885E0,-1.142512989E1,5.356034279E0
6.823536354E0,2.761018276E0,-8.602496147E0,5.942574978E0
6.873536354E0,1.939681888E0,-9.471689224E0,6.366403580E0
6.923536354E0,8.048857450E-1,-9.009575844E0,2.169692039E0
6.973536354E0,-1.100698471E0,-7.328916550E0,2.914158821E0
7.023536354E0,1.977967024E0,-7.149455070E0,4.561318398E0
7.073536354E0,2.720340252E0,-9.356833458E0,6.251548290E0
7.123536354E0,1.695613980E0,-8.377571106E0,7.254739285E0
7.173536354E0,4.659423828E0,-8.683852196E0,7.556234837E0
7.223536354E0,1.571187139E0,-7.096812725E0,6.730412006E0
7.273536354E0,4.360321045E0,-5.834897995E0,5.674578667E0
7.323536354E0,4.159024715E0,-5.052145958E0,7.733603001E0
7.373536354E0,3.287738323E0,-5.169394016E0,7.534699440E0
7.423536354E0,2.569293261E0,-5.066503048E0,7.108478069E0
7.473536354E0,2.179263115E0,-4.444069862E0,9.227322578E0
7.523536354E0,2.368296146E0,-6.378367901E0,8.866005898E0
7.573536354E0,2.076371908E0,-5.665007591E0,9.703793526E0
7.623536354E0,1.140179992E0,-4.405784607E0,7.137191772E0
7.673536354E0,-7.342974544E-1,-1.494616866E0,5.933003902E0
7.723536354E0,2.607578516E0,-1.106680512E0,8.827720642E0
7.773536354E0,2.552543640E0,-2.117049932E0,1.016351414E1
7.823536354E0,2.365903378E0,-2.361117840E0,8.478069305E0
7.873536354E0,8.886345029E-1,-2.009372711E0,7.288238525E0
7.923536354E0,1.202393413E0,-1.908575177E0,8.312965393E0
7.973536354E0,1.039681435E0,-3.460021496E0,8.446963310E0
8.023536354E0,-3.107678294E-1,-6.105586052E0,7.295417309E0
8.073536354E0,2.251047850E0,-4.707280159E0,6.014359951E0
8.123536354E0,3.040978432E0,-3.778566122E0,5.775077343E0
8.173536354E0,2.571686029E0,-9.804291725E0,8.573782921E0
8.223536354E0,1.412961721E0,-1.043420219E1,7.051050186E0
8.273536354E0,-5.404788256E-1,-1.011087227E1,6.778268337E0
8.323536354E0,1.410568953E0,-1.016590691E1,5.312963486E0
8.373536354E0,2.215155602E0,-8.588139534E0,6.783053875E0
8.423536354E0,1.889432549E0,-7.618747234E0,5.698507309E0
8.473536354E0,9.966106415E-1,-8.162217140E0,5.528616905E0
8.523536354E0,2.181656122E0,-8.724829674E0,5.588437080E0
8.573536354E0,3.586841106E0,-8.224430084E0,6.543472767E0
8.623536354E0,5.511867046E0,-6.866802692E0,6.007181168E0
8.673536354E0,3.819244146E0,-7.482057095E0,7.170990467E0
8.723536354E0,3.029014349E0,-7.044170856E0,7.405487061E0
8.773536354E0,2.665305376E0,-6.768697262E0,7.288238525E0
8.823536354E0,2.952444077E0,-6.823731899E0,6.589235306E0
8.873536354E0,2.373081923E0,-4.985146999E0,7.266703129E0
8.923536354E0,3.261417150E0,-6.826124668E0,7.724031448E0
8.973536354E0,2.401795626E0,-6.732804775E0,1.106351471E1
9.023536354E0,-1.262213886E-1,-9.942178130E-1,4.891527653E0
9.073536354E0,1.537687659E0,-2.634198666E0,7.824530125E0
9.123536354E0,1.396211982E0,-2.497508526E0,7.067800045E0
9.173536354E0,1.642971873E0,-1.449153185E0,6.986443996E0
9.223536354E0,2.270190477E0,-5.982056609E-4,6.519544601E0
9.273536354E0,7.115656137E-1,-2.418545485E0,7.082156658E0
9.323536354E0,5.632106066E-1,-4.137489319E0,6.859624386E0
9.373536354E0,2.382653236E0,-3.979563236E0,7.618448257E0
9.423536354E0,2.497508526E0,-5.602794170E0,8.049455643E0
9.473536354E0,1.540080428E0,-7.965706348E0,7.328916550E0
9.523536354E0,1.252642632E0,-8.832506180E0,8.396714211E0
9.573536354E0,1.705185294E0,-7.738388538E0,6.232405663E0
9.623536354E0,1.709970832E0,-9.548259735E0,6.933801651E0
9.673536354E0,1.597508192E0,-1.109492016E1,6.390331745E0
9.723536354E0,9.125627279E-1,-1.041027355E1,5.964110374E0
9.773536354E0,1.843968987E0,-7.434200764E0,6.153442383E0
9.823536354E0,7.331010103E-1,-8.851649284E0,4.089632988E0
9.873536354E0,7.977072597E-1,-8.269894600E0,5.155037403E0
9.923536354E0,2.411366940E0,-6.364010811E0,4.812564373E0
9.973536354E0,2.310868502E0,-6.835696220E0,7.814958572E0
1.002353635E1,6.651448727E0,-8.968897820E0,1.186092281E1
1.007353635E1,1.832004786E0,-9.193822861E0,5.586044312E0
1.012353635E1,1.400997639E0,-7.115955353E0,7.022336483E0
1.017353635E1,2.131406784E0,-5.964409351E0,6.234798431E0
1.022353635E1,1.463211060E0,-3.081656456E0,6.308976173E0
1.027353635E1,1.528116345E0,-2.028515339E0,9.639186859E0
1.032353635E1,1.525723577E0,-3.862314939E0,6.948158741E0
1.037353635E1,1.575972795E0,-1.834397674E0,8.801100731E0
1.042353635E1,1.003789067E0,-1.508973837E0,7.963313580E0
1.047353635E1,6.900302172E-1,-1.063609719E0,6.323332787E0
1.052353635E1,7.259225845E-1,-5.536393523E-1,5.052145958E0
1.057353635E1,1.561316848E-1,-2.686840773E0,6.359225273E0
1.062353635E1,2.119442701E0,-4.156631947E0,8.176275253E0
1.067353635E1,2.234298229E0,-6.218048573E0,9.620044708E0
1.072353635E1,1.082752228E0,-8.683852196E0,8.647959709E0
1.077353635E1,1.820040703E0,-7.721638680E0,6.495615959E0
1.082353635E1,1.748256087E0,-5.605186939E0,5.748756409E0
1.087353635E1,8.195417374E-2,-1.047727299E1,7.601698399E0
1.092353635E1,1.956431627E0,-1.063280678E1,7.465307713E0
1.097353635E1,1.913360834E0,-1.085294628E1,7.805387497E0
1.102353635E1,2.614158690E-1,-9.974481583E0,5.403890610E0
1.107353635E1,3.885345757E-1,-7.070491791E0,3.751945972E0
1.112353635E1,5.943173170E-1,-6.289833546E0,4.338785648E0
1.117353635E1,2.401795626E0,-7.604390144E0,6.457331181E0
1.122353635E1,7.065407276E0,-9.212965012E0,9.722935677E0
1.127353635E1,3.381058455E0,-4.513461590E0,9.210572243E0
1.132353635E1,3.996312857E0,-6.888338089E0,8.899505615E0
1.137353635E1,3.155833960E0,-7.422236919E0,7.496414185E0
1.142353635E1,1.499402523E0,-6.428617001E0,6.576972008E0
1.147353635E1,-5.404788256E-1,-3.196810961E0,6.644270420E0
1.152353635E1,1.142572761E0,-2.933301449E0,8.662317276E0
1.157353635E1,1.686042666E0,-3.448057413E0,8.173882484E0
1.162353635E1,4.292125702E-1,-2.181656122E0,7.324131012E0
1.167353635E1,-3.290131316E-2,-7.426723242E-1,6.029015541E0
1.172353635E1,3.690928817E-1,-5.225326419E-1,6.426224232E0
1.177353635E1,1.765005827E0,-2.969193697E0,8.564210892E0
1.182353635E1,2.344367981E0,-4.994718075E0,8.906683922E0
1.187353635E1,1.958824396E0,-4.197309971E0,7.731209755E0
1.192353635E1,3.068794906E-1,-7.819744587E0,6.955337048E0
1.197353635E1,1.985145450E0,-7.312166691E0,6.055336952E0
1.202353635E1,7.354938388E-1,-7.869993687E0,7.283452988E0
1.207353635E1,2.330011129E0,-1.180349541E1,7.862815380E0
1.212353635E1,2.452643216E-2,-1.071655560E1,7.668697357E0
1.217353635E1,2.973082066E-1,-8.140681267E0,5.231607437E0
1.222353635E1,3.355933726E-1,-6.828517437E0,4.489533424E0
1.227353635E1,2.660519600E0,-8.260322571E0,5.842076302E0
1.232353635E1,3.177668571E0,-9.775577545E0,9.224929810E0
1.237353635E1,3.057728291E0,-7.850851059E0,6.172585011E0
1.242353635E1,2.049751759E0,-9.435796738E0,7.872386456E0
1.247353635E1,3.428914785E0,-6.313761711E0,6.373582363E0
1.252353635E1,3.249453068E0,-5.641079426E0,6.759125710E0
1.257353635E1,2.514258385E0,-7.434200764E0,9.380462646E0
1.262353635E1,9.942178130E-1,-5.310570717E0,8.413463593E0
1.267353635E1,1.288534999E0,-3.800101519E0,9.710971832E0
1.272353635E1,9.415757060E-1,-1.654935956E0,6.993622303E0
1.277353635E1,4.938187599E-1,-1.228714466E0,5.722435474E0
1.282353635E1,1.494616866E0,4.567300081E-1,4.901398182E0
1.287353635E1,1.207179070E0,-9.200403094E-1,6.091228962E0
1.292353635E1,2.581257343E0,-3.031407118E0,8.779565811E0
1.297353635E1,1.451246977E0,-5.193322659E0,8.834898949E0
1.302353635E1,-1.959123611E-1,-7.702496052E0,6.615556240E0
1.307353635E1,1.683649778E0,-6.723233223E0,5.863611698E0
1.312353635E1,1.367498159E0,-7.288238525E0,5.954539299E0
1.317353635E1,4.986044168E-1,-7.925028801E0,7.841279984E0
1.322353635E1,3.397808075E0,-9.842875481E0,7.889136314E0
1.327353635E1,5.273182988E-1,-1.234935760E1,8.377571106E0
1.332353635E1,5.632106066E-1,-1.196859932E1,6.524330139E0
1.337353635E1,6.062814593E-1,-8.913862228E0,5.466403484E0
1.342353635E1,-1.597209126E-1,-8.210073471E0,5.009075165E0
1.347353635E1,2.248655081E0,-5.418546677E0,4.293023109E0
1.352353635E1,2.456830740E0,-4.267001152E0,5.562116146E0
1.357353635E1,5.025825024E0,-7.331309319E0,1.137488079E1
1.362353635E1,3.778566122E0,-1.180828094E1,1.048654556E1
1.367353635E1,2.236690998E0,-8.875576973E0,1.065434170E1
1.372353635E1,9.942178130E-1,-7.068099022E0,7.086942673E0
1.377353635E1,8.144569993E-1,-1.860718727E0,1.451246977E0
1.382353635E1,-1.447956800E0,9.379864931E-1,5.562116146E0
1.387353635E1,1.808076620E0,-3.287738323E0,6.368796349E0
1.392353635E1,1.532902002E0,-2.374876440E-1,7.946564198E0
1.397353635E1,2.411366940E0,-1.638186216E0,7.762316704E0
1.402353635E1,2.518445849E-1,-3.249453068E0,7.632805347E0
1.407353635E1,5.656034350E-1,-3.218346357E0,5.643472195E0
1.412353635E1,8.240283132E-1,-3.888635874E0,7.067800045E0
1.417353635E1,1.173679471E0,-6.076872349E0,6.991229534E0
1.422353635E1,9.535398483E-1,-1.110449123E1,7.539484978E0
1.427353635E1,3.318845034E0,-8.616853714E0,8.607281685E0
1.432353635E1,1.066002488E0,-1.247139168E1,6.811768055E0
1.437353635E1,2.279163599E-1,-8.480463028E0,6.888338089E0
1.442353635E1,1.149751306E0,-6.677769661E0,5.446961880E0
1.447353635E1,4.387838542E-1,-9.636794090E0,5.921039581E0
1.452353635E1,1.183250785E0,-9.423832893E0,5.547759533E0
1.457353635E1,2.136192322E0,-8.126026154E0,7.391129971E0
1.462353635E1,3.187239647E0,-7.922635555E0,7.520342350E0
1.467353635E1,3.076870918E0,-7.436593533E0,6.304190159E0
1.472353635E1,2.959622622E0,-6.921837807E0,8.947361946E0
1.477353635E1,3.021835804E0,-8.837292671E0,8.753244400E0
1.482353635E1,2.083550215E0,-5.042574406E0,7.675876141E0
1.487353635E1,1.686042666E0,-3.007478952E0,6.495615959E0
1.492353635E1,-5.285146832E-1,-1.669292927E0,6.040979862E0
1.497353635E1,-3.107678294E-1,-2.181656122E0,7.604091167E0
1.502353635E1,2.356332064E0,7.127620578E-1,6.704091072E0
1.507353635E1,8.551349640E-1,-9.942178130E-1,6.531508446E0
1.512353635E1,1.307677627E0,-3.495913982E0,6.672984123E0
1.517353635E1,5.344967842E-1,-2.277369022E0,5.648257732E0
1.522353635E1,9.463613629E-1,-2.940479994E0,7.891529083E0
1.527353635E1,1.362712502E0,-9.509974480E0,8.332107544E0
1.532353635E1,7.570292354E-1,-1.290718460E1,7.738388538E0
1.537353635E1,1.266999602E0,-8.540283203E0,8.027919769E0
1.542353635E1,1.362712502E0,-1.014915752E1,6.632306099E0
1.547353635E1,1.020538807E0,-7.144669533E0,7.333702087E0
1.552353635E1,1.683649778E0,-9.842875481E0,5.849255085E0
1.557353635E1,-2.102692872E-1,-8.968897820E0,5.676971912E0
1.562353635E1,1.317248821E0,-8.368000031E0,7.211668491E0
1.567353635E1,4.044169426E0,-1.012762165E1,8.006384850E0
1.572353635E1,1.590329766E0,-7.072884560E0,6.009573936E0
1.577353635E1,2.435295343E0,-5.121537685E0,7.956135273E0
1.582353635E1,4.065704823E0,-8.839685440E0,9.172286987E0
1.587353635E1,1.516152263E0,-5.080859661E0,6.364010811E0
1.592353635E1,2.509472847E0,-4.125525475E0,9.174679756E0
1.597353635E1,7.187440991E-1,-6.505486488E0,8.461319923E0
1.602353635E1,-1.429711580E-1,-1.331605792E0,4.405784607E0
1.607353635E1,5.129613280E-1,-4.962115884E-1,7.216454029E0
1.612353635E1,4.052843451E-1,3.275175989E-1,4.848456860E0
1.617353635E1,1.345962763E0,-1.839183331E0,7.192525864E0
1.622353635E1,1.827219248E0,-2.057229280E0,8.032705307E0
1.627353635E1,1.269392371E0,-2.456830740E0,7.666304588E0
1.632353635E1,1.410568953E0,-7.027420998E0,8.197810173E0
1.637353635E1,6.756733060E-1,-1.071416283E1,7.381558895E0
1.642353635E1,1.415354609E0,-8.592925072E0,8.221738815E0
1.647353635E1,1.420140266E0,-1.063041401E1,7.302595615E0
1.652353635E1,7.402794957E-1,-9.409476280E0,6.845267296E0
1.657353635E1,1.226321578E0,-7.324131012E0,6.579364777E0
1.662353635E1,1.803290963E0,-1.159053421E1,7.039085865E0
1.667353635E1,6.828517914E-1,-7.027420998E0,5.344070435E0
1.672353635E1,2.049751759E0,-7.465307713E0,7.455736160E0
1.677353635E1,2.921337366E0,-7.874779224E0,6.828517437E0
1.682353635E1,1.034895778E0,-6.795018196E0,6.459723949E0
1.687353635E1,3.620340586E0,-1.010369396E1,1.081226826E1
1.692353635E1,2.818445921E0,-5.918945789E0,7.257132053E0
1.697353635E1,1.949253201E0,-6.476772785E0,7.755138397E0
1.702353635E1,4.459623098E-1,-4.582853794E0,7.017550468E0
1.707353635E1,-1.070788130E-1,-1.238285661E0,5.727221012E0
1.712353635E1,5.440680385E-1,-7.689933777E-1,7.304988384E0
1.717353635E1,-2.093719877E-2,-1.109073281E0,6.349654198E0
1.722353635E1,7.187440991E-1,-8.602197170E-1,5.298606873E0
1.727353635E1,1.659721613E0,-1.913360834E0,6.493223190E0
1.732353635E1,1.743470430E0,-2.780160904E0,9.107681274E0
1.737353635E1,4.938187599E-1,-6.852446079E0,5.586044312E0
1.742353635E1,-4.280161560E-1,-8.633603096E0,5.040181637E0
1.747353635E1,1.977967024E0,-7.572984695E0,7.391129971E0
1.752353635E1,3.086441994E0,-1.154267693E1,8.540283203E0
1.757353635E1,2.011466503E0,-9.919445992E0,7.170990467E0
1.762353635E1,1.144965649E0,-7.996813297E0,7.769495010E0
1.767353635E1,1.025324464E0,-9.371191025E0,6.594020844E0
1.772353635E1,1.305284739E0,-8.485248566E0,6.332904339E0
1.777353635E1,2.353939295E0,-9.727721214E0,6.323332787E0
1.782353635E1,1.894218206E0,-9.114859581E0,8.801100731E0
1.787353635E1,2.997907639E0,-7.721638680E0,7.561020374E0
1.792353635E1,2.914158821E0,-6.273083687E0,5.281857014E0
1.797353635E1,1.312463164E0,-4.235894203E0,7.491628647E0
1.802353635E1,2.229512453E0,-4.257429600E0,9.414261818E0
1.807353635E1,3.364308596E0,-6.206084728E0,8.322536469E0
1.812353635E1,4.290630341E0,-5.033003330E0,8.458927155E0
1.817353635E1,8.335995674E-1,-2.550449848E0,5.887540340E0
1.822353635E1,1.171286702E0,-8.312067389E-1,5.466403484E0
1.827353635E1,3.741776347E-1,-1.276570916E0,7.046264648E0
1.832353635E1,1.728814393E-1,-1.166501045E0,7.257132053E0
1.837353635E1,2.940479994E0,-1.827219248E0,9.239286423E0
1.842353635E1,4.336392879E0,-3.460021496E0,7.221239567E0
1.847353635E1,3.237488985E0,-4.331607342E0,6.328118801E0
1.852353635E1,2.533401012E0,-3.153740168E0,5.887540340E0
1.857353635E1,3.119941711E0,-5.880361557E0,7.070192814E0
1.862353635E1,6.785446644E0,-1.174367428E1,8.451748848E0
1.867353635E1,3.692125320E0,-1.146341515E1,7.369594574E0
1.872353635E1,1.631007791E0,-9.768399239E0,7.316952705E0
1.877353635E1,4.779065132E0,-7.436593533E0,5.384748459E0
1.882353635E1,3.507878065E0,-6.821339130E0,5.121537685E0
1.887353635E1,5.312963486E0,-5.519045353E0,4.779065132E0
1.892353635E1,4.769493580E0,-6.964908600E0,9.138788223E0
1.897353635E1,5.624329567E0,-7.161418915E0,8.092526436E0
1.902353635E1,5.483152866E0,-9.770792007E0,7.893921852E0
1.907353635E1,6.292226315E0,-5.040181637E0,9.694221497E0
1.912353635E1,2.483151674E0,-3.529413462E0,7.285845757E0
1.917353635E1,2.940479994E0,-4.721637249E0,6.153442383E0
1.922353635E1,3.457628727E0,-3.440878868E0,7.814958572E0
1.927353635E1,4.331607342E0,-2.215155602E0,7.774280548E0
1.932353635E1,3.661018610E0,-4.803292274E0,7.348059177E0
1.937353635E1,6.373881102E-1,-3.071786165E-1,4.463212490E0
1.942353635E1,-1.407278776E0,-3.170489892E-2,3.098406315E0
1.947353635E1,1.453639746E0,-9.990034699E-1,5.645864964E0
1.952353635E1,2.804089069E0,-4.818546474E-1,1.032383347E1
1.957353635E1,3.981956005E0,-5.648257732E0,8.877969742E0
1.962353635E1,1.142572761E0,-5.459224701E0,7.697411537E0
1.967353635E1,3.024228811E0,-4.283750534E0,5.138287544E0
1.972353635E1,5.121537685E0,-7.910671711E0,9.179466248E0
1.977353635E1,5.954539299E0,-6.462415695E0,6.986443996E0
1.982353635E1,4.733601570E0,-5.710471153E0,6.208477497E0
1.987353635E1,5.131109238E0,-9.701400757E0,8.899505615E0
1.992353635E1,9.011968613E0,-9.177073479E0,7.869993687E0
1.997353635E1,6.967301369E0,-8.451748848E0,7.984848976E0
2.002353635E1,2.710768938E0,-6.783053875E0,4.518247128E0
2.007353635E1,2.682054996E0,-1.918146491E0,3.522234917E0
2.012353635E1,2.523829699E0,-3.962813377E0,6.509973049E0
2.017353635E1,1.187049389E1,-7.999206066E0,1.472662735E1
2.022353635E1,4.467998028E0,-7.276274681E0,8.712566376E0
2.027353635E1,6.206084728E0,-6.483951092E0,8.961718559E0
2.032353635E1,3.172583818E0,-3.733102322E0,4.869992256E0
2.037353635E1,2.422732860E-1,-1.772184253E0,5.320142269E0
2.042353635E1,4.028915167E-1,-1.676471353E0,5.887540340E0
2.047353635E1,2.248655081E0,-2.832503915E-1,9.498010635E0
2.052353635E1,5.727819204E-1,-8.383852243E-1,6.708876610E0
2.057353635E1,1.176072359E0,-4.339981973E-1,6.100800514E0
2.062353635E1,7.809575200E-1,1.118644550E-1,6.340082645E0
2.067353635E1,3.369094372E0,-3.158525944E0,6.117550373E0
2.072353635E1,4.750350952E0,-6.088836193E0,7.929814339E0
2.077353635E1,3.857529163E0,-7.661818027E0,8.013563156E0
2.082353635E1,3.708875179E0,-7.838887215E0,5.224429131E0
2.087353635E1,3.242274761E0,-6.052944183E0,5.504688263E0
2.092353635E1,4.604389191E0,-8.097311974E0,8.645566940E0
2.097353635E1,7.240382195E0,-1.112602711E1,9.397511482E0
2.102353635E1,6.890730858E0,-8.899505615E0,9.248857498E0
2.107353635E1,2.468794823E0,-8.918647766E0,5.451747417E0
2.112353635E1,2.789732218E0,-7.355237484E0,5.439783096E0
2.117353635E1,5.432903767E0,-5.976373672E0,5.394319534E0
2.122353635E1,5.732006550E0,-6.308976173E0,7.173383236E0
2.127353635E1,6.414260387E0,-6.541378975E0,8.490034103E0
2.132353635E1,4.853242397E0,-6.524629116E0,6.464509487E0
2.137353635E1,4.202095509E0,-4.331607342E0,7.639983654E0
2.142353635E1,4.355535507E0,-4.685744762E0,8.243273735E0
2.147353635E1,3.038585663E0,-3.381058455E0,7.807780266E0
2.152353635E1,1.020538807E0,-2.088335991E0,7.867600918E0
2.157353635E1,-3.059822023E-1,-4.076771438E-1,5.344070435E0
2.162353635E1,1.712363720E0,-4.579264224E-1,5.021039009E0
2.167353635E1,1.879861236E0,1.214357466E-1,7.441379547E0
2.172353635E1,2.157727718E0,-3.488735437E0,7.154240608E0
2.177353635E1,3.359523058E0,-2.136192322E0,8.676673889E0
2.182353635E1,3.845565081E0,-5.351547718E0,7.498806953E0
2.187353635E1,3.093620539E0,-8.411070824E0,7.438986301E0
2.192353635E1,4.944468975E0,-6.644270420E0,5.789434433E0
2.197353635E1,3.462414265E0,-8.468498230E0,7.034300327E0
2.202353635E1,4.446462631E0,-9.938589096E0,8.379963875E0
2.207353635E1,3.505485058E0,-1.003430176E1,7.434200764E0
2.212353635E1,3.223132133E0,-8.700901031E0,5.799005508E0
2.217353635E1,3.148655415E0,-5.902195930E0,5.214858055E0
2.222353635E1,3.759423494E0,-7.733603001E0,5.868397713E0
2.227353635E1,5.916254044E0,-7.810173035E0,7.247560501E0
2.232353635E1,3.924528122E0,-6.682555676E0,7.074978352E0
2.237353635E1,5.442475319E0,-6.313761711E0,7.424629688E0
2.242353635E1,5.300999641E0,-6.548557281E0,6.091228962E0
2.247353635E1,4.802993298E0,-6.433403015E0,1.061844921E1
2.252353635E1,2.914158821E0,-4.580460548E0,7.613662720E0
2.257353635E1,1.925324917E0,-2.560021162E0,5.502295494E0
2.262353635E1,-1.440778375E0,-1.506580949E0,4.776672363E0
2.267353635E1,1.650150299E0,1.076770186E0,6.909873486E0
2.272353635E1,3.251846075E0,-1.006181955E0,6.821339130E0
2.277353635E1,2.361117840E0,-3.493520975E0,7.858029366E0
2.282353635E1,1.858325839E0,-1.379462242E0,4.783850670E0
2.287353635E1,1.180858016E0,-2.930908680E0,8.365607262E0
2.292353635E1,5.676971912E0,-8.406285286E0,7.199704170E0
2.297353635E1,4.273880482E0,-1.136530972E1,6.613163471E0
2.302353635E1,3.038585663E0,-8.930612564E0,7.199704170E0
2.307353635E1,4.872684002E0,-8.882756233E0,6.040979862E0
2.312353635E1,2.313261271E0,-8.451748848E0,7.637590885E0
2.317353635E1,4.867898464E0,-9.818648338E0,7.257132053E0
2.322353635E1,3.172583818E0,-8.080561638E0,5.861218929E0
2.327353635E1,4.077668667E0,-7.175776005E0,5.858826160E0
2.332353635E1,4.735994339E0,-6.258726597E0,6.189334869E0
2.337353635E1,5.547759533E0,-7.491628647E0,8.202595711E0
2.342353635E1,7.582555771E0,-8.296215057E0,9.311071396E0
2.347353635E1,3.055335522E0,-7.115955353E0,5.222036362E0
2.352353635E1,3.321237803E0,-3.795315742E0,6.759125710E0
2.357353635E1,2.425724030E0,-3.438486099E0,7.103692055E0
2.362353635E1,2.397010088E0,-3.625126362E0,8.391927719E0
2.367353635E1,9.101698995E-1,-1.513460279E-1,7.098906517E0
2.372353635E1,4.818546474E-1,-4.531407952E-1,5.964110374E0
2.377353635E1,3.308077157E-1,-1.990230203E0,6.459723949E0
2.382353635E1,1.595115423E0,-6.565307379E-1,4.020241261E0
2.387353635E1,8.312067389E-1,-1.573580027E0,6.730412006E0
2.392353635E1,4.147060871E0,-5.119144917E0,9.112466812E0
2.397353635E1,5.581258774E0,-1.055623627E1,7.616055489E0
2.402353635E1,3.831208229E0,-1.005823040E1,7.616055489E0
2.407353635E1,4.360321045E0,-7.925028801E0,7.379166126E0
2.412353635E1,2.277369022E0,-8.164609909E0,6.069693565E0
2.417353635E1,4.479962349E0,-7.096812725E0,8.693424225E0
2.422353635E1,4.822135925E0,-1.035494041E1,6.917052269E0
2.427353635E1,2.533401012E0,-8.822935104E0,6.011966705E0
2.432353635E1,4.096811295E0,-8.205287933E0,6.601199627E0
2.437353635E1,5.411069393E0,-6.191727638E0,6.251548290E0
2.442353635E1,4.491926193E0,-7.168597698E0,6.694519520E0
2.447353635E1,5.942574978E0,-6.036194324E0,8.372785568E0
2.452353635E1,4.819743156E0,-5.813362598E0,7.848458290E0
2.457353635E1,3.488735437E0,-5.576473236E0,7.240382195E0
2.462353635E1,2.337189436E0,-4.836791992E0,8.887541771E0
2.467353635E1,2.105085611E0,-1.415653706E0,5.042574406E0
2.472353635E1,-7.486543655E-1,-6.281159073E-2,4.755136967E0
2.477353635E1,1.899003863E0,-4.627120793E-1,5.092823982E0
2.482353635E1,3.837489188E-1,-1.207179070E0,5.614758492E0
2.487353635E1,2.325225353E0,-1.403689623E0,6.799803734E0
2.492353635E1,2.569293261E0,-4.041776657E0,5.691328526E0
2.497353635E1,1.980359793E0,-7.977670670E0,7.925028801E0
2.502353635E1,5.315356255E0,-8.736793518E0,8.142775536E0
2.507353635E1,4.087240219E0,-9.818648338E0,7.817351341E0
2.512353635E1,2.454437733E0,-9.507581711E0,7.525127888E0
2.517353635E1,3.586841106E0,-6.476772785E0,6.646663189E0
2.522353635E1,5.377569675E0,-1.191356468E1,9.023932457E0
2.527353635E1,2.471187592E0,-9.816255569E0,5.243571758E0
2.532353635E1,2.310868502E0,-6.981658459E0,5.995217323E0
2.537353635E1,3.752244949E0,-6.203691959E0,5.308177948E0
2.542353635E1,4.887041092E0,-6.672984123E0,6.387938976E0
2.547353635E1,6.208477497E0,-6.984051228E0,8.327322006E0
2.552353635E1,5.720042706E0,-8.566604614E0,9.569794655E0
2.557353635E1,3.538984776E0,-7.271489143E0,6.950551510E0
2.562353635E1,2.885445118E0,-3.364308596E0,6.131906986E0
2.567353635E1,1.674078584E0,-3.337987661E0,6.589235306E0
2.572353635E1,-3.777668774E-1,-1.386640668E0,2.899801970E0
2.577353635E1,1.518545032E0,1.573280841E-1,6.452545166E0
2.582353635E1,1.743470430E0,-1.331605792E0,6.277869225E0
2.587353635E1,2.406581402E0,-6.397809386E-1,9.215357780E0
2.592353635E1,2.258226395E0,-3.998705626E0,6.411867142E0
2.597353635E1,1.307677627E0,-5.478367329E0,6.069693565E0
2.602353635E1,2.497508526E0,-8.176573753E0,6.584449768E0
2.607353635E1,5.911468506E0,-1.034776115E1,8.250452042E0
2.612353635E1,2.004287958E0,-1.057298565E1,7.333702087E0
2.617353635E1,4.920540810E0,-7.791030407E0,8.099704742E0
2.622353635E1,3.309273720E0,-8.480463028E0,6.931408882E0
2.627353635E1,2.586043119E0,-1.091994476E1,5.825326920E0
2.632353635E1,2.859123945E0,-7.685746193E0,5.322535038E0
2.637353635E1,4.240380764E0,-7.649854183E0,6.478866577E0
2.642353635E1,3.941277981E0,-6.962515831E0,6.375975132E0
2.647353635E1,5.236393452E0,-6.701697826E0,7.288238525E0
2.652353635E1,6.543472767E0,-8.035098076E0,8.885149002E0
2.657353635E1,4.487140656E0,-5.164608479E0,7.204489708E0
2.662353635E1,3.761816263E0,-5.942873955E0,7.582555771E0
2.667353635E1,1.552044630E0,-3.251846075E0,7.221239567E0
2.672353635E1,1.073180914E0,-1.666900039E0,5.820540905E0
2.677353635E1,1.233500123E0,-7.067800164E-1,6.543472767E0
2.682353635E1,6.924230456E-1,-5.847460628E-1,4.393820763E0
2.687353635E1,1.310070395E0,-1.470688581E0,4.458426952E0
2.692353635E1,3.021835804E0,-1.331605792E0,8.159524918E0
2.697353635E1,3.680161238E0,-4.676173687E0,7.580163002E0
2.702353635E1,1.853540182E0,-9.093324661E0,7.431807995E0
2.707353635E1,4.305285931E0,-8.604888916E0,7.913064480E0
2.712353635E1,4.688137531E0,-9.217751503E0,7.185347080E0
2.717353635E1,3.816851139E0,-8.604888916E0,7.517949581E0
2.722353635E1,2.868695259E0,-8.368000031E0,6.684948444E0
2.727353635E1,4.479962349E0,-9.052646637E0,7.642376423E0
2.732353635E1,3.163012505E0,-7.367201805E0,6.289833546E0
2.737353635E1,1.369890928E0,-9.457332611E0,5.267499924E0
2.742353635E1,7.163811684E0,-7.211668491E0,7.443772316E0
2.747353635E1,3.974777460E0,-9.107681274E0,7.285845757E0
2.752353635E1,4.194917202E0,-6.512664795E0,6.716054916E0
2.757353635E1,3.438486099E0,-7.182954311E0,7.046264648E0
2.762353635E1,4.779065132E0,-4.034597874E0,7.917850018E0
2.767353635E1,2.205584288E0,-5.123930454E0,7.216454029E0
2.772353635E1,1.039681435E0,-1.743470430E0,8.372785568E0
2.777353635E1,5.751747489E-1,4.351946115E-1,6.462116718E0
2.782353635E1,1.609472275E0,1.136590727E-2,2.650649309E0
2.787353635E1,2.255235314E-1,-1.362712502E0,5.195715427E0
2.792353635E1,3.672982693E0,-2.741875648E0,6.708876610E0
2.797353635E1,3.055335522E0,-4.951647282E0,8.308178902E0
2.802353635E1,2.557329178E0,-7.956135273E0,7.687839985E0
2.807353635E1,2.627020121E0,-1.102313614E1,5.186143875E0
2.812353635E1,3.268595695E0,-7.161418915E0,9.062217712E0
2.817353635E1,6.821339130E0,-8.664710045E0,6.897909641E0
2.822353635E1,5.392823815E-1,-8.075776100E0,8.018348694E0
2.827353635E1,5.016253471E0,-8.978468895E0,7.829315662E0
2.832353635E1,3.883850336E0,-9.761220932E0,7.010372162E0
2.837353635E1,2.200798512E0,-1.039352417E1,5.542973518E0
2.842353635E1,3.749852180E0,-6.206084728E0,5.281857014E0
2.847353635E1,3.725624800E0,-6.531807423E0,6.802196503E0
2.852353635E1,6.955337048E0,-7.068099022E0,7.848458290E0
2.857353635E1,3.412165165E0,-6.234798431E0,8.415856361E0
2.862353635E1,4.616353035E0,-5.059324265E0,7.733603001E0
2.867353635E1,2.392224550E0,-4.997110844E0,7.192525864E0
2.872353635E1,1.178465128E0,-5.560321808E-1,7.170990467E0
2.877353635E1,-7.031907439E-1,-4.316053987E-1,3.529413462E0
2.882353635E1,7.713862062E-1,-5.799604058E-1,5.691328526E0
2.887353635E1,1.578365684E0,-1.482652783E0,4.285844326E0
2.892353635E1,2.327618122E0,-2.435295343E0,7.553842068E0
2.897353635E1,4.032205105E0,-3.321237803E0,8.197810173E0
2.902353635E1,2.057229280E0,-9.110074043E0,5.980860233E0
2.907353635E1,3.883850336E0,-1.106620693E1,7.948956966E0
2.912353635E1,4.228416920E0,-8.238787651E0,7.034300327E0
2.917353635E1,2.923730135E0,-6.505486488E0,5.329713345E0
2.922353635E1,1.882254124E0,-1.135573769E1,8.286643982E0
2.927353635E1,5.657829285E0,-8.571390152E0,8.267500877E0
2.932353635E1,2.816053152E0,-7.743174076E0,6.165406704E0
2.937353635E1,2.083550215E0,-8.868398666E0,4.254737854E0
2.942353635E1,2.528615236E0,-6.467201233E0,6.502794743E0
2.947353635E1,8.734101295E0,-7.814958572E0,1.006062317E1
2.952353635E1,2.631805897E0,-8.940183640E0,6.476473808E0
2.957353635E1,3.981956005E0,-6.921837807E0,8.580961227E0
2.962353635E1,3.864707708E0,-3.601198196E0,6.842874527E0
2.967353635E1,1.774577141E0,-3.891028643E0,7.182954311E0
2.972353635E1,3.092723191E-1,-4.818546474E-1,4.384249210E0
2.977353635E1,1.188036442E0,-4.435695112E-1,7.865208149E0
2.982353635E1,1.504188180E0,-1.728814393E-1,4.350749969E0
2.987353635E1,1.147358418E0,-2.705983400E0,5.396712303E0
2.992353635E1,2.322832584E0,-2.430509567E0,7.470093250E0
2.997353635E1,2.990729094E0,-4.534996986E0,6.332904339E0
3.002353635E1,3.043371201E0,-8.238787651E0,7.786244869E0
3.007353635E1,2.466402054E0,-1.065434170E1,4.625924587E0
3.012353635E1,3.622733593E0,-8.964112282E0,1.174606705E1
3.017353635E1,7.628019333E0,-1.238046455E1,9.119645119E0
3.022353635E1,1.812862277E0,-7.036992073E0,7.680661678E0
3.027353635E1,2.339582443E0,-1.013001442E1,7.180561543E0
3.032353635E1,2.765803814E0,-8.202895164E0,5.703292847E0
3.037353635E1,3.232703447E0,-7.539484978E0,5.873183250E0
3.042353635E1,4.585246563E0,-8.094919205E0,6.615556240E0
3.047353635E1,4.415356159E0,-6.586842537E0,6.617949009E0
3.052353635E1,4.826921463E0,-7.304988384E0,8.542675972E0
3.057353635E1,3.555734396E0,-6.435795784E0,7.470093250E0
3.062353635E1,3.538984776E0,-5.009075165E0,7.759923935E0
3.067353635E1,2.289333105E0,-2.239083767E0,6.637091637E0
3.072353635E1,8.407780528E-1,-1.444367528E0,5.478367329E0
3.077353635E1,1.571187139E0,6.314060688E-1,6.509973049E0
3.082353635E1,6.732804775E-1,-1.616650820E0,6.289833546E0
3.087353635E1,2.593221426E0,3.768695518E-2,3.931706667E0
3.092353635E1,3.112763166E0,-3.424129248E0,5.942574978E0
3.097353635E1,3.208775282E0,-6.859624386E0,9.770792007E0
3.102353635E1,2.001895189E0,-8.633603096E0,6.091228962E0
3.107353635E1,2.875873804E0,-9.215357780E0,6.402296066E0
3.112353635E1,3.364308596E0,-9.047860146E0,8.825029373E0
3.117353635E1,7.982456207E0,-1.061605644E1,9.742077827E0
3.122353635E1,1.547258973E0,-9.466903687E0,7.055835724E0
3.127353635E1,2.334796667E0,-8.210073471E0,4.922933578E0
3.132353635E1,2.875873804E0,-8.866005898E0,6.198905945E0
3.137353635E1,2.521436930E0,-7.194918633E0,5.011467934E0
3.142353635E1,4.590032101E0,-6.670591354E0,7.424629688E0
3.147353635E1,8.262715340E0,-8.480463028E0,7.541877747E0
3.152353635E1,3.285345554E0,-4.944468975E0,9.720542908E0
3.157353635E1,3.943670750E0,-8.494819641E0,6.799803734E0
3.162353635E1,2.528615236E0,-4.829613209E0,7.743174076E0
3.167353635E1,2.655734062E0,-2.440080881E0,4.989932537E0
3.172353635E1,-6.984050870E-1,-6.613163352E-1,5.253142834E0
3.177353635E1,5.895316601E-1,7.606185079E-1,5.444568634E0
3.182353635E1,8.096713424E-1,-1.257428288E0,5.763113499E0
3.187353635E1,3.802494287E0,-2.887837887E0,8.118846893E0
3.192353635E1,2.940479994E0,-4.305285931E0,7.879564762E0
3.197353635E1,2.076371908E0,-5.219643593E0,5.810969830E0
3.202353635E1,1.484746456E0,-8.222037315E0,5.080859661E0
3.207353635E1,4.379463673E0,-9.332905769E0,7.891529083E0
3.212353635E1,4.441677094E0,-1.397019577E1,9.349356651E0
3.217353635E1,4.233202457E0,-9.193822861E0,8.310571671E0
3.222353635E1,4.329214573E0,-6.306583405E0,7.393522739E0
3.227353635E1,2.057229280E0,-7.362416267E0,5.751149178E0
3.232353635E1,1.753041744E0,-1.050598717E1,5.186143875E0
3.237353635E1,5.533402443E0,-9.648757935E0,8.274680138E0
3.242353635E1,4.745565414E0,-7.180561543E0,6.093621731E0
3.247353635E1,2.150549412E0,-5.705685616E0,4.333701134E0
3.252353635E1,3.843172312E0,-4.812863827E0,7.534699440E0
3.257353635E1,6.828517437E0,-7.173383236E0,9.541081429E0
3.262353635E1,3.483949661E0,-6.435795784E0,9.313464165E0
3.267353635E1,1.951645970E0,-5.564508915E0,7.941778183E0
3.272353635E1,-4.519443810E-1,1.524527073E0,2.978765011E0
3.277353635E1,-4.184448719E-1,5.763711333E-1,4.003491402E0
3.282353635E1,2.263011932E0,-2.490330219E0,5.212464809E0
3.287353635E1,2.863909483E0,-1.154536963E0,9.375677109E0
3.292353635E1,3.052942514E0,-4.925326347E0,9.337391853E0
3.297353635E1,1.607079506E0,-8.787042618E0,4.664209366E0
3.302353635E1,2.641377211E0,-5.171787262E0,5.923432350E0
3.307353635E1,6.074479580E0,-5.257928848E0,9.057432175E0
3.312353635E1,3.029014349E0,-1.494945812E1,5.109573841E0
3.317353635E1,2.521436930E0,-9.797113419E0,1.041715336E1
3.322353635E1,5.217250824E0,-1.118584728E1,7.494021416E0
3.327353635E1,1.345962763E0,-6.821339130E0,3.816851139E0
3.332353635E1,-9.750752151E-2,-4.865505695E0,3.247060299E0
3.337353635E1,3.129513025E0,-7.771887779E0,5.748756409E0
3.342353635E1,6.847660065E0,-7.281060219E0,9.217751503E0
3.347353635E1,6.603592396E0,-9.498010635E0,8.956933022E0
3.352353635E1,2.310868502E0,-9.086145401E0,6.512365818E0
3.357353635E1,6.067300797E0,-5.167001247E0,9.318249702E0
3.362353635E1,2.229512453E0,-4.039383888E0,5.097609520E0
3.367353635E1,1.312463164E0,-4.348356724E0,3.649054527E0
3.372353635E1,-2.868396044E-1,-8.192426562E-1,7.874779224E0
3.377353635E1,3.220739365E0,1.094716340E-1,5.995217323E0
3.382353635E1,8.910273314E-1,-1.274178028E0,6.668198586E0
3.387353635E1,8.431708813E-1,-3.225524902E0,7.489235878E0
3.392353635E1,2.593221426E0,-7.809575200E-1,4.123132706E0
3.397353635E1,1.030110121E0,-2.002194405E0,4.958825588E0
3.402353635E1,4.408177376E0,-5.995516300E0,5.621936798E0
3.407353635E1,2.404188633E0,-1.048923683E1,7.860422611E0
3.412353635E1,7.228417873E0,-1.465005684E1,1.224407387E1
3.417353635E1,3.074477911E0,-1.235414314E1,6.423831463E0
3.422353635E1,4.842474759E-1,-3.745066643E0,5.621936798E0
3.427353635E1,3.263810158E0,-5.363512039E0,4.846064091E0
3.432353635E1,1.269392371E0,-7.826922894E0,5.071288586E0
3.437353635E1,5.770291805E0,-1.075723362E1,8.904291153E0
3.442353635E1,4.300500393E0,-1.166710377E1,6.842874527E0
3.447353635E1,2.978765011E0,-7.613961697E0,6.299404621E0
3.452353635E1,5.267499924E0,-5.090431213E0,6.011966705E0
3.457353635E1,4.151846409E0,-5.638686657E0,6.811768055E0
3.462353635E1,4.247559071E0,-3.917349815E0,7.326523781E0
3.467353635E1,3.069692373E0,-4.860720158E0,8.714959145E0
3.472353635E1,2.255833626E0,-7.314559937E0,1.095344448E1
3.477353635E1,1.698006749E0,-2.617448807E0,5.968895912E0
3.482353635E1,-6.409773827E-1,1.143769264E0,4.139882088E0
3.487353635E1,3.188436031E-1,-5.084748194E-2,1.930110574E0
3.492353635E1,2.733799815E-1,-1.640578985E0,4.652245522E0
3.497353635E1,5.578866005E0,-4.946861744E0,1.046022415E1
3.502353635E1,4.843671322E0,-5.806184292E0,1.123849010E1
3.507353635E1,1.214357495E0,-1.069262695E1,5.978467464E0
3.512353635E1,3.143869877E0,-7.314559937E0,4.144668102E0
3.517353635E1,2.277369022E0,-5.286642551E0,6.423831463E0
3.522353635E1,9.095717430E0,-1.553599930E1,1.075005436E1
3.527353635E1,8.958129883E-1,-7.575377464E0,5.531009674E0
3.532353635E1,6.421737671E-1,-1.295743370E1,6.373582363E0
3.537353635E1,3.912564039E0,-6.462415695E0,5.554937840E0
3.542353635E1,2.358724833E0,-6.038587093E0,6.531508446E0
3.547353635E1,4.779065132E0,-7.702496052E0,5.619544029E0
3.552353635E1,2.720340252E0,-6.814160824E0,7.278667450E0
3.557353635E1,1.097976589E1,-7.374380112E0,1.323260880E1
3.562353635E1,3.649054527E0,-7.072884560E0,7.381558895E0
3.567353635E1,3.115155935E0,-7.379166126E0,7.537092209E0
3.572353635E1,-1.238285750E-1,-1.853540182E0,3.014657497E0
3.577353635E1,7.716853172E-2,2.769692242E-1,4.989932537E0
3.582353635E1,1.097109199E0,-3.358924687E-1,5.894718647E0
3.587353635E1,1.647757530E0,-7.570292354E-1,7.812565804E0
3.592353635E1,2.100300074E0,-2.188834429E0,7.108478069E0
3.597353635E1,2.607578516E0,-2.856731176E0,7.460521698E0
3.602353635E1,1.975574136E0,-5.116752148E0,5.164608479E0
3.607353635E1,9.870393276E-1,-9.464510918E0,7.259524822E0
3.612353635E1,4.645066738E0,-1.083141041E1,8.013563156E0
3.617353635E1,2.672483683E0,-1.020897770E1,9.459725380E0
3.622353635E1,4.747958183E0,-8.748757362E0,7.340880871E0
3.627353635E1,1.173679471E0,-6.330511570E0,6.931408882E0
3.632353635E1,6.656234264E0,-1.256471157E1,8.758029938E0
3.637353635E1,9.870393276E-1,-1.050120163E1,4.848456860E0
3.642353635E1,2.081157446E0,-7.036992073E0,5.538187981E0
3.647353635E1,4.668995380E0,-6.495915413E0,6.545865536E0
3.652353635E1,3.026621580E0,-5.720042706E0,5.519045353E0
3.657353635E1,5.775077343E0,-8.303393364E0,1.089123154E1
3.662353635E1,5.183751106E0,-7.216454029E0,9.308678627E0
3.667353635E1,3.886243105E0,-5.344369411E0,8.097311974E0
3.672353635E1,-3.768695518E-2,-1.676471353E0,4.254737854E0
3.677353635E1,-7.319046259E-1,-4.890331328E-1,4.846064091E0
3.682353635E1,1.776670814E-1,2.530409992E-1,3.656233072E0
3.687353635E1,1.846361756E0,-1.712363720E0,7.934599876E0
3.692353635E1,2.085943222E0,-1.894218206E0,7.154240608E0
3.697353635E1,1.477568030E0,-1.980658889E0,6.148656845E0
3.702353635E1,1.583151340E0,-5.593223095E0,6.481259346E0
3.707353635E1,3.440878868E0,-7.132705212E0,8.262416840E0
3.712353635E1,3.064906597E0,-1.164078331E1,7.474878788E0
3.717353635E1,3.550948858E0,-1.086969566E1,8.336893082E0
3.722353635E1,3.115155935E0,-8.751151085E0,7.482057095E0
3.727353635E1,2.289333105E0,-7.618747234E0,7.144669533E0
3.732353635E1,2.526222467E0,-1.052512932E1,6.634698868E0
3.737353635E1,2.581257343E0,-9.653543472E0,5.849255085E0
3.742353635E1,2.612364054E0,-7.089634418E0,6.249155521E0
3.747353635E1,4.680959225E0,-6.622735023E0,5.588437080E0
3.752353635E1,3.795315742E0,-8.011170387E0,7.470093250E0
3.757353635E1,6.852446079E0,-5.609972477E0,1.105633640E1
3.762353635E1,2.906980515E0,-9.591330528E0,6.778268337E0
3.767353635E1,1.717149377E0,-5.662614822E0,6.582056999E0
3.772353635E1,6.421737671E-1,-1.333998680E0,6.699305058E0
3.777353635E1,1.391426325E0,-2.545664072E0,6.390331745E0
3.782353635E1,3.116651475E-1,-6.158527136E-1,5.799005508E0
3.787353635E1,2.100300074E0,1.313659668E0,6.122335911E0
3.792353635E1,1.834397674E0,-1.863111496E0,6.454938412E0
3.797353635E1,1.937289000E0,-2.435295343E0,7.819744587E0
3.802353635E1,3.696911097E0,-4.980361462E0,8.226524353E0
3.807353635E1,2.222334146E0,-9.866804123E0,7.166204929E0
3.812353635E1,2.289333105E0,-1.009172916E1,7.190133095E0
3.817353635E1,3.069692373E0,-8.659924507E0,6.649055958E0
3.822353635E1,3.158226728E0,-7.759923935E0,6.471687794E0
3.827353635E1,2.835195780E0,-1.055145073E1,7.532306671E0
3.832353635E1,2.962015390E0,-8.351249695E0,7.625626564E0
3.837353635E1,2.662912607E0,-1.063519955E1,7.479664326E0
3.842353635E1,2.016252279E0,-8.178966522E0,4.877170563E0
3.847353635E1,3.187239647E0,-7.417450905E0,5.832505226E0
3.852353635E1,5.791827202E0,-6.792625427E0,8.533104897E0
3.857353635E1,3.397808075E0,-6.586842537E0,6.878767014E0
3.862353635E1,3.981956005E0,-6.775875568E0,9.409476280E0
3.867353635E1,3.946063757E0,-5.495117188E0,7.541877747E0
3.872353635E1,1.920539260E0,-5.801398277E0,7.759923935E0
3.877353635E1,1.336391449E0,-2.035693884E0,6.210870266E0
3.882353635E1,-1.375873014E-2,4.854438901E-1,4.525425911E0
3.887353635E1,-2.629113793E-1,6.768696904E-1,3.730410576E0
3.892353635E1,1.467996716E0,-8.482556343E-1,5.408676624E0
3.897353635E1,2.990729094E0,-2.306082726E0,9.311071396E0
3.902353635E1,2.243869543E0,-5.107180595E0,7.460521698E0
3.907353635E1,1.992323995E0,-6.572485447E0,7.304988384E0
3.912353635E1,2.514258385E0,-9.145966530E0,6.019145489E0
3.917353635E1,3.302095175E0,-8.779864311E0,7.702197075E0
3.922353635E1,2.753839731E0,-7.920242786E0,8.008777618E0
3.927353635E1,3.155833960E0,-1.151396370E1,7.886743546E0
3.932353635E1,3.000300407E0,-8.952147484E0,7.618448257E0
3.937353635E1,3.155833960E0,-9.028717995E0,7.513164043E0
3.942353635E1,9.535398483E-1,-9.392725945E0,4.798207760E0
3.947353635E1,2.188834429E0,-6.273083687E0,4.702494621E0
3.952353635E1,5.332106113E0,-6.574878216E0,8.554639816E0
3.957353635E1,5.198108196E0,-8.238787651E0,7.479664326E0
3.962353635E1,3.381058455E0,-7.508378506E0,8.391927719E0
3.967353635E1,3.996312857E0,-6.993622303E0,8.504390717E0
3.972353635E1,2.554936409E0,-4.697709084E0,7.467700481E0
3.977353635E1,1.516152263E0,-7.498508096E-1,4.503890514E0
3.982353635E1,-9.619147182E-1,-1.714756489E0,6.521937370E0
3.987353635E1,9.966106415E-1,3.529413417E-2,5.968895912E0
3.992353635E1,2.069193363E0,-1.345962733E-1,7.462914944E0
3.997353635E1,1.884646893E0,-3.254238844E0,5.509474277E0
4.002353635E1,5.153541565E-1,-3.965206146E0,5.434997559E0
4.007353635E1,2.578864574E0,-3.464807272E0,7.395915508E0
4.012353635E1,3.330809116E0,-9.746864319E0,6.988836765E0
4.017353635E1,2.758625507E0,-1.169103241E1,9.256035805E0
4.022353635E1,2.296511650E0,-1.137488079E1,7.141977310E0
4.027353635E1,3.517449379E0,-9.251250267E0,7.877171993E0
4.032353635E1,2.066800594E0,-6.713662148E0,6.924230576E0
4.037353635E1,1.934896231E0,-7.106384277E0,5.746363640E0
4.042353635E1,1.796112537E0,-7.956135273E0,5.346463203E0
4.047353635E1,4.237987995E0,-9.447761536E0,9.567401886E0
4.052353635E1,6.404688835E0,-9.349655151E0,8.506783485E0
4.057353635E1,2.725125790E0,-7.338488102E0,6.423831463E0
4.062353635E1,3.692125320E0,-8.169395447E0,7.496414185E0
4.067353635E1,2.464009047E0,-2.966800928E0,5.679364681E0
4.072353635E1,3.230310678E0,-4.961218834E0,9.960124016E0
4.077353635E1,1.247856975E0,-6.115157604E0,7.190133095E0
4.082353635E1,1.333998680E0,9.643075466E-1,7.395915508E0
4.087353635E1,8.913264424E-2,-9.152546525E-1,4.518247128E0
4.092353635E1,1.058824062E0,-8.216354847E-1,5.339284420E0
4.097353635E1,1.061216831E0,-1.374676585E0,5.854040623E0
4.102353635E1,2.624627352E0,-3.883850336E0,6.828517437E0
4.107353635E1,1.951645970E0,-5.279464245E0,7.936992645E0
4.112353635E1,3.371487141E0,-7.410272598E0,7.738388538E0
4.117353635E1,1.377069473E0,-1.449691582E1,6.682555676E0
4.122353635E1,3.967599154E0,-5.777470112E0,8.827720642E0
4.127353635E1,4.130311012E0,-1.096092224E1,5.822933674E0
4.132353635E1,2.105085611E0,-8.741579056E0,8.418249130E0
4.137353635E1,3.788137436E0,-8.655138969E0,6.335297108E0
4.142353635E1,1.896611094E0,-1.025683403E1,6.651448727E0
4.147353635E1,2.634198666E0,-6.395117760E0,5.674578667E0
4.152353635E1,4.721637249E0,-8.341678619E0,8.255238533E0
4.157353635E1,4.829314232E0,-7.692924976E0,6.885945320E0
4.162353635E1,3.091227770E0,-6.718447685E0,7.398308277E0
4.167353635E1,4.867898464E0,-7.249953270E0,8.260024071E0
4.172353635E1,3.371487141E0,-5.262714386E0,7.391129971E0
4.177353635E1,7.881359458E-1,-3.141776085E0,6.699305058E0
4.182353635E1,2.015953064E-1,-2.322832584E0,4.048954964E0
4.187353635E1,1.360319614E0,1.830808401E0,4.795814991E0
4.192353635E1,1.669292927E0,-1.190429211E0,7.726424217E0
4.197353635E1,1.341177106E0,-1.937289000E0,7.812565804E0
4.202353635E1,1.274178028E0,-2.332403898E0,6.320940018E0
4.207353635E1,2.957229614E0,-5.176572800E0,7.697411537E0
4.212353635E1,1.824826360E0,-8.461319923E0,7.273881912E0
4.217353635E1,2.772982359E0,-1.022094154E1,7.319345474E0
4.222353635E1,5.013860703E0,-8.001599312E0,7.934599876E0
4.227353635E1,1.674078584E0,-1.065194893E1,6.940980434E0
4.232353635E1,3.821636915E0,-1.047727299E1,8.897112846E0
4.237353635E1,2.729911566E0,-8.506783485E0,6.311368942E0
4.242353635E1,-3.323032558E-1,-1.027597713E1,5.571687698E0
4.247353635E1,3.184846878E0,-5.624329567E0,5.688935757E0
4.252353635E1,4.034597874E0,-6.842874527E0,8.944969177E0
4.257353635E1,6.871588230E0,-1.106620693E1,6.716054916E0
4.262353635E1,3.706482172E0,-5.782256126E0,8.142775536E0
4.267353635E1,5.289035320E0,-7.482057095E0,8.911469460E0
4.272353635E1,1.650150299E0,-5.902195930E0,4.695316315E0
4.277353635E1,1.525723577E0,-2.710768938E0,7.082156658E0
4.282353635E1,1.276570916E0,-2.207977057E0,5.363213062E0
4.287353635E1,-4.974080026E-1,-4.339981973E-1,6.569793701E0
4.292353635E1,1.149751306E0,1.416850090E0,5.009075165E0
4.297353635E1,3.619144261E-1,-1.650150299E0,5.803791523E0
4.302353635E1,2.184048891E0,-1.698006749E0,8.746066093E0
4.307353635E1,3.771387577E0,-5.143073082E0,7.070192814E0
4.312353635E1,2.054836512E0,-8.308178902E0,7.369594574E0
4.317353635E1,1.140179992E0,-8.839685440E0,5.889933109E0
4.322353635E1,2.274976015E0,-7.336095333E0,4.747958183E0
4.327353635E1,2.408974171E0,-8.983254433E0,8.698209763E0
4.332353635E1,4.467998028E0,-1.500210094E1,9.588937759E0
4.337353635E1,2.186441660E0,-8.470890999E0,6.955337048E0
4.342353635E1,9.702895880E-1,-6.814160824E0,2.966800928E0
4.347353635E1,1.333998680E0,-7.240382195E0,5.315356255E0
4.352353635E1,4.314857483E0,-7.999206066E0,7.477271557E0
4.357353635E1,5.205286503E0,-9.634401321E0,9.366106033E0
4.362353635E1,2.895016193E0,-1.003908730E1,6.545865536E0
4.367353635E1,3.745066643E0,-5.844469070E0,7.920242786E0
4.372353635E1,2.698804855E0,-6.330511570E0,6.040979862E0
4.377353635E1,1.855933070E0,-4.803292274E0,7.055835724E0
4.382353635E1,2.186441660E0,-2.966800928E0,9.342177391E0
4.387353635E1,1.066002488E0,-1.406082392E0,7.348059177E0
4.392353635E1,6.732804775E-1,9.140582681E-1,4.424927235E0
4.397353635E1,1.001396298E0,-8.434699774E-1,4.307379723E0
4.402353635E1,6.804589629E-1,-2.509472847E0,7.647161961E0
4.407353635E1,3.230310678E0,-2.526521683E0,9.529116631E0
4.412353635E1,3.247060299E0,-6.072086334E0,7.024729252E0
4.417353635E1,2.925225794E-1,-8.456534386E0,5.976074696E0
4.422353635E1,3.464807272E0,-6.594020844E0,6.375975132E0
4.427353635E1,2.765803814E0,-9.557830811E0,7.374380112E0
4.432353635E1,4.506283283E0,-1.290000629E1,1.092712402E1
4.437353635E1,1.403390527E0,-1.095135117E1,5.849255085E0
4.442353635E1,2.164906263E0,-5.877968788E0,6.038587093E0
4.447353635E1,6.254240274E-1,-6.189334869E0,4.070490360E0
4.452353635E1,2.399402857E0,-8.803792953E0,6.373582363E0
4.457353635E1,5.765506268E0,-9.847661972E0,7.570591927E0
4.462353635E1,4.692923546E0,-7.688138962E0,9.263215065E0
4.467353635E1,3.433700562E0,-7.472486019E0,6.285048008E0
4.472353635E1,4.329214573E0,-5.569294930E0,7.596912861E0
4.477353635E1,2.614757061E0,-7.407879829E0,8.437391281E0
4.482353635E1,2.499901533E0,-4.231108665E0,9.509974480E0
4.487353635E1,1.848754644E0,-2.710768938E0,5.396712303E0
4.492353635E1,-1.737488389E0,1.262213886E-1,2.588435888E0
4.497353635E1,1.295713425E0,2.048854351E0,5.593223095E0
4.502353635E1,2.255833626E0,-1.820040703E0,7.687839985E0
4.507353635E1,2.011466503E0,-4.611567497E0,1.014676476E1
4.512353635E1,2.114656925E0,-4.460819721E0,7.395915508E0
4.517353635E1,1.417747378E0,-5.023432255E0,5.614758492E0
4.522353635E1,1.137787223E0,-6.208477497E0,4.728815556E0
4.527353635E1,3.572484255E0,-8.353643417E0,6.555436611E0
4.532353635E1,3.203989506E0,-1.386969757E1,9.813862801E0
4.537353635E1,3.596412420E0,-1.205713463E1,9.562616348E0
4.542353635E1,6.373881102E-1,-7.721638680E0,6.862017155E0
4.547353635E1,1.585544109E0,-6.859624386E0,4.695316315E0
4.552353635E1,1.424925923E0,-6.189334869E0,4.336093903E0
4.557353635E1,2.653341293E0,-7.328916550E0,7.412665367E0
4.562353635E1,6.864409924E0,-1.025444126E1,9.663115501E0
4.567353635E1,1.444068432E0,-8.698508263E0,8.846863747E0
4.572353635E1,4.989932537E0,-6.538986206E0,7.687839985E0
4.577353635E1,2.566900492E0,-5.356333256E0,6.838088989E0
4.582353635E1,1.937289000E0,-3.893421650E0,5.799005508E0
4.587353635E1,-2.413759828E-1,-3.855136395E0,9.361320496E0
4.592353635E1,2.744268417E0,-3.891028643E0,9.232108116E0
4.597353635E1,-1.836491376E-1,3.083750308E-1,6.072086334E0
4.602353635E1,-4.088735580E-1,-1.506580949E0,5.238786221E0
4.607353635E1,-1.812563092E-1,3.705884218E-1,4.724030018E0
4.612353635E1,2.399402857E0,-1.391426325E0,7.800601959E0
4.617353635E1,3.838386536E0,-6.165406704E0,8.399106979E0
4.622353635E1,2.310868502E0,-7.431807995E0,8.152346611E0
4.627353635E1,3.194418192E0,-8.571390152E0,8.035098076E0
4.632353635E1,3.359523058E0,-9.507581711E0,6.409474373E0
4.637353635E1,1.104287624E0,-1.080508995E1,6.486044884E0
4.642353635E1,2.203191519E0,-9.780363083E0,7.357630730E0
4.647353635E1,2.866302490E0,-8.427820206E0,7.211668491E0
4.652353635E1,1.479960799E0,-7.676175117E0,5.569294930E0
4.657353635E1,2.095514536E0,-7.070491791E0,5.669793129E0
4.662353635E1,5.123930454E0,-7.010372162E0,7.747959614E0
4.667353635E1,5.260321617E0,-8.056633949E0,7.331309319E0
4.672353635E1,3.029014349E0,-6.945765972E0,7.814958572E0
4.677353635E1,4.053740501E0,-9.205786705E0,8.504390717E0
4.682353635E1,2.914158821E0,-7.084848881E0,7.568199158E0
4.687353635E1,2.722733021E0,-3.565305710E0,6.170192242E0
4.692353635E1,8.455637097E-1,-3.874279022E0,6.981658459E0
4.697353635E1,-1.577169180E0,-1.233500123E0,4.707280159E0
4.702353635E1,1.231107235E0,1.347159147E0,6.929016113E0
4.707353635E1,1.585544109E0,-1.508973837E0,7.161418915E0
4.712353635E1,-8.315058798E-2,-1.233500123E0,6.603592396E0
4.717353635E1,9.535398483E-1,-3.043371201E0,8.980861664E0
4.722353635E1,3.086441994E0,-7.233203888E0,7.429415226E0
4.727353635E1,2.227119684E0,-6.318547249E0,7.474878788E0
4.732353635E1,2.387438774E0,-8.219644547E0,5.978467464E0
4.737353635E1,4.288237095E0,-9.486045837E0,6.251548290E0
4.742353635E1,8.670991063E-1,-9.153144836E0,1.056341457E1
4.747353635E1,7.680960655E0,-1.653889084E1,1.069980526E1
4.752353635E1,1.489532143E-1,-6.756732941E0,4.728815556E0
4.757353635E1,1.233500123E0,-6.909873486E0,5.356034279E0
4.762353635E1,1.724327803E0,-8.068597794E0,5.090431213E0
4.767353635E1,3.641875982E0,-5.736792088E0,6.495615959E0
4.772353635E1,5.564508915E0,-1.131505966E1,1.024726295E1
4.777353635E1,2.236690998E0,-8.162217140E0,7.190133095E0
4.782353635E1,5.344070435E0,-6.122335911E0,9.495617867E0
4.787353635E1,3.531806231E0,-6.036194324E0,6.582056999E0
4.792353635E1,5.584250093E-1,-2.117049932E0,5.653043270E0
4.797353635E1,7.115656137E-1,-1.971087694E0,6.287440777E0
4.802353635E1,8.766704202E-1,3.529413417E-2,6.993622303E0
4.807353635E1,1.006181955E0,-5.656034350E-1,6.696912289E0
4.812353635E1,4.028915167E-1,-2.646162748E0,5.190929413E0
4.817353635E1,1.185643673E0,-1.245464206E0,5.389533997E0
4.822353635E1,2.145763636E0,-2.030908108E0,5.830112457E0
4.827353635E1,2.145763636E0,-8.348856926E0,6.644270420E0
4.832353635E1,2.875873804E0,-9.526723862E0,9.239286423E0
4.837353635E1,4.288237095E0,-1.046052361E1,8.961718559E0
4.842353635E1,1.281356573E0,-1.061844921E1,7.321738243E0
4.847353635E1,2.389831543E0,-6.943373203E0,7.036693096E0
4.852353635E1,2.363510609E0,-1.137248802E1,7.302595615E0
4.857353635E1,1.836790442E0,-7.477271557E0,5.657829285E0
4.862353635E1,2.514258385E0,-6.151049614E0,6.086443424E0
4.867353635E1,3.555734396E0,-8.212466240E0,7.568199158E0
4.872353635E1,6.471687794E0,-7.788637638E0,6.768697262E0
4.877353635E1,2.875873804E0,-6.790232658E0,8.509176254E0
4.882353635E1,3.390629768E0,-8.930612564E0,6.957729816E0
4.887353635E1,3.052942514E0,-5.009075165E0,7.810173035E0
4.892353635E1,2.535793781E0,-4.848755836E0,6.919445038E0
4.897353635E1,5.823532343E-1,-4.970789909E0,6.878767014E0
4.902353635E1,1.870290041E0,-9.631111473E-2,6.466902256E0
4.907353635E1,3.813561201E-1,5.021936297E-1,4.618745804E0
4.912353635E1,-2.246262282E-1,1.501496136E-1,4.800600529E0
4.917353635E1,2.236690998E0,-1.631007791E0,8.298607826E0
4.922353635E1,3.991527319E0,-2.854338408E0,9.565009117E0
4.927353635E1,1.271785259E0,-5.983551979E0,6.627520561E0
4.932353635E1,3.332005441E-1,-7.798209190E0,5.114359379E0
4.937353635E1,3.471985579E0,-8.200502396E0,6.512365818E0
4.942353635E1,2.985943556E0,-1.093669510E1,7.831708431E0
4.947353635E1,2.887837887E0,-9.236893654E0,1.002233791E1
4.952353635E1,2.399402857E0,-1.215553856E1,8.231309891E0
4.957353635E1,2.964408159E0,-7.604390144E0,7.249953270E0
4.962353635E1,1.853540182E0,-7.386344433E0,4.724030018E0
4.967353635E1,1.185643673E0,-9.431011200E0,5.973681927E0
4.972353635E1,5.006682396E0,-7.407879829E0,7.151847839E0
4.977353635E1,4.575675011E0,-8.700901031E0,9.440582275E0
4.982353635E1,2.890230656E0,-6.979265213E0,5.803791523E0
4.987353635E1,2.677269459E0,-6.122335911E0,7.503592491E0
4.992353635E1,2.535793781E0,-5.150251865E0,8.332107544E0
4.997353635E1,2.097907305E0,-3.055335522E0,6.512365818E0
5.002353635E1,7.498508096E-1,-1.180858016E0,5.849255085E0
5.007353635E1,-6.161518395E-2,8.542376757E-1,5.767899036E0
5.012353635E1,9.559326172E-1,-8.359923959E-1,6.270690918E0
5.017353635E1,1.508973837E0,-1.922932148E0,6.608377934E0
5.022353635E1,2.602792740E0,-2.543271303E0,6.627520561E0
5.027353635E1,2.243869543E0,-4.360321045E0,6.905087948E0
5.032353635E1,2.308475733E0,-9.325727463E0,7.791030407E0
5.037353635E1,2.892623425E0,-1.025922680E1,7.249953270E0
5.042353635E1,2.411366940E0,-9.675079346E0,9.526723862E0
5.047353635E1,5.509474277E0,-9.519545555E0,7.178168774E0
5.052353635E1,5.656034350E-1,-8.312965393E0,8.518747330E0
5.057353635E1,4.606781960E0,-8.885149002E0,6.438188553E0
5.062353635E1,2.167299032E0,-9.409476280E0,6.438188553E0
5.067353635E1,1.396211982E0,-9.227322578E0,5.327320576E0
5.072353635E1,3.103191853E0,-6.816553593E0,6.890730858E0
5.077353635E1,4.704887390E0,-7.345666409E0,7.699804306E0
5.082353635E1,5.092823982E0,-5.554937840E0,7.860422611E0
5.087353635E1,2.837588549E0,-7.874779224E0,9.131608963E0
5.092353635E1,2.612364054E0,-5.135894775E0,8.387142181E0
5.097353635E1,1.312463164E0,-2.993122101E0,7.707281590E0
5.102353635E1,5.488536954E-1,-9.655039310E-1,4.518247128E0
5.107353635E1,1.128215909E0,-4.606183618E-2,3.946063757E0
5.112353635E1,1.800599098E-1,3.290131316E-2,5.475974560E0
5.117353635E1,1.542473316E0,-8.817551732E-1,6.498009205E0
5.122353635E1,1.434497118E0,-3.290131092E0,6.924230576E0
5.127353635E1,2.203191519E0,-6.064908028E0,9.191430092E0
5.132353635E1,1.817647934E0,-8.751151085E0,7.891529083E0
5.137353635E1,2.813660383E0,-9.801898956E0,7.654340744E0
5.142353635E1,3.017050266E0,-8.947361946E0,6.900302410E0
5.147353635E1,1.460818172E0,-1.044855881E1,9.880862236E0
5.152353635E1,4.209274292E0,-9.917053223E0,9.090931892E0
5.157353635E1,4.794618487E-1,-9.160323143E0,5.495117188E0
5.162353635E1,1.319641709E0,-7.460521698E0,5.468796253E0
5.167353635E1,3.464807272E0,-7.537092209E0,6.533901215E0
5.172353635E1,4.393820763E0,-7.676175117E0,8.734101295E0
5.177353635E1,4.075275898E0,-7.776673794E0,7.625626564E0
5.182353635E1,3.469592810E0,-7.386344433E0,8.176275253E0
5.187353635E1,3.385843992E0,-6.917052269E0,8.224131584E0
5.192353635E1,1.058824062E0,-5.595615864E0,7.740781307E0
5.197353635E1,1.369890928E0,-3.287738323E0,6.909873486E0
5.202353635E1,-8.805587292E-1,8.315058798E-2,2.770589590E0
5.207353635E1,4.842474759E-1,3.825525343E-1,6.950551510E0
5.212353635E1,4.507479668E-1,-1.128215909E0,5.667400360E0
5.217353635E1,2.105085611E0,-9.559326172E-1,8.777172089E0
5.222353635E1,2.562114954E0,-2.789732218E0,6.876374245E0
5.227353635E1,7.498508096E-1,-5.669793129E0,5.088038445E0
5.232353635E1,2.428116798E0,-9.004789352E0,7.791030407E0
5.237353635E1,5.183751106E0,-1.039591694E1,1.042911720E1
5.242353635E1,3.690928817E-1,-1.037647533E1,6.160621166E0
5.247353635E1,8.288139701E-1,-1.010369396E1,8.535497665E0
5.252353635E1,3.165405273E0,-8.631210327E0,7.144669533E0
5.257353635E1,2.033001900E0,-7.910671711E0,6.938587666E0
5.262353635E1,2.129014015E0,-8.332107544E0,5.434997559E0
5.267353635E1,2.564507723E0,-8.478069305E0,7.850851059E0
5.272353635E1,6.478866577E0,-7.410272598E0,7.438986301E0
5.277353635E1,2.217548370E0,-7.977670670E0,7.462914944E0
5.282353635E1,4.453640938E0,-6.737590313E0,8.664710045E0
5.287353635E1,1.700399637E0,-5.078466892E0,7.058228493E0
5.292353635E1,2.169692039E0,-5.305785179E0,7.869993687E0
5.297353635E1,6.038886309E-1,-3.232703447E0,7.544270515E0
5.302353635E1,1.728814393E-1,8.829515576E-1,5.317749023E0
5.307353635E1,4.268197417E-1,1.788634956E-1,3.500699520E0
5.312353635E1,8.673982322E-2,-6.254240274E-1,6.706483841E0
5.317353635E1,2.983550787E0,-1.176072359E0,7.460521698E0
5.322353635E1,1.640578985E0,-5.253142834E0,7.300202847E0
5.327353635E1,1.894218206E0,-5.873183250E0,8.226524353E0
5.332353635E1,1.583151340E0,-8.856434822E0,5.384748459E0
5.337353635E1,2.385046005E0,-9.917053223E0,7.831708431E0
5.342353635E1,3.644268990E0,-9.572187424E0,8.614460945E0
5.347353635E1,3.182454109E0,-1.085773182E1,9.332606316E0
5.352353635E1,1.472782373E0,-8.686244965E0,6.783053875E0
5.357353635E1,1.994716763E0,-7.690532207E0,6.840481758E0
5.362353635E1,1.307677627E0,-1.058255768E1,6.119943142E0
5.367353635E1,2.916551590E0,-7.142276287E0,5.935396671E0
5.372353635E1,4.721637249E0,-7.309773922E0,8.473283768E0
5.377353635E1,3.749852180E0,-7.838887215E0,6.428617001E0
5.382353635E1,3.318845034E0,-7.161418915E0,9.306285858E0
5.387353635E1,3.926921129E0,-7.781459332E0,9.184251785E0
5.392353635E1,3.026621580E0,-5.373083115E0,7.992027760E0
5.397353635E1,7.522436380E-1,-1.820040703E0,2.382653236E0
5.402353635E1,-1.617847204E0,1.507777333E0,5.052145958E0
5.407353635E1,4.794618487E-1,1.347159147E0,6.208477497E0
5.412353635E1,2.442473650E0,-3.637090445E0,9.651150703E0
5.417353635E1,2.222334146E0,-2.461616278E0,8.370392799E0
5.422353635E1,1.549651742E0,-4.805685043E0,4.927719116E0
5.427353635E1,2.018645048E0,-5.334797859E0,5.837290764E0
5.432353635E1,1.501795292E0,-5.492724419E0,5.028217793E0
5.437353635E1,2.883052111E0,-9.227322578E0,7.994420528E0
5.442353635E1,3.972384691E0,-1.483669662E1,9.031110764E0
5.447353635E1,2.267797709E0,-1.275165081E1,8.942576408E0
5.452353635E1,2.464009047E0,-7.187740326E0,6.332904339E0
5.457353635E1,2.087737769E-1,-4.767100811E0,3.917349815E0
5.462353635E1,1.032503009E0,-6.455237389E0,4.692923546E0
5.467353635E1,5.428118229E0,-8.659924507E0,1.032622623E1
5.472353635E1,9.672686577E0,-1.053948689E1,8.779565811E0
5.477353635E1,1.173679471E0,-8.396714211E0,6.332904339E0
5.482353635E1,3.235096216E0,-7.996813297E0,7.965706348E0
5.487353635E1,1.932503343E0,-4.851148605E0,3.981956005E0
5.492353635E1,-9.595218897E-1,-3.498306751E0,7.180561543E0
5.497353635E1,2.418545485E0,-2.813660383E0,6.991229534E0
5.502353635E1,9.077770710E-1,-1.800898194E0,6.976872444E0
5.507353635E1,9.269196987E-1,6.433702111E-1,5.796612740E0
5.512353635E1,-2.796611488E-1,-6.759724021E-2,3.397808075E0
5.517353635E1,2.983550787E0,-2.349153519E0,6.557829380E0
5.522353635E1,8.264211416E-1,-6.570092678E0,8.216953278E0
5.527353635E1,2.804089069E0,-3.900599957E0,8.628817558E0
5.532353635E1,1.508973837E0,-8.763114929E0,6.637091637E0
5.537353635E1,3.189632654E0,-1.081466103E1,7.206882477E0
5.542353635E1,1.255035520E0,-6.981658459E0,6.031408787E0
5.547353635E1,3.141477108E0,-1.074766159E1,7.659126282E0
5.552353635E1,3.409772158E0,-1.137966633E1,9.670293808E0
5.557353635E1,2.131406784E0,-6.672984123E0,6.349654198E0
5.562353635E1,6.900302172E-1,-9.304191589E0,5.918646812E0
5.567353635E1,3.843172312E0,-1.027836990E1,7.247560501E0
5.572353635E1,4.077668667E0,-5.691328526E0,8.576175690E0
5.577353635E1,3.428914785E0,-7.278667450E0,6.308976173E0
5.582353635E1,1.942074656E0,-7.604390144E0,5.473581791E0
5.587353635E1,5.054538727E0,-5.176572800E0,1.439133263E1
5.592353635E1,3.404986620E0,-8.748757362E0,9.825826645E0
5.597353635E1,1.741077542E0,-3.950849295E0,4.841278553E0
5.602353635E1,-2.300100803E0,2.223530531E0,2.406581402E0
5.607353635E1,3.116651475E-1,-1.494616866E0,5.248357296E0
5.612353635E1,2.241476536E0,1.713560104E0,7.110870838E0
5.617353635E1,1.812862277E0,-3.347558975E0,9.071788788E0
5.622353635E1,1.266999602E0,-6.086443424E0,6.948158741E0
5.627353635E1,2.217548370E0,-3.445664644E0,6.265905380E0
5.632353635E1,1.717149377E0,-6.732804775E0,6.136693001E0
5.637353635E1,2.219941139E0,-8.298607826E0,5.181358337E0
5.642353635E1,1.152144074E0,-7.877171993E0,8.892327309E0
5.647353635E1,8.726922989E0,-1.940967941E1,1.113799095E1
5.652353635E1,1.357926846E0,-7.199704170E0,8.406285286E0
5.657353635E1,1.099501967E0,-8.011170387E0,5.672185898E0
5.662353635E1,9.005986452E-1,-7.302595615E0,3.440878868E0
5.667353635E1,2.627020121E0,-7.343273640E0,7.197311401E0
5.672353635E1,6.141478539E0,-9.323334694E0,9.325428009E0
5.677353635E1,3.965206146E0,-7.513164043E0,6.835696220E0
5.682353635E1,3.445664644E0,-6.646663189E0,7.005586624E0
5.687353635E1,2.590828657E0,-9.093324661E0,9.071788788E0
5.692353635E1,2.895016193E0,-4.025026798E0,7.527521133E0
5.697353635E1,1.415354609E0,-4.367499352E0,5.602794170E0
5.702353635E1,-1.498206019E0,2.868396044E-1,2.109871387E0
5.707353635E1,7.450651526E-1,2.802892685E0,6.737590313E0
5.712353635E1,2.157727718E0,-2.073979139E0,8.185846329E0
5.717353635E1,-2.581257522E-1,-4.369892120E0,8.614460945E0
5.722353635E1,2.612364054E0,-1.633400559E0,7.063014030E0
5.727353635E1,1.429711580E0,-3.017050266E0,3.366701365E0
5.732353635E1,-1.016949654E0,-7.704888821E0,7.010372162E0
5.737353635E1,6.256333828E0,-9.059824944E0,9.272786140E0
5.742353635E1,3.187239647E0,-1.190399361E1,8.049455643E0
5.747353635E1,1.611865163E0,-1.383141232E1,7.867600918E0
5.752353635E1,1.156929731E0,-6.534200668E0,8.056633949E0
5.757353635E1,1.843968987E0,-6.625127792E0,5.265107155E0
5.762353635E1,9.053842425E-1,-8.035098076E0,5.111966610E0
5.767353635E1,5.983551979E0,-8.894720078E0,8.061419487E0
5.772353635E1,6.809374809E0,-1.163599777E1,9.890433311E0
5.777353635E1,5.943173170E-1,-8.078168869E0,5.741578102E0
5.782353635E1,5.231607437E0,-6.019444466E0,7.661519051E0
5.787353635E1,2.330011129E0,-4.666602135E0,6.665805817E0
5.792353635E1,2.121835470E0,-3.584448338E0,5.954539299E0
5.797353635E1,1.278963685E0,-4.489533424E0,7.992027760E0
5.802353635E1,1.585544109E0,-5.037788868E0,8.949754715E0
5.807353635E1,1.283749342E0,1.366301775E0,5.569294930E0
5.812353635E1,-1.581954837E0,-7.426723242E-1,3.620340586E0
5.817353635E1,1.152144074E0,-1.049252748E0,4.752744198E0
5.822353635E1,4.180560112E0,-1.753041744E0,6.840481758E0
5.827353635E1,3.155833960E0,-7.000801086E0,9.208179474E0
5.832353635E1,8.455637097E-1,-1.002712345E1,5.978467464E0
5.837353635E1,3.711267948E0,-7.721638680E0,8.363214493E0
5.842353635E1,4.273880482E0,-1.018505001E1,6.838088989E0
5.847353635E1,-3.466601670E-1,-9.050253868E0,8.635995865E0
5.852353635E1,5.284249783E0,-1.214118195E1,8.825029373E0
5.857353635E1,1.295713425E0,-9.514760017E0,7.151847839E0
5.862353635E1,1.549651742E0,-7.278667450E0,4.949254513E0
5.867353635E1,2.705983400E0,-6.828517437E0,5.748756409E0
5.872353635E1,4.829314232E0,-9.095717430E0,9.284749985E0
5.877353635E1,3.572484255E0,-7.534699440E0,6.177370548E0
5.882353635E1,3.136691332E0,-6.316154480E0,8.413463593E0
5.887353635E1,3.151048422E0,-7.438986301E0,6.543472767E0
5.892353635E1,2.049751759E0,-4.089632988E0,8.607281685E0
5.897353635E1,1.832004786E0,-4.300500393E0,8.784351349E0
5.902353635E1,-7.007979155E-1,-1.097109199E0,5.693721294E0
5.907353635E1,7.929216027E-1,1.074377418E0,3.225524902E0
5.912353635E1,9.535398483E-1,8.901300430E-1,5.708078384E0
5.917353635E1,9.607182741E-1,-3.651746511E0,6.967301369E0
5.922353635E1,2.777767897E0,-4.695316315E0,9.279964447E0
5.927353635E1,3.354737282E0,-3.584448338E0,8.286643982E0
5.932353635E1,8.766704202E-1,-8.157431602E0,6.119943142E0
5.937353635E1,2.497508526E0,-1.186092281E1,6.981658459E0
5.942353635E1,9.101698995E-1,-1.088644600E1,8.985647202E0
5.947353635E1,7.589734554E0,-4.700101852E0,5.372784138E0
5.952353635E1,-4.974080026E-1,-9.447761536E0,6.230012894E0
5.957353635E1,2.406581402E0,-1.053709316E1,8.863613129E0
5.962353635E1,3.761816263E0,-9.083752632E0,7.233203888E0
5.967353635E1,1.920240223E-1,-7.606783390E0,4.003491402E0
5.972353635E1,2.114656925E0,-5.679364681E0,5.552545071E0
5.977353635E1,8.135597229E0,-8.621639252E0,1.130070305E1
5.982353635E1,2.025823355E0,-8.241180420E0,6.194120407E0
5.987353635E1,4.092025757E0,-6.795018196E0,9.538688660E0
5.992353635E1,3.122334480E0,-5.914160252E0,7.788637638E0
5.997353635E1,6.397809386E-1,-3.163311481E0,5.202893734E0
6.002353635E1,-1.294517040E0,9.188438654E-1,5.186143875E0
6.007353635E1,1.097109199E0,-1.583151340E0,5.672185898E0
6.012353635E1,1.408176184E0,-6.041877344E-2,4.446462631E0
6.017353635E1,2.076371908E0,-3.981058598E-1,6.052944183E0
6.022353635E1,1.662114382E0,-2.636591434E0,6.055336952E0
6.027353635E1,1.705185294E0,-4.829613209E0,6.603592396E0
6.032353635E1,1.698006749E0,-1.114995575E1,8.123632431E0
6.037353635E1,2.861516714E0,-9.873982430E0,8.851649284E0
6.042353635E1,1.422533035E0,-1.059452152E1,7.486843109E0
6.047353635E1,2.370688915E0,-8.296215057E0,5.760720730E0
6.052353635E1,1.896611094E0,-6.672984123E0,8.854042053E0
6.057353635E1,3.167798042E0,-9.914660454E0,8.729315758E0
6.062353635E1,2.514258385E0,-7.491628647E0,6.399903297E0
6.067353635E1,1.302891970E0,-1.129113197E1,6.720840454E0
6.072353635E1,5.526223660E0,-9.984052658E0,7.881958008E0
6.077353635E1,3.450450182E0,-7.084848881E0,7.221239567E0
6.082353635E1,2.306082726E0,-6.014658928E0,5.722435474E0
6.087353635E1,1.824826360E0,-6.328118801E0,6.318547249E0
6.092353635E1,4.080061913E0,-1.547258973E0,9.071788788E0
6.097353635E1,1.357926846E0,-1.872682810E0,5.344070435E0
6.102353635E1,-1.007378340E0,-2.073979139E0,6.143871307E0
6.107353635E1,2.542972326E0,-2.995514870E0,9.792327881E0
6.112353635E1,4.770690203E-1,-9.870393574E-2,3.682554007E0
6.117353635E1,3.789632916E-1,1.028913736E0,2.212762833E0
6.122353635E1,-1.190429255E-1,-1.822433591E0,2.126621008E0
6.127353635E1,-4.486542568E-2,-9.416654587E0,7.412665367E0
6.132353635E1,1.035254669E1,-1.594995785E1,1.159502029E1
6.137353635E1,1.381855130E0,-1.388883972E1,7.415058136E0
6.142353635E1,3.188436031E-1,-6.797410965E0,4.587639332E0
6.147353635E1,1.271785259E0,-3.208775282E0,6.239583969E0
6.152353635E1,6.828517437E0,-1.170299625E1,1.181306648E1
6.157353635E1,1.564008713E0,-1.076919746E1,3.792922974E0
6.162353635E1,3.643072546E-1,-7.743174076E0,6.141478539E0
6.167353635E1,3.311666489E0,-1.012283611E1,8.080561638E0
6.172353635E1,4.719244480E0,-8.396714211E0,6.649055958E0
6.177353635E1,3.268595695E0,-5.799005508E0,7.098906517E0
6.182353635E1,2.780160904E0,-6.596413612E0,7.122834682E0
6.187353635E1,2.145763636E0,-5.995516300E0,6.464509487E0
6.192353635E1,2.514258385E0,-2.303689957E0,8.614460945E0
6.197353635E1,8.647062778E-1,-4.647459984E0,7.783852100E0
6.202353635E1,-1.597209126E-1,1.301695466E0,3.859921932E0
6.207353635E1,-8.063812256E-1,-2.928216755E-1,4.173381805E0
6.212353635E1,1.585544109E0,1.573280841E-1,4.159024715E0
6.217353635E1,7.402794957E-1,-2.859123945E0,5.456532955E0
6.222353635E1,4.434498787E0,-6.064908028E0,1.013719273E1
6.227353635E1,3.116651475E-1,-1.080269718E1,6.146264076E0
6.232353635E1,2.454437733E0,-9.835697174E0,7.427022457E0
6.237353635E1,2.485544443E0,-8.703293800E0,5.021039009E0
6.242353635E1,1.333998680E0,-8.597710609E0,8.664710045E0
6.247353635E1,3.192025423E0,-1.312493134E1,9.390333176E0
6.252353635E1,2.215155602E0,-8.655138969E0,6.644270420E0
6.257353635E1,1.516152263E0,-8.250751495E0,5.720042706E0
6.262353635E1,1.798505306E0,-7.731209755E0,5.406283855E0
6.267353635E1,2.871088028E0,-6.191727638E0,6.756732941E0
6.272353635E1,5.504688263E0,-8.200502396E0,9.323035240E0
6.277353635E1,2.883052111E0,-8.911469460E0,8.368000031E0
6.282353635E1,2.792124987E0,-7.003193855E0,8.722137451E0
6.287353635E1,2.624627352E0,-4.484747887E0,6.976872444E0
6.292353635E1,9.391828626E-2,-3.337987661E0,5.066503048E0
6.297353635E1,-2.006980032E-1,-6.613163352E-1,4.755136967E0
6.302353635E1,2.063809484E-1,-6.281159073E-2,5.770291805E0
6.307353635E1,1.556830287E0,-1.463510156E0,5.300999641E0
6.312353635E1,1.006181955E0,-1.214357495E0,6.754340172E0
6.317353635E1,2.849552631E0,-2.586342096E0,8.344071388E0
6.322353635E1,1.552044630E0,-5.758327484E0,5.367998600E0
6.327353635E1,6.469594240E-1,-9.330513000E0,8.564210892E0
6.332353635E1,3.407379389E0,-1.060648537E1,8.497212410E0
6.337353635E1,2.001895189E0,-9.696614265E0,8.382356644E0
6.342353635E1,2.665305376E0,-1.008455086E1,6.945765972E0
6.347353635E1,2.095514536E0,-4.336392879E0,6.845267296E0
6.352353635E1,2.571686029E0,-9.888339996E0,8.411070824E0
6.357353635E1,7.426723242E-1,-1.233739376E1,4.616353035E0
6.362353635E1,2.253440619E0,-6.167799473E0,8.425427437E0
6.367353635E1,5.418247700E0,-8.370392799E0,6.821339130E0
6.372353635E1,1.008574724E0,-6.383153439E0,3.163012505E0
6.377353635E1,3.232703447E0,-5.870790482E0,1.072373390E1
6.382353635E1,3.867100477E0,-6.340082645E0,7.247560501E0
6.387353635E1,1.765005827E0,-8.458927155E0,1.025922680E1
6.392353635E1,1.360319614E0,-2.478366137E0,5.940182209E0
6.397353635E1,-1.002592683E0,5.380859971E-1,7.417450905E0
6.402353635E1,1.099501967E0,-1.008574724E0,2.645863533E0
6.407353635E1,-6.161518395E-2,9.260223508E-1,4.714458942E0
6.412353635E1,3.088835001E0,-2.991028363E-3,6.909873486E0
6.417353635E1,1.190429211E0,-6.577271461E0,7.180561543E0
6.422353635E1,2.914158821E0,-9.102895737E0,9.588937759E0
6.427353635E1,2.358724833E0,-8.308178902E0,6.747161865E0
6.432353635E1,1.700399637E0,-7.661818027E0,5.090431213E0
6.437353635E1,2.241476536E0,-7.616354465E0,7.060621262E0
6.442353635E1,3.934099436E0,-1.174128151E1,8.571390152E0
6.447353635E1,2.770589590E0,-1.131027412E1,8.348856926E0
6.452353635E1,1.989931107E0,-7.623532772E0,6.134299755E0
6.457353635E1,1.472782373E0,-7.822137356E0,5.033003330E0
6.462353635E1,3.474378586E0,-7.242774963E0,6.931408882E0
6.467353635E1,4.561318398E0,-8.736793518E0,8.832506180E0
6.472353635E1,2.073979139E0,-1.151635647E1,7.031907558E0
6.477353635E1,2.504687071E0,-5.684150219E0,7.724031448E0
6.482353635E1,2.713161707E0,-5.013860703E0,6.050550938E0
6.487353635E1,1.082752272E-1,-5.478367329E0,6.230012894E0
6.492353635E1,7.737790346E-1,9.499505758E-1,7.127620220E0
6.497353635E1,-6.314060688E-1,-2.487937450E0,8.173882484E0
6.502353635E1,1.140179992E0,8.470591903E-1,4.072883129E0
6.507353635E1,1.180858016E0,5.682953820E-2,5.916254044E0
6.512353635E1,1.516152263E0,-4.243072987E0,5.507081509E0
6.517353635E1,1.571187139E0,-6.483951092E0,8.815457344E0
6.522353635E1,2.813660383E0,-6.534200668E0,7.903493404E0
6.527353635E1,4.962115884E-1,-1.105902767E1,5.248357296E0
6.532353635E1,3.143869877E0,-8.832506180E0,7.302595615E0
6.537353635E1,2.540579557E0,-7.551449299E0,6.981658459E0
6.542353635E1,1.896611094E0,-9.366405487E0,9.730113983E0
6.547353635E1,2.018645048E0,-8.592925072E0,5.047360420E0
6.552353635E1,2.114656925E0,-9.201001167E0,7.173383236E0
6.557353635E1,1.171286702E0,-9.172286987E0,5.894718647E0
6.562353635E1,1.305284739E0,-8.169395447E0,5.856433392E0
6.567353635E1,5.339284420E0,-7.149455070E0,7.489235878E0
6.572353635E1,2.895016193E0,-6.330511570E0,7.496414185E0
6.577353635E1,4.642673969E0,-6.555736065E0,1.001515961E1
6.582353635E1,1.085145116E0,-5.727221012E0,9.368498802E0
6.587353635E1,9.269196987E-1,-4.429712772E0,9.679864883E0
6.592353635E1,2.470589429E-1,-6.759125710E0,8.540283203E0
6.597353635E1,-2.988037169E-1,1.179661512E0,4.379463673E0
6.602353635E1,8.913264424E-2,3.966402531E0,-2.721536636E0
6.607353635E1,-1.385743380E0,4.064807594E-1,2.160120726E0
6.612353635E1,3.421736479E0,-4.731208801E0,1.145384407E1
6.617353635E1,5.088038445E0,-6.500700951E0,1.276840115E1
6.622353635E1,-1.070788130E-1,-1.306989670E1,7.635198116E0
6.627353635E1,3.036192894E0,-7.053741932E0,1.475175142E0
6.632353635E1,9.101698995E-1,-1.372283816E0,1.479960799E0
6.637353635E1,-2.964109182E-1,-1.155464172E1,1.167188931E1
6.642353635E1,8.959325790E0,-1.558624840E1,1.343629742E1
6.647353635E1,5.356034279E0,-9.993623734E0,6.962515831E0
6.652353635E1,-6.936194897E-1,-9.833304405E0,5.147858620E0
6.657353635E1,2.682054996E0,-8.241180420E0,5.751149178E0
6.662353635E1,2.583650351E0,-5.502295494E0,4.058526516E0
6.667353635E1,1.899003863E0,-4.977968216E0,6.397510529E0
6.672353635E1,7.465307713E0,-8.344071388E0,1.201167011E1
6.677353635E1,2.717947483E0,-7.886743546E0,7.834101200E0
6.682353635E1,1.743470430E0,-5.818148136E0,7.572984695E0
6.687353635E1,2.566302419E-1,-3.582055569E0,4.927719116E0
6.692353635E1,-1.629811287E0,1.162911773E0,5.001896858E0
6.697353635E1,-1.597209126E-1,-1.652543187E0,5.030610561E0
6.702353635E1,2.248655081E0,-1.516152263E0,7.237989426E0
6.707353635E1,1.564008713E0,-1.609173268E-1,5.025825024E0
6.712353635E1,1.467996716E0,-2.282154560E0,6.258726597E0
6.717353635E1,1.614257932E0,-6.672984123E0,8.652746201E0
6.722353635E1,2.677269459E0,-8.937790871E0,8.753244400E0
6.727353635E1,2.749054193E0,-1.048445129E1,7.395915508E0
6.732353635E1,2.313261271E0,-1.043420219E1,7.858029366E0
6.737353635E1,3.400201082E0,-9.134002686E0,8.714959145E0
6.742353635E1,3.333201885E0,-8.178966522E0,7.910671711E0
6.747353635E1,1.489532113E0,-8.303393364E0,6.158228397E0
6.752353635E1,9.029914737E-1,-7.932207108E0,5.710471153E0
6.757353635E1,3.955634832E0,-9.340084076E0,8.159524918E0
6.762353635E1,3.460021496E0,-8.389534950E0,7.024729252E0
6.767353635E1,3.148655415E0,-5.839683533E0,5.272285461E0
6.772353635E1,3.412165165E0,-6.498308182E0,7.156633377E0
6.777353635E1,2.658126831E0,-8.123632431E0,7.735995770E0
6.782353635E1,1.956431627E0,-4.151846409E0,8.695816994E0
6.787353635E1,2.868695259E0,-5.143073082E0,7.616055489E0
6.792353635E1,-1.004985452E0,9.116654396E-1,3.991527319E0
6.797353635E1,-1.310070455E-1,8.877372146E-1,7.913064480E0
6.802353635E1,1.741077542E0,-4.427320004E0,6.833303452E0
6.807353635E1,1.552044630E0,-2.083550215E0,7.482057095E0
6.812353635E1,1.640578985E0,-5.324030295E-2,5.554937840E0
6.817353635E1,3.667000830E-1,-3.986741543E0,1.982752681E0
6.822353635E1,1.319641709E0,-5.674578667E0,9.603294373E0
6.827353635E1,5.487938881E0,-1.267747307E1,1.001276588E1
6.832353635E1,2.737090111E0,-1.847348785E1,1.237089348E1
6.837353635E1,1.695613980E0,-7.395915508E0,5.892325878E0
6.842353635E1,-1.251446247E0,-5.487938881E0,5.222036362E0
6.847353635E1,1.412961721E0,-5.621936798E0,5.344070435E0
6.852353635E1,2.231905222E0,-1.151396370E1,8.147561073E0
6.857353635E1,4.793421745E0,-1.140598774E1,6.962515831E0
6.862353635E1,3.244667530E0,-7.228417873E0,9.871291161E0
6.867353635E1,4.326821327E0,-9.088538170E0,5.157430172E0
6.872353635E1,1.556830287E0,-4.556532383E0,5.894718647E0
6.877353635E1,4.015455723E0,-6.759125710E0,9.517152786E0
6.882353635E1,9.918249846E-1,-7.180561543E0,8.221738815E0
6.887353635E1,9.607182741E-1,-2.741875648E0,6.395117760E0
6.892353635E1,7.716853172E-2,2.506481707E-1,3.840779543E0
6.897353635E1,1.561316848E-1,-2.042872429E0,5.942574978E0
6.902353635E1,8.623134494E-1,-7.354938388E-1,6.447759628E0
6.907353635E1,2.088335991E0,-5.177469850E-1,5.985645771E0
6.912353635E1,9.870393276E-1,-3.055335522E0,7.613662720E0
6.917353635E1,2.222334146E0,-5.109573841E0,5.803791523E0
6.922353635E1,1.523330688E0,-8.210073471E0,8.547461510E0
6.927353635E1,3.677768469E0,-1.158335495E1,9.500403404E0
6.932353635E1,2.025823355E0,-1.106859970E1,6.778268337E0
6.937353635E1,1.884646893E0,-7.853243828E0,6.924230576E0
6.942353635E1,2.217548370E0,-9.222537041E0,7.139584541E0
6.947353635E1,2.160120726E0,-8.770293236E0,7.383951664E0
6.952353635E1,1.185643673E0,-8.818149567E0,5.464010715E0
6.957353635E1,1.681257010E0,-8.944969177E0,5.593223095E0
6.962353635E1,4.273880482E0,-7.175776005E0,7.226025105E0
6.967353635E1,4.951647282E0,-9.014361382E0,9.220144272E0
6.972353635E1,3.316452265E0,-6.098407745E0,5.851647854E0
6.977353635E1,3.266202927E0,-6.127121449E0,8.736495018E0
6.982353635E1,2.138585329E0,-5.643472195E0,7.017550468E0
6.987353635E1,1.839183331E0,-6.349654198E0,9.289535522E0
6.992353635E1,1.578365684E0,-3.335594654E0,8.475676537E0
6.997353635E1,-6.098706722E-1,-2.015953064E-1,2.830410004E0
7.002353635E1,2.231307179E-1,1.989033818E0,2.483151674E0
7.007353635E1,2.685943544E-1,-2.928216755E-1,4.623531342E0
7.012353635E1,4.214059830E0,-3.941277981E0,1.110927773E1
7.017353635E1,2.289333105E0,-4.489533424E0,9.557830811E0
7.022353635E1,-4.974080026E-1,-8.612068176E0,6.392724991E0
7.027353635E1,2.071586132E0,-6.440581322E0,5.715256691E0
7.032353635E1,1.989931107E0,-5.502295494E0,4.913362026E0
7.037353635E1,9.293124676E-1,-1.164796162E1,8.051848412E0
7.042353635E1,5.449653625E0,-1.274925804E1,9.541081429E0
7.047353635E1,3.364308596E0,-1.060648537E1,8.166703224E0
7.052353635E1,-3.251247704E-1,-8.082955360E0,5.056931496E0
7.057353635E1,1.616650820E0,-5.186143875E0,4.312165737E0
7.062353635E1,1.820040703E0,-8.727222443E0,8.499605179E0
7.067353635E1,5.607579708E0,-9.897911072E0,8.109275818E0
7.072353635E1,4.106382847E0,-6.227620125E0,9.306285858E0
7.077353635E1,4.637888432E0,-7.781459332E0,7.024729252E0
7.082353635E1,1.355534077E0,-6.277869225E0,6.663413048E0
7.087353635E1,1.671685696E0,-3.364308596E0,8.901898384E0
7.092353635E1,1.087537885E0,-6.215655804E0,7.687839985E0
7.097353635E1,-4.950151742E-1,-4.293322086E0,6.344868183E0
7.102353635E1,9.918249846E-1,1.522134304E0,3.622733593E0
7.107353635E1,-7.357929647E-2,1.794916034E0,4.089632988E0
7.112353635E1,1.125823021E0,-2.667698145E0,6.301797390E0
7.117353635E1,2.727518797E0,-3.967599154E0,9.837791443E0
7.122353635E1,2.849552631E0,-4.623531342E0,1.001755238E1
7.127353635E1,8.024929166E-1,-9.598508835E0,7.084549427E0
7.132353635E1,1.583151340E0,-8.147860527E0,4.673780918E0
7.137353635E1,1.970788598E0,-2.971586704E0,6.239583969E0
7.142353635E1,3.072085142E0,-1.194945717E1,7.240382195E0
7.147353635E1,3.438486099E0,-1.293589878E1,1.039561844E1
7.152353635E1,2.112264156E0,-8.470890999E0,6.622735023E0
7.157353635E1,4.674977362E-1,-7.331309319E0,5.056931496E0
7.162353635E1,6.278168559E-1,-9.838089943E0,5.396712303E0
7.167353635E1,4.987539768E0,-7.448557854E0,6.387938976E0
7.172353635E1,2.684448004E0,-5.856433392E0,8.202595711E0
7.177353635E1,4.834099770E0,-6.795018196E0,7.666304588E0
7.182353635E1,3.278167009E0,-6.747161865E0,8.149953842E0
7.187353635E1,4.853242397E0,-7.295417309E0,1.274178028E1
7.192353635E1,1.295713425E0,-8.681459427E0,8.212167740E0
7.197353635E1,6.661019921E-1,-1.463510156E0,2.854338408E0
7.202353635E1,-7.127620578E-1,7.606185079E-1,3.416950703E0
7.207353635E1,1.525723577E0,-4.196412563E-1,5.109573841E0
7.212353635E1,1.518545032E0,-8.264211416E-1,6.218048573E0
7.217353635E1,1.980359793E0,-2.100300074E0,1.015872860E1
7.222353635E1,2.634198666E0,-2.627020121E0,9.555438042E0
7.227353635E1,2.350948304E-1,-7.360023499E0,6.744768620E0
7.232353635E1,7.450651526E-1,-8.748757362E0,6.873981476E0
7.237353635E1,2.782553673E0,-6.876374245E0,5.827719688E0
7.242353635E1,1.776969910E0,-1.049880886E1,7.850851059E0
7.247353635E1,3.433700562E0,-1.305793190E1,7.869993687E0
7.252353635E1,1.396211982E0,-6.550950050E0,7.558627605E0
7.257353635E1,-3.610171080E-1,-8.504390717E0,5.961717606E0
7.262353635E1,1.999502420E0,-9.505188942E0,5.806184292E0
7.267353635E1,2.332403898E0,-8.106883049E0,7.450950623E0
7.272353635E1,4.826921463E0,-1.023769188E1,8.612068176E0
7.277353635E1,2.105085611E0,-7.391129971E0,6.385546207E0
7.282353635E1,3.835993767E0,-5.044967651E0,8.214560509E0
7.287353635E1,3.163012505E0,-6.567699909E0,6.646663189E0
7.292353635E1,1.180858016E0,-6.493522644E0,7.553842068E0
7.297353635E1,1.056431174E0,-4.987539768E0,9.524331093E0
7.302353635E1,2.928515911E0,-1.389033556E0,7.199704170E0
7.307353635E1,-1.258624673E0,1.912164450E0,3.828815222E0
7.312353635E1,4.845465720E-2,5.859424472E-1,4.695316315E0
7.317353635E1,1.300499082E0,-9.224331379E-1,7.570591927E0
7.322353635E1,2.945265532E0,-3.390629768E0,9.301499367E0
7.327353635E1,1.257428288E0,-4.405784607E0,8.434998512E0
7.332353635E1,8.670991063E-1,-6.148656845E0,6.586842537E0
7.337353635E1,1.820040703E0,-8.207680702E0,5.540580750E0
7.342353635E1,1.374676585E0,-7.913064480E0,5.947360516E0
7.347353635E1,2.207977057E0,-1.179631615E1,8.628817558E0
7.352353635E1,1.939681888E0,-1.207896900E1,9.445367813E0
7.357353635E1,3.038585663E0,-7.477271557E0,6.993622303E0
7.362353635E1,-5.165506005E-1,-8.157431602E0,5.226821899E0
7.367353635E1,2.100300074E0,-6.773482800E0,5.688935757E0
7.372353635E1,2.605185747E0,-8.952147484E0,7.807780266E0
7.377353635E1,3.414557934E0,-9.490832329E0,7.501199722E0
7.382353635E1,2.964408159E0,-6.653841496E0,7.611269951E0
7.387353635E1,3.189632654E0,-8.145467758E0,8.693424225E0
7.392353635E1,2.191227436E0,-5.806184292E0,6.371189594E0
7.397353635E1,1.638186216E0,-4.891826630E0,8.375178337E0
7.402353635E1,9.894321561E-1,-3.067299604E0,8.434998512E0
7.407353635E1,1.256231871E-2,-4.124628007E-1,4.467998028E0
7.412353635E1,6.062814593E-1,3.610171080E-1,6.332904339E0
7.417353635E1,6.876373887E-1,-7.881359458E-1,4.410570145E0
7.422353635E1,8.958129883E-1,-1.523330688E0,9.617651939E0
7.427353635E1,3.105584621E0,-3.735495329E0,7.173383236E0
7.432353635E1,6.637091637E-1,-4.204488277E0,6.356832504E0
7.437353635E1,1.475175142E0,-5.581258774E0,6.768697262E0
7.442353635E1,2.466402054E0,-9.078967094E0,7.336095333E0
7.447353635E1,2.361117840E0,-8.456534386E0,7.434200764E0
7.452353635E1,4.115953922E0,-1.236371422E1,9.332606316E0
7.457353635E1,1.714756489E0,-1.180349541E1,6.375975132E0
7.462353635E1,1.355534077E0,-6.510272026E0,5.933003902E0
7.467353635E1,1.262213945E0,-5.985944748E0,5.004289627E0
7.472353635E1,2.452643216E-2,-9.560223579E0,6.294619083E0
7.477353635E1,4.939683437E0,-7.281060219E0,7.704888821E0
7.482353635E1,4.482355118E0,-1.009412193E1,9.651150703E0
7.487353635E1,2.049751759E0,-8.241180420E0,5.813362598E0
7.492353635E1,2.382653236E0,-5.085645199E0,7.170990467E0
7.497353635E1,3.388236761E0,-7.462914944E0,9.579366684E0
7.502353635E1,2.516651154E0,-4.039383888E0,7.508378506E0
7.507353635E1,7.929216027E-1,-2.301297188E0,7.336095333E0
7.512353635E1,1.256231871E-2,-3.957130313E-1,6.854838848E0
7.517353635E1,1.176072359E0,2.283350945E0,5.293820858E0
7.522353635E1,1.918146491E0,-1.458724499E0,6.735197544E0
7.527353635E1,-6.505486369E-1,-4.839184761E0,6.629913330E0
7.532353635E1,2.129014015E0,-1.106680483E-1,7.999206066E0
7.537353635E1,4.846064091E0,-4.867898464E0,8.418249130E0
7.542353635E1,-1.046859920E-1,-9.064610481E0,4.467998028E0
7.547353635E1,-3.442673683E-1,-5.662614822E0,5.605186939E0
7.552353635E1,3.850350618E0,-9.083752632E0,1.085055351E1
7.557353635E1,8.061419487E0,-1.700339699E1,1.048654556E1
7.562353635E1,-2.485544533E-1,-7.843672752E0,7.333702087E0
7.567353635E1,1.018146038E0,-7.494021416E0,4.800600529E0
7.572353635E1,7.737790346E-1,-7.039385319E0,4.616353035E0
7.577353635E1,2.437688112E0,-1.052991486E1,7.994420528E0
7.582353635E1,5.669793129E0,-8.889934540E0,6.921837807E0
7.587353635E1,4.459623098E-1,-5.655436516E0,5.320142269E0
7.592353635E1,3.708875179E0,-7.450950623E0,9.636794090E0
7.597353635E1,4.180560112E0,-7.415058136E0,7.829315662E0
7.602353635E1,3.213560820E0,-5.962016582E0,9.900004387E0
7.607353635E1,2.011466503E0,-7.491628647E0,8.037490845E0
7.612353635E1,4.746761918E-1,-3.105883837E0,7.503592491E0
7.617353635E1,-3.897309899E-1,2.798106909E0,2.157727718E0
7.622353635E1,6.469594240E-1,-6.804589629E-1,5.004289627E0
7.627353635E1,4.052843451E-1,-1.259821177E0,6.490830421E0
7.632353635E1,3.699303865E0,-1.018146038E0,9.275178909E0
7.637353635E1,2.942872763E0,-5.059324265E0,9.703793526E0
7.642353635E1,1.144965649E0,-7.202096939E0,6.074479580E0
7.647353635E1,6.565307379E-1,-4.611567497E0,3.891028643E0
7.652353635E1,1.235892892E0,-2.485544443E0,6.194120407E0
7.657353635E1,3.251846075E0,-1.297657585E1,7.362416267E0
7.662353635E1,4.702494621E0,-1.400130272E1,1.297896957E1
7.667353635E1,1.736291885E0,-1.019222832E1,8.037490845E0
7.672353635E1,1.489532143E-1,-7.063313484E0,4.276273251E0
7.677353635E1,1.767398596E0,-4.295714855E0,2.825624466E0
7.682353635E1,4.115953922E0,-8.487641335E0,5.705685616E0
7.687353635E1,-1.549352705E-1,-1.048205853E1,4.065704823E0
7.692353635E1,3.050549746E0,-8.561818123E0,5.842076302E0
7.697353635E1,-1.621137410E-1,-1.064477062E1,3.977170229E0
7.702353635E1,1.479960799E0,-5.899803162E0,3.254238844E0
7.707353635E1,2.148156643E0,-7.290631294E0,4.080061913E0
7.712353635E1,-8.877372146E-1,-8.980861664E0,5.257928848E0
7.717353635E1,1.381855130E0,-1.037886810E1,4.810171604E0
7.722353635E1,3.450450182E0,-7.743174076E0,6.565008163E0
7.727353635E1,2.538186550E0,-9.426225662E0,6.110371590E0
7.732353635E1,-7.537391186E-1,-7.767102242E0,2.799303293E0
7.737353635E1,4.096811295E0,-6.086443424E0,4.922933578E0
7.742353635E1,2.665305376E0,-8.377571106E0,6.349654198E0
7.747353635E1,-4.375874400E-1,-1.234696484E1,4.353142738E0
7.752353635E1,4.178167343E0,-5.542973518E0,6.594020844E0
7.757353635E1,9.894321561E-1,-7.999206066E0,3.055335522E0
7.762353635E1,6.565307379E-1,-8.585746765E0,3.850350618E0
7.767353635E1,3.302095175E0,-5.234000206E0,5.202893734E0
7.772353635E1,3.213560820E0,-1.120020485E1,7.443772316E0
7.777353635E1,-6.218347549E-1,-1.031665516E1,4.261916161E0
7.782353635E1,2.694019079E0,-7.211668491E0,2.617149830E0
7.787353635E1,-1.238285750E-1,-8.322536469E0,4.211667061E0
7.792353635E1,3.278167009E0,-8.863613129E0,5.021039009E0
7.797353635E1,4.124628007E-1,-6.565307140E0,3.689732552E0
7.802353635E1,3.328416348E0,-1.196620655E1,7.338488102E0
7.807353635E1,-1.091127157E0,-7.226025105E0,1.104287624E0
7.812353635E1,3.926921129E0,-8.298607826E0,9.016754150E0
7.817353635E1,1.384247899E0,-1.024247742E1,2.701197624E0
7.822353635E1,1.372283816E0,-1.000080204E1,5.758327484E0
7.827353635E1,1.750648856E0,-8.961718559E0,4.465605259E0
7.832353635E1,8.647062778E-1,-8.966505051E0,5.250750065E0
7.837353635E1,1.633400559E0,-7.664210796E0,3.718446493E0
7.842353635E1,1.221535921E0,-8.353643417E0,5.899504185E0
7.847353635E1,3.483949661E0,-9.639186859E0,5.676971912E0
7.852353635E1,3.643072546E-1,-1.004626560E1,5.076074123E0
7.857353635E1,3.074477911E0,-9.435796738E0,5.724828243E0
7.862353635E1,7.187440991E-1,-8.506783485E0,3.316452265E0
7.867353635E1,1.001396298E0,-8.580961227E0,6.716054916E0
7.872353635E1,3.048156977E0,-9.847661972E0,9.205786705E0
7.877353635E1,4.863112926E0,-7.137490749E0,4.843671322E0
7.882353635E1,2.258226395E0,-9.689435959E0,8.954540253E0
7.887353635E1,4.479962349E0,-8.018348694E0,7.122834682E0
7.892353635E1,5.088038445E0,-7.017849922E0,1.040997505E1
7.897353635E1,3.242274761E0,-3.816851139E0,6.639484406E0
7.902353635E1,2.350948304E-1,-4.039383888E0,2.851945400E0
7.907353635E1,-8.554340899E-2,-1.389033556E0,7.692625523E0
7.912353635E1,2.842374086E0,-1.599901080E0,7.791030407E0
7.917353635E1,2.480758905E0,4.710869491E-1,8.384749413E0
7.922353635E1,1.989931107E0,-2.258226395E0,8.243273735E0
7.927353635E1,1.590329766E0,-2.603091955E0,7.936992645E0
7.932353635E1,3.036192894E0,-3.148954630E0,6.912266254E0
7.937353635E1,2.023430586E0,-5.392225742E0,7.383951664E0
7.942353635E1,1.329213023E0,-9.780363083E0,8.274680138E0
7.947353635E1,9.726824164E-1,-7.080062866E0,6.342475414E0
7.952353635E1,1.633400559E0,-8.973683357E0,6.704091072E0
7.957353635E1,2.102692842E0,-1.020658493E1,8.260024071E0
7.962353635E1,3.555734396E0,-9.655936241E0,6.316154480E0
7.967353635E1,-8.315058798E-2,-7.328916550E0,6.806982040E0
7.972353635E1,4.363910258E-1,-9.454939842E0,3.381058455E0
7.977353635E1,1.552044630E0,-9.813862801E0,5.710471153E0
7.982353635E1,1.918146491E0,-8.559425354E0,6.993622303E0
7.987353635E1,3.400201082E0,-7.343273640E0,6.964908600E0
7.992353635E1,3.507878065E0,-7.479664326E0,6.478866577E0
7.997353635E1,1.908575177E0,-6.344868183E0,5.401497841E0
8.002353635E1,4.015455723E0,-6.136693001E0,9.153144836E0
8.007353635E1,4.415356159E0,-7.254739285E0,8.885149002E0
8.012353635E1,2.521436930E0,-7.831708431E0,8.849256516E0
8.017353635E1,2.047358990E0,-3.864707708E0,7.393522739E0
8.022353635E1,7.378866673E-1,-3.876671791E0,6.416653156E0
8.027353635E1,-2.341975123E-1,-1.250249863E0,6.737590313E0
8.032353635E1,1.674078584E0,-1.585544109E0,7.917850018E0
8.037353635E1,1.623829246E0,5.285146832E-1,6.481259346E0
8.042353635E1,1.561615825E0,-9.248259664E-1,7.245167732E0
8.047353635E1,1.257428288E0,-2.468794823E0,6.838088989E0
8.052353635E1,9.894321561E-1,-3.060121059E0,7.929814339E0
8.057353635E1,2.090728760E0,-6.912266254E0,8.624032021E0
8.062353635E1,1.820040703E0,-8.056633949E0,8.159524918E0
8.067353635E1,1.266999602E0,-8.729615211E0,6.933801651E0
8.072353635E1,1.051645517E0,-1.148734283E1,5.128716469E0
8.077353635E1,5.626722336E0,-4.187738895E0,6.950551510E0
8.082353635E1,7.450651526E-1,-1.126481056E1,7.920242786E0
8.087353635E1,3.499503136E-1,-1.103031445E1,5.437390327E0
8.092353635E1,1.834397674E0,-8.720044136E0,6.062515259E0
8.097353635E1,1.958824396E0,-1.059691429E1,1.039801121E1
8.102353635E1,5.552545071E0,-8.334500313E0,3.445664644E0
8.107353635E1,1.417747378E0,-5.808577061E0,3.431307554E0
8.112353635E1,1.784148335E0,-6.119943142E0,6.201299191E0
8.117353635E1,3.558127165E0,-4.879862785E0,9.215357780E0
8.122353635E1,5.413462162E0,-7.211668491E0,8.252845764E0
8.127353635E1,3.452843189E0,-1.040788078E1,9.157930374E0
8.132353635E1,2.196012974E0,-5.356333256E0,7.161418915E0
8.137353635E1,2.725125790E0,-3.192025423E0,4.877170563E0
8.142353635E1,-1.220339537E0,-2.224726915E0,6.890730858E0
8.147353635E1,7.929216027E-1,-2.308475733E0,7.838887215E0
8.152353635E1,2.181656122E0,-1.350748420E0,8.339285851E0
8.157353635E1,1.855933070E0,-1.686042666E0,9.059824944E0
8.162353635E1,1.106680512E0,-2.533699989E0,8.255238533E0
8.167353635E1,6.589235067E-1,-3.867100477E0,6.914659023E0
8.172353635E1,1.698006749E0,-3.203989506E0,5.255535603E0
8.177353635E1,2.001895189E0,-3.668496132E0,6.938587666E0
8.182353635E1,3.780958891E0,-7.850851059E0,9.363713264E0
8.187353635E1,2.670090914E0,-1.494467258E1,8.152346611E0
8.192353635E1,2.263011932E0,-7.817351341E0,8.169096947E0
8.197353635E1,1.887039781E0,-7.403094292E0,5.413462162E0
8.202353635E1,4.172484577E-1,-7.441379547E0,8.858827591E0
8.207353635E1,2.169692039E0,-8.430212975E0,5.720042706E0
8.212353635E1,1.870290041E0,-8.741579056E0,5.145465851E0
8.217353635E1,1.992323995E0,-1.006062317E1,8.719744682E0
8.222353635E1,3.541377544E0,-8.250751495E0,5.992824078E0
8.227353635E1,3.309273720E0,-6.579664230E0,6.194120407E0
8.232353635E1,2.255833626E0,-6.213263035E0,7.350451946E0
8.237353635E1,2.928515911E0,-7.192525864E0,7.252346516E0
8.242353635E1,3.969991922E0,-5.669793129E0,8.396714211E0
8.247353635E1,2.660519600E0,-6.060122490E0,8.173882484E0
8.252353635E1,1.068395257E0,-5.550152302E0,7.352844715E0
8.257353635E1,1.341177106E0,-2.394617319E0,8.885149002E0
8.262353635E1,5.656034350E-1,-1.480259895E0,6.091228962E0
8.267353635E1,2.590230405E-1,-1.561615825E0,7.254739285E0
8.272353635E1,1.338784218E0,-1.168893814E0,6.828517437E0
8.277353635E1,1.278963685E0,-1.111466169E0,6.785446644E0
8.282353635E1,1.240678549E0,-1.762612939E0,6.773482800E0
8.287353635E1,2.207378894E-1,-4.728815556E0,8.334500313E0
8.292353635E1,2.251047850E0,-5.741578102E0,7.570591927E0
8.297353635E1,2.368296146E0,-8.169395447E0,8.116454124E0
8.302353635E1,2.356332064E0,-1.050359440E1,7.910671711E0
8.307353635E1,2.306082726E0,-7.137490749E0,6.502794743E0
8.312353635E1,2.480758905E0,-8.269894600E0,5.839683533E0
8.317353635E1,2.011466503E0,-1.034297562E1,8.547461510E0
8.322353635E1,1.116251707E0,-8.870791435E0,6.646663189E0
8.327353635E1,1.674078584E0,-8.703293800E0,6.833303452E0
8.332353635E1,3.885345757E-1,-8.956933022E0,5.068895817E0
8.337353635E1,3.067299604E0,-7.747959614E0,5.755934715E0
8.342353635E1,5.061717033E0,-7.465307713E0,9.196215630E0
8.347353635E1,2.950051308E0,-6.986443996E0,7.561020374E0
8.352353635E1,2.490330219E0,-6.984051228E0,6.194120407E0
8.357353635E1,3.215953588E0,-5.710471153E0,8.035098076E0
8.362353635E1,3.462414265E0,-5.207679272E0,8.509176254E0
8.367353635E1,2.001895189E0,-7.036992073E0,9.313464165E0
8.372353635E1,8.479565382E-1,-2.823231697E0,7.474878788E0
8.377353635E1,-7.079764009E-1,-9.056833982E-1,6.206084728E0
8.382353635E1,1.631007791E0,-1.350748420E0,6.943373203E0
8.387353635E1,1.068395257E0,-1.116251707E0,6.790232658E0
8.392353635E1,1.499402523E0,-2.066800594E0,6.454938412E0
8.397353635E1,2.497508526E0,-7.402794957E-1,7.556234837E0
8.402353635E1,1.607079506E0,-3.558127165E0,8.027919769E0
8.407353635E1,9.846464992E-1,-7.005586624E0,7.565805912E0
8.412353635E1,2.344367981E0,-7.769495010E0,6.641877651E0
8.417353635E1,1.853540182E0,-8.602496147E0,7.948956966E0
8.422353635E1,2.062014818E0,-1.206192017E1,6.900302410E0
8.427353635E1,2.267797709E0,-8.703293800E0,8.545068741E0
8.432353635E1,2.650948286E0,-5.080859661E0,6.076872349E0
8.437353635E1,-3.011965454E-1,-1.024247742E1,4.762315273E0
8.442353635E1,2.629412889E0,-7.553842068E0,6.301797390E0
8.447353635E1,2.301297188E0,-8.849256516E0,6.842874527E0
8.452353635E1,5.722435474E0,-1.225125217E1,9.780363083E0
8.457353635E1,3.220739365E0,-5.641079426E0,4.728815556E0
8.462353635E1,1.671685696E0,-5.593223095E0,5.023432255E0
8.467353635E1,3.270988464E0,-5.526223660E0,7.623233795E0
8.472353635E1,6.708876491E-1,-3.345165968E0,6.378367901E0
8.477353635E1,4.882255554E0,-6.582056999E0,1.192792225E1
8.482353635E1,1.635793328E0,-8.808578491E0,9.416654587E0
8.487353635E1,1.724327803E0,-1.333998680E0,5.921039581E0
8.492353635E1,7.043871880E-1,-1.188036442E0,5.612365723E0
8.497353635E1,-3.825525343E-1,-3.888336942E-2,5.360819817E0
8.502353635E1,1.228714466E0,-1.001396298E0,6.031408787E0
8.507353635E1,1.602293849E0,-5.368895531E-1,7.541877747E0
8.512353635E1,2.277369022E0,-2.784946442E0,8.444570541E0
8.517353635E1,1.535294771E0,-7.127919674E0,8.185846329E0
8.522353635E1,1.796112537E0,-7.920242786E0,7.762316704E0
8.527353635E1,1.666900039E0,-8.018348694E0,7.460521698E0
8.532353635E1,1.968395710E0,-9.890732765E0,6.320940018E0
8.537353635E1,2.148156643E0,-7.441379547E0,7.106084824E0
8.542353635E1,2.547757864E0,-9.409476280E0,7.278667450E0
8.547353635E1,6.684948206E-1,-1.080987549E1,7.343273640E0
8.552353635E1,2.507079840E0,-7.836493969E0,6.560222149E0
8.557353635E1,6.996015310E-1,-9.387940407E0,5.877968788E0
8.562353635E1,3.388236761E0,-6.751947403E0,5.399105072E0
8.567353635E1,2.593221426E0,-7.700103283E0,6.742375851E0
8.572353635E1,3.694518089E0,-8.186145782E0,8.126026154E0
8.577353635E1,3.699303865E0,-7.417450905E0,7.587341309E0
8.582353635E1,2.873480797E0,-7.472486019E0,8.743673325E0
8.587353635E1,2.624627352E0,-5.770291805E0,5.956932068E0
8.592353635E1,2.121835470E0,-2.658126831E0,8.451748848E0
8.597353635E1,1.872383654E-1,-3.713959932E0,7.024729252E0
8.602353635E1,2.374876440E-1,-1.793719649E0,7.740781307E0
8.607353635E1,2.660519600E0,-1.619043589E0,8.492426872E0
8.612353635E1,4.268197417E-1,-2.047657967E0,5.633901119E0
8.617353635E1,3.595215976E-1,-1.745863199E0,5.574080467E0
8.622353635E1,-1.142572835E-1,-3.776173353E0,7.855636597E0
8.627353635E1,6.517450809E-1,-3.687638760E0,5.521438122E0
8.632353635E1,3.052942514E0,-4.135096550E0,8.248059273E0
8.637353635E1,4.453640938E0,-1.357986641E1,1.028554821E1
8.642353635E1,2.727518797E0,-1.052273655E1,7.953742504E0
8.647353635E1,9.774680734E-1,-6.701697826E0,6.182156563E0
8.652353635E1,2.052144527E0,-9.960124016E0,6.529115677E0
8.657353635E1,4.866403043E-1,-6.948158741E0,6.759125710E0
8.662353635E1,1.475175142E0,-8.688637733E0,7.386344433E0
8.667353635E1,5.356034279E0,-7.996813297E0,7.721638680E0
8.672353635E1,4.324428558E0,-7.065706253E0,5.820540905E0
8.677353635E1,2.442473650E0,-8.576175690E0,8.724530220E0
8.682353635E1,2.904587507E0,-7.214061260E0,6.706483841E0
8.687353635E1,2.624627352E0,-4.977968216E0,6.557829380E0
8.692353635E1,4.264308929E0,-5.882754326E0,7.769495010E0
8.697353635E1,4.527818680E0,-5.930910110E0,1.131505966E1
8.702353635E1,4.220340848E-1,-3.747459412E0,7.970492363E0
8.707353635E1,1.393819153E-1,-4.353142738E0,5.629115105E0
8.712353635E1,4.890331328E-1,-6.110670567E-1,3.981956005E0
8.717353635E1,-3.873381615E-1,-2.129014015E0,6.184549332E0
8.722353635E1,5.943173170E-1,4.064807594E-1,5.674578667E0
8.727353635E1,2.188834429E0,-2.100300074E0,6.572186470E0
8.732353635E1,2.997907639E0,-3.996312857E0,9.624830246E0
8.737353635E1,1.858325839E0,-7.951349735E0,9.074181557E0
8.742353635E1,8.551349640E-1,-8.265108109E0,5.992824078E0
8.747353635E1,1.202393413E0,-6.005087376E0,5.581258774E0
8.752353635E1,2.224726915E0,-1.086012459E1,8.209774017E0
8.757353635E1,3.416950703E0,-1.047009468E1,8.116454124E0
8.762353635E1,1.717149377E0,-1.130070305E1,8.995218277E0
8.767353635E1,9.029914737E-1,-9.459725380E0,5.214858055E0
8.772353635E1,8.120641708E-1,-5.832505226E0,3.493520975E0
8.777353635E1,2.210369825E0,-5.602794170E0,4.513461590E0
8.782353635E1,4.015455723E0,-8.439785004E0,8.391927719E0
8.787353635E1,3.491128206E0,-8.037490845E0,9.512367249E0
8.792353635E1,3.902992725E0,-8.674281120E0,8.750851631E0
8.797353635E1,4.752744198E0,-7.070491791E0,8.528319359E0
8.802353635E1,2.859123945E0,-4.841577530E0,6.450152397E0
8.807353635E1,6.134598851E-1,-2.665305376E0,6.201299191E0
8.812353635E1,-7.118647546E-2,-1.333998680E0,5.033003330E0
8.817353635E1,1.853540182E0,-5.321039557E-1,7.202096939E0
8.822353635E1,1.195214868E0,-1.247856975E0,6.344868183E0
8.827353635E1,5.871388316E-1,-1.992623091E0,6.096014977E0
8.832353635E1,5.727819204E-1,-2.533699989E0,5.844469070E0
8.837353635E1,3.332005441E-1,-3.654139280E0,5.495117188E0
8.842353635E1,1.525723577E0,-4.985146999E0,7.896314621E0
8.847353635E1,3.962813377E0,-1.095613670E1,8.535497665E0
8.852353635E1,2.207977057E0,-1.153789139E1,8.209774017E0
8.857353635E1,2.136192322E0,-9.507581711E0,7.716853142E0
8.862353635E1,1.520937920E0,-8.301000595E0,6.737590313E0
8.867353635E1,4.722833633E-1,-6.876374245E0,5.509474277E0
8.872353635E1,9.197412133E-1,-8.162217140E0,7.063014030E0
8.877353635E1,2.540579557E0,-9.734899521E0,6.589235306E0
8.882353635E1,4.008276939E0,-1.094656563E1,8.571390152E0
8.887353635E1,2.487937450E0,-8.676673889E0,6.842874527E0
8.892353635E1,3.199203968E0,-5.985944748E0,6.533901215E0
8.897353635E1,2.993122101E0,-5.243571758E0,5.803791523E0
8.902353635E1,1.111466169E0,-5.344369411E0,7.031907558E0
8.907353635E1,1.824826360E0,-5.598008633E0,1.003430176E1
8.912353635E1,2.866302490E0,-4.077668667E0,1.003430176E1
8.917353635E1,1.149751306E0,-2.385046005E0,5.763113499E0
8.922353635E1,-6.553342938E-1,6.840481758E-1,2.729911566E0
8.927353635E1,4.172484577E-1,7.606185079E-1,3.596412420E0
8.932353635E1,2.430509567E0,-4.745565414E0,7.767102242E0
8.937353635E1,1.791326880E0,-3.314059258E0,9.349356651E0
8.942353635E1,3.381058455E0,-3.536591768E0,8.102097511E0
8.947353635E1,9.029914737E-1,-1.086730289E1,6.692126751E0
8.952353635E1,9.245268703E-1,-6.900302410E0,5.782256126E0
8.957353635E1,1.934896231E0,-3.678067446E0,6.253941059E0
8.962353635E1,3.203989506E0,-1.578246021E1,8.626424789E0
8.967353635E1,3.761816263E0,-1.102792168E1,1.057298565E1
8.972353635E1,2.665305376E0,-8.279465675E0,7.750352383E0
8.977353635E1,1.561316848E-1,-8.198109627E0,3.938885212E0
8.982353635E1,4.627120793E-1,-6.560521603E0,4.166203499E0
8.987353635E1,3.275774240E0,-8.394320488E0,9.327820778E0
8.992353635E1,5.066503048E0,-1.056580734E1,8.190631866E0
8.997353635E1,1.499402523E0,-7.606783390E0,7.031907558E0
9.002353635E1,3.670589924E0,-7.000801086E0,7.467700481E0
9.007353635E1,2.148156643E0,-3.448057413E0,6.526722908E0
9.012353635E1,1.631007791E0,-5.492724419E0,7.910671711E0
9.017353635E1,1.298106313E-1,-2.516651154E0,6.366403580E0
9.022353635E1,2.374876440E-1,1.170090318E0,5.382355213E0
9.027353635E1,9.269196987E-1,-9.224331379E-1,3.665804386E0
9.032353635E1,-9.032905847E-2,-2.416152716E0,5.854040623E0
9.037353635E1,2.614757061E0,-1.906182289E0,9.253643036E0
9.042353635E1,1.475175142E0,-4.704887390E0,6.521937370E0
9.047353635E1,-7.390831113E-1,-7.791030407E0,7.106084824E0
9.052353635E1,3.354737282E0,-6.888338089E0,7.410272598E0
9.057353635E1,3.036192894E0,-1.096331501E1,9.217751503E0
9.062353635E1,1.595115423E0,-8.897112846E0,7.779066563E0
9.067353635E1,1.609173268E-1,-9.912267685E0,4.716851711E0
9.072353635E1,3.393022537E0,-8.988039970E0,7.982456207E0
9.077353635E1,1.607079506E0,-8.011170387E0,7.436593533E0
9.082353635E1,8.048857450E-1,-8.257929802E0,5.205286503E0
9.087353635E1,2.658126831E0,-6.134299755E0,5.272285461E0
9.092353635E1,3.574877024E0,-9.050253868E0,1.198056412E1
9.097353635E1,5.308177948E0,-1.126481056E1,6.131906986E0
9.102353635E1,3.081656456E0,-5.059324265E0,8.190631866E0
9.107353635E1,3.330809116E0,-7.326523781E0,7.278667450E0
9.112353635E1,1.513460279E-1,-2.890230656E0,4.333701134E0
9.117353635E1,2.150549412E0,-2.631805897E0,9.220144272E0
9.122353635E1,9.463613629E-1,-2.579163790E0,7.800601959E0
9.127353635E1,2.327020019E-1,-2.231307179E-1,5.791827202E0
9.132353635E1,-1.118644550E-1,7.486543655E-1,3.000300407E0
9.137353635E1,-1.794616925E-3,-1.075573802E0,4.439284325E0
9.142353635E1,3.464807272E0,-5.349154949E0,8.861220360E0
9.147353635E1,2.064407825E0,-5.109573841E0,8.925827026E0
9.152353635E1,-1.812563092E-1,-7.877171993E0,7.048657417E0
9.157353635E1,1.690828323E0,-1.207418346E1,6.407081604E0
9.162353635E1,4.281058788E0,-6.912266254E0,7.661519051E0
9.167353635E1,1.231107235E0,-9.371191025E0,5.346463203E0
9.172353635E1,6.637091637E-1,-8.035098076E0,9.215357780E0
9.177353635E1,3.989134550E0,-1.103509998E1,7.776673794E0
9.182353635E1,5.991029739E-1,-1.038634586E1,6.282654762E0
9.187353635E1,2.918944597E0,-8.624032021E0,6.739983082E0
9.192353635E1,2.253440619E0,-7.666603565E0,5.949753284E0
9.197353635E1,2.222334146E0,-5.895017624E0,5.923432350E0
9.202353635E1,3.692125320E0,-7.068099022E0,8.540283203E0
9.207353635E1,4.961218834E0,-8.736793518E0,1.052991486E1
9.212353635E1,2.813660383E0,-5.571687698E0,7.982456207E0
9.217353635E1,2.196012974E0,-3.960420609E0,7.541877747E0
9.222353635E1,7.235297561E-1,-1.987837434E0,4.587639332E0
9.227353635E1,-1.797308922E0,-7.666005492E-1,6.131906986E0
9.232353635E1,2.349153519E0,1.860419661E-1,6.464509487E0
9.237353635E1,6.996015310E-1,-8.506484628E-1,5.767899036E0
9.242353635E1,1.985145450E0,-3.153740168E0,6.105586052E0
9.247353635E1,1.635793328E0,-3.005086184E0,8.612068176E0
9.252353635E1,2.425724030E0,-5.973980904E0,8.360821724E0
9.257353635E1,1.042074203E0,-1.101834965E1,7.235596657E0
9.262353635E1,1.700399637E0,-7.977670670E0,6.311368942E0
9.267353635E1,3.376272678E0,-7.558627605E0,7.448557854E0
9.272353635E1,2.629412889E0,-1.132463169E1,7.724031448E0
9.277353635E1,1.733899117E0,-7.453343391E0,7.867600918E0
9.282353635E1,1.209571838E0,-9.502796173E0,6.699305058E0
9.287353635E1,1.757827282E0,-9.663115501E0,6.153442383E0
9.292353635E1,2.782553673E0,-7.398308277E0,6.332904339E0
9.297353635E1,2.557329178E0,-8.866005898E0,7.539484978E0
9.302353635E1,3.737888098E0,-7.807780266E0,6.751947403E0
9.307353635E1,3.402593851E0,-5.308177948E0,7.405487061E0
9.312353635E1,3.785744429E0,-6.936194420E0,8.947361946E0
9.317353635E1,2.047358990E0,-6.986443996E0,8.614460945E0
9.322353635E1,9.559326172E-1,-5.150251865E0,1.003190899E1
9.327353635E1,2.279163599E-1,-3.981058598E-1,5.202893734E0
9.332353635E1,-8.422735929E-1,-1.974078640E-2,2.995514870E0
9.337353635E1,7.857431173E-1,5.548357368E-1,4.379463673E0
9.342353635E1,1.721935034E0,-3.125026464E0,7.651947498E0
9.347353635E1,2.732304335E0,-3.237488985E0,9.842576981E0
9.352353635E1,1.173679471E0,-4.281357765E0,6.909873486E0
9.357353635E1,1.185643673E0,-7.135097980E0,5.248357296E0
9.362353635E1,3.084049225E0,-5.188536644E0,4.980361462E0
9.367353635E1,6.565307379E-1,-1.070937729E1,7.508378506E0
9.372353635E1,3.596412420E0,-1.490160179E1,9.148359299E0
9.377353635E1,2.892623425E0,-6.021837234E0,8.094919205E0
9.382353635E1,8.599206209E-1,-1.157856941E1,6.787839413E0
9.387353635E1,5.919244885E-1,-5.375475883E0,4.908576488E0
9.392353635E1,1.798505306E0,-7.163811684E0,6.929016113E0
9.397353635E1,4.142275333E0,-1.085294628E1,7.180561543E0
9.402353635E1,2.282154560E0,-8.549854279E0,7.508378506E0
9.407353635E1,4.142275333E0,-8.334500313E0,8.657531738E0
9.412353635E1,4.185346127E0,-5.324927807E0,5.959324837E0
9.417353635E1,1.985145450E0,-5.933302879E0,7.774280548E0
9.422353635E1,1.393819213E0,-6.093621731E0,7.812565804E0
9.427353635E1,1.858325839E0,-3.685245991E0,9.842576981E0
9.432353635E1,1.295713425E0,-3.972384691E0,5.277071476E0
9.437353635E1,-6.720840335E-1,1.186840057E0,2.224726915E0
9.442353635E1,1.642971873E0,1.067198873E0,5.866004944E0
9.447353635E1,2.011466503E0,-3.828815222E0,8.813064575E0
9.452353635E1,1.415354609E0,-4.178167343E0,8.930612564E0
9.457353635E1,2.315654039E0,-2.363510609E0,7.412665367E0
9.462353635E1,1.204786181E0,-6.186942101E0,6.579364777E0
9.467353635E1,1.791326880E0,-1.026161957E1,6.582056999E0
9.472353635E1,1.956431627E0,-9.210572243E0,6.847660065E0
9.477353635E1,3.290131092E0,-8.885149002E0,9.579366684E0
9.482353635E1,2.406581402E0,-1.216032505E1,8.003992081E0
9.487353635E1,1.269392371E0,-7.302595615E0,6.189334869E0
9.492353635E1,5.847460628E-1,-6.840481758E0,5.799005508E0
9.497353635E1,1.664507270E0,-9.833304405E0,6.802196503E0
9.502353635E1,3.302095175E0,-7.436593533E0,6.301797390E0
9.507353635E1,3.393022537E0,-7.549056530E0,7.618448257E0
9.512353635E1,3.326023579E0,-7.398308277E0,7.795815945E0
9.517353635E1,3.651447296E0,-6.948158741E0,8.808279037E0
9.522353635E1,1.448854089E0,-7.376772881E0,7.858029366E0
9.527353635E1,1.901396751E0,-5.047360420E0,9.466903687E0
9.532353635E1,1.599901080E0,-4.542175770E0,6.308976173E0
9.537353635E1,-1.500598907E0,5.428716540E-1,3.701696634E0
9.542353635E1,1.013360381E0,2.267199457E-1,5.229214668E0
9.547353635E1,8.168498278E-1,-9.631111473E-2,6.163013935E0
9.552353635E1,1.623829246E0,-3.333201885E0,9.813862801E0
9.557353635E1,1.104287624E0,-4.458426952E0,7.479664326E0
9.562353635E1,7.929216027E-1,-4.743172646E0,5.686542988E0
9.567353635E1,1.638186216E0,-5.796612740E0,8.070990562E0
9.572353635E1,2.634198666E0,-1.131745243E1,6.895516872E0
9.577353635E1,2.420938253E0,-8.054241180E0,1.009890842E1
9.582353635E1,3.445664644E0,-1.353440285E1,7.793423176E0
9.587353635E1,-2.811566554E-2,-8.592925072E0,7.532306671E0
9.592353635E1,2.423331022E0,-6.890730858E0,6.258726597E0
9.597353635E1,4.316053987E-1,-8.681459427E0,5.758327484E0
9.602353635E1,2.095514536E0,-7.745566845E0,5.550152302E0
9.607353635E1,3.802494287E0,-7.048956394E0,7.716853142E0
9.612353635E1,4.374678135E0,-8.202895164E0,8.781958580E0
9.617353635E1,2.495115757E0,-7.510771275E0,6.905087948E0
9.622353635E1,3.148655415E0,-8.918647766E0,1.002233791E1
9.627353635E1,2.686840773E0,-5.581258774E0,8.063812256E0
9.632353635E1,2.260619164E0,-3.934099436E0,4.958825588E0
9.637353635E1,-1.289731383E0,-7.091727853E-1,4.776672363E0
9.642353635E1,1.013360381E0,5.356931686E-1,5.923432350E0
9.647353635E1,1.034895778E0,-4.794618487E-1,6.783053875E0
9.652353635E1,8.623134494E-1,-2.047657967E0,7.206882477E0
9.657353635E1,1.645364642E0,-3.402593851E0,6.945765972E0
9.662353635E1,2.251047850E0,-1.983051777E0,7.338488102E0
9.667353635E1,5.416752100E-1,-7.108777046E0,5.846862316E0
9.672353635E1,1.223928809E0,-9.679864883E0,7.498806953E0
9.677353635E1,4.365106583E0,-7.147062302E0,8.470890999E0
9.682353635E1,1.800898194E0,-1.296221924E1,8.817850113E0
9.687353635E1,2.270190477E0,-7.496414185E0,7.496414185E0
9.692353635E1,1.571187139E0,-8.671888351E0,7.027122021E0
9.697353635E1,1.207179070E0,-9.004789352E0,6.313761711E0
9.702353635E1,1.714756489E0,-8.557032585E0,5.581258774E0
9.707353635E1,2.768196583E0,-8.834898949E0,6.586842537E0
9.712353635E1,3.768994808E0,-7.185347080E0,6.538686752E0
9.717353635E1,3.107977629E0,-6.455237389E0,8.221738815E0
9.722353635E1,2.770589590E0,-7.515556812E0,7.417450905E0
9.727353635E1,3.800101519E0,-6.790232658E0,9.275178909E0
9.732353635E1,1.748256087E0,-8.614460945E0,1.032622623E1
9.737353635E1,2.763411045E0,-1.312463164E0,5.609972477E0
9.742353635E1,3.409772366E-2,-7.091727853E-1,4.101597309E0
9.747353635E1,-3.290131316E-2,-4.845465720E-2,4.934897423E0
9.752353635E1,1.396211982E0,-5.368895531E-1,4.668995380E0
9.757353635E1,2.820838690E0,-2.638984203E0,9.160323143E0
9.762353635E1,1.276570916E0,-1.156929731E0,6.720840454E0
9.767353635E1,-1.045663476E0,-4.238286972E0,5.312963486E0
9.772353635E1,8.503493667E-1,-1.017787075E1,7.144669533E0
9.777353635E1,2.413759947E0,-8.930612564E0,7.795815945E0
9.782353635E1,4.288237095E0,-6.718447685E0,8.849256516E0
9.787353635E1,2.286940336E0,-1.433898926E1,6.749554634E0
9.792353635E1,1.827219248E0,-7.216454029E0,8.035098076E0
9.797353635E1,2.749054193E0,-1.086969566E1,7.410272598E0
9.802353635E1,8.168498278E-1,-7.688138962E0,5.066503048E0
9.807353635E1,-3.083750308E-1,-6.423831463E0,3.833600998E0
9.812353635E1,4.367499352E0,-8.705686569E0,8.324929237E0
9.817353635E1,6.385546207E0,-1.022572803E1,9.145966530E0
9.822353635E1,2.437688112E0,-6.785446644E0,8.164310455E0
9.827353635E1,2.356332064E0,-9.251250267E0,5.995217323E0
9.832353635E1,2.327618122E0,-3.876671791E0,5.703292847E0
9.837353635E1,2.732304335E0,-2.792124987E0,1.003669453E1
9.842353635E1,1.161715388E0,-7.163811684E0,8.717351913E0
9.847353635E1,-5.979065299E-1,1.615454435E0,4.891527653E0
9.852353635E1,1.939681888E0,4.184448719E-1,6.850052834E0
9.857353635E1,-5.141577721E-1,-1.678864241E0,3.788137436E0
9.862353635E1,1.736291885E0,-1.822433591E0,6.361618042E0
9.867353635E1,3.603590965E0,-2.160120726E0,8.731708527E0
9.872353635E1,1.585544109E0,-6.854838848E0,7.233203888E0
9.877353635E1,1.669292927E0,-9.557830811E0,7.230811119E0
9.882353635E1,2.772982359E0,-6.905087948E0,5.636293888E0
9.887353635E1,1.968395710E0,-9.897911072E0,6.878767014E0
9.892353635E1,3.086441994E0,-1.175085258E1,8.537890434E0
9.897353635E1,1.537687659E0,-7.324131012E0,8.006384850E0
9.902353635E1,1.188036442E0,-7.659425259E0,6.423831463E0
9.907353635E1,2.095514536E0,-8.183753014E0,5.736792088E0
9.912353635E1,1.400997639E0,-9.993623734E0,6.361618042E0
9.917353635E1,3.800101519E0,-9.067003250E0,1.007976532E1
9.922353635E1,3.584448338E0,-9.486045837E0,5.911468506E0
9.927353635E1,2.971586704E0,-5.128716469E0,6.847660065E0
9.932353635E1,1.446461320E0,-6.320940018E0,6.615556240E0
9.937353635E1,2.205584288E0,-5.516652584E0,7.951349735E0
9.942353635E1,1.192822099E0,-5.696114540E0,9.268000603E0
9.947353635E1,1.305284739E0,-2.138585329E0,7.671090126E0
9.952353635E1,-2.629113793E-1,-2.470589429E-1,4.326522350E0
9.957353635E1,8.264211416E-1,-1.216750264E0,4.860421181E0
9.962353635E1,-1.012163997E0,-1.987837434E0,4.168596268E0
9.967353635E1,2.322832584E0,5.682953820E-2,8.003992081E0
9.972353635E1,2.756232500E0,-4.520640373E0,6.866802692E0
9.977353635E1,8.195417374E-2,-8.918647766E0,7.388737202E0
9.982353635E1,2.607578516E0,-7.139883518E0,8.774779320E0
9.987353635E1,2.124228239E0,-1.312493134E1,8.183453560E0
9.992353635E1,2.133799553E0,-8.133204460E0,7.058228493E0
9.997353635E1,2.327618122E0,-4.329214573E0,5.708078384E0
1.000235364E2,2.341975212E0,-1.209571838E1,6.960123062E0
1.000735364E2,1.879861236E0,-8.796614647E0,8.724530220E0
1.001235364E2,3.045764208E0,-9.035896301E0,7.340880871E0
1.001735364E2,1.607079506E0,-8.573782921E0,6.304190159E0
1.002235364E2,2.327618122E0,-6.993622303E0,6.706483841E0
1.002735364E2,5.710471153E0,-7.376772881E0,8.118846893E0
1.003235364E2,2.708376169E0,-7.012764931E0,7.108478069E0
1.003735364E2,1.858325839E0,-6.304190159E0,8.542675972E0
1.004235364E2,2.557329178E0,-5.772684574E0,8.356036186E0
1.004735364E2,1.872682810E0,-4.015455723E0,7.587341309E0
1.005235364E2,1.728814393E-1,-1.001396298E0,4.491926193E0
1.005735364E2,-2.093719877E-2,5.715855360E-1,4.568496704E0
1.006235364E2,2.662015259E-1,7.342974544E-1,4.527818680E0
1.006735364E2,1.796112537E0,-6.373881102E-1,9.033503532E0
1.007235364E2,2.040180445E0,-5.459224701E0,7.721638680E0
1.007735364E2,2.350948304E-1,-4.848755836E0,6.160621166E0
1.008235364E2,1.245464206E0,-3.902992725E0,8.245666504E0
1.008735364E2,2.600399971E0,-8.875576973E0,5.693721294E0
1.009235364E2,2.470589429E-1,-1.009651470E1,6.850052834E0
1.009735364E2,2.878266573E0,-1.532034588E1,1.036451149E1
1.010235364E2,4.362713814E0,-5.140680313E0,6.375975132E0
1.010735364E2,-2.326421738E0,-8.741579056E0,6.088836193E0
1.011235364E2,1.369890928E0,-8.588139534E0,4.499104977E0
1.011735364E2,1.973181367E0,-9.203393936E0,1.084576797E1
1.012235364E2,5.071288586E0,-1.081705379E1,7.946564198E0
1.012735364E2,-3.466601670E-1,-4.796113968E0,5.076074123E0
1.013235364E2,4.887041092E0,-6.320940018E0,7.398308277E0
1.013735364E2,2.806481838E0,-7.539484978E0,1.048176003E1
1.014235364E2,2.926122904E0,-6.948158741E0,8.188239098E0
1.014735364E2,1.822433591E0,-6.543771744E0,9.548259735E0
1.015235364E2,2.114656925E0,-2.105085611E0,5.758327484E0
1.015735364E2,-1.828415632E0,-1.130608693E-1,4.252345085E0
1.016235364E2,1.408176184E0,5.883352757E-1,6.493223190E0
1.016735364E2,7.235297561E-1,-2.685943544E-1,6.565008163E0
1.017235364E2,2.284547329E0,-2.449652195E0,8.322536469E0
1.017735364E2,1.250249863E0,-1.829612017E0,6.557829380E0
1.018235364E2,9.798609018E-1,-3.991527319E0,6.165406704E0
1.018735364E2,2.131406784E0,-9.179466248E0,7.149455070E0
1.019235364E2,2.677269459E0,-9.907482147E0,8.243273735E0
1.019735364E2,1.930110574E0,-8.913862228E0,7.752745152E0
1.020235364E2,7.067800164E-1,-1.031665516E1,7.419844151E0
1.020735364E2,2.468794823E0,-8.305786133E0,7.671090126E0
1.021235364E2,2.013859272E0,-9.816255569E0,6.385546207E0
1.021735364E2,5.823532343E-1,-1.036451149E1,7.254739285E0
1.022235364E2,1.942074656E0,-7.702496052E0,5.514259815E0
1.022735364E2,2.950051308E0,-6.553342819E0,7.252346516E0
1.023235364E2,4.432105541E0,-7.807780266E0,7.429415226E0
1.023735364E2,2.186441660E0,-7.192525864E0,7.685447216E0
1.024235364E2,4.295415878E0,-8.454141617E0,9.701400757E0
1.024735364E2,3.014657497E0,-6.184549332E0,8.564210892E0
1.025235364E2,1.472782373E0,-4.539782524E0,6.409474373E0
1.025735364E2,-7.118647546E-2,-2.607877493E0,4.585246563E0
1.026235364E2,-4.328017831E-1,2.721835673E-1,7.058228493E0
1.026735364E2,2.289333105E0,-5.324030295E-2,6.368796349E0
1.027235364E2,-7.223333120E-1,-8.673982024E-1,5.519045353E0
1.027735364E2,2.997010350E-1,-1.207179070E0,7.206882477E0
1.028235364E2,2.179263115E0,-3.182454109E0,7.623233795E0
1.028735364E2,7.881359458E-1,-6.285048008E0,7.295417309E0
1.029235364E2,1.966002941E0,-7.704888821E0,7.127620220E0
1.029735364E2,2.052144527E0,-8.600103378E0,7.149455070E0
1.030235364E2,1.259821177E0,-1.262961674E1,8.236095428E0
1.030735364E2,2.761018276E0,-8.743971825E0,9.239286423E0
1.031235364E2,5.799604058E-1,-1.054187965E1,7.185347080E0
1.031735364E2,8.144569993E-1,-8.494819641E0,6.043372631E0
1.032235364E2,1.497009635E0,-5.930910110E0,5.583651543E0
1.032735364E2,1.961217284E0,-9.126823425E0,7.029514790E0
1.033235364E2,4.178167343E0,-7.735995770E0,6.493223190E0
1.033735364E2,2.016252279E0,-5.930910110E0,8.552247047E0
1.034235364E2,3.711267948E0,-9.842875481E0,8.070990562E0
1.034735364E2,1.705185294E0,-5.938088417E0,7.513164043E0
1.035235364E2,3.261417150E0,-4.115953922E0,8.564210892E0
1.035735364E2,6.684948206E-1,-5.475974560E0,6.371189594E0
1.036235364E2,6.254240274E-1,-9.439685345E-1,7.482057095E0
1.036735364E2,3.212364316E-1,4.758726060E-1,5.940182209E0
1.037235364E2,5.536393523E-1,-8.793623447E-1,5.360819817E0
1.037735364E2,6.780661345E-1,-8.434699774E-1,6.031408787E0
1.038235364E2,2.033001900E0,-1.161715388E0,7.484450340E0
1.038735364E2,1.903789520E0,-3.771387577E0,7.467700481E0
1.039235364E2,6.852445602E-1,-7.661818027E0,6.069693565E0
1.039735364E2,2.042573214E0,-7.989634991E0,7.829315662E0
1.040235364E2,2.418545485E0,-1.056341457E1,7.556234837E0
1.040735364E2,1.985145450E0,-1.113320541E1,9.411869049E0
1.041235364E2,2.093121529E0,-1.012283611E1,8.468498230E0
1.041735364E2,1.345962763E0,-8.683852196E0,6.026622772E0
1.042235364E2,1.796112537E0,-6.253941059E0,5.564508915E0
1.042735364E2,1.156929731E0,-9.236893654E0,6.285048008E0
1.043235364E2,2.701197624E0,-9.126823425E0,7.034300327E0
1.043735364E2,4.214059830E0,-6.785446644E0,8.111668587E0
1.044235364E2,1.482353687E0,-1.007737255E1,6.074479580E0
1.044735364E2,3.084049225E0,-5.286642551E0,6.914659023E0
1.045235364E2,3.337987661E0,-6.184549332E0,9.488439560E0
1.045735364E2,2.763411045E0,-8.803792953E0,8.873184204E0
