"Time (s)","Gyroscope x (rad/s)","Gyroscope y (rad/s)","Gyroscope z (rad/s)"
5.248645800E-2,-3.665083554E-3,-5.951179266E-1,1.073564067E-1
1.041545830E-1,-1.174353883E-1,-9.194778204E-1,2.983988822E-1
1.549624470E-1,-1.427855492E-1,-8.893936276E-1,2.240282297E-1
2.057695310E-1,-3.565820754E-1,-8.773293495E-1,4.271349311E-1
2.565774990E-1,-2.380777150E-1,-4.787515402E-1,1.110214889E-1
3.073861970E-1,-7.605048269E-2,-6.306997687E-2,-7.605048269E-2
3.581941140E-1,-3.603998944E-2,-2.089097649E-1,1.336228400E-1
4.090002070E-1,1.985253533E-3,-1.068982705E-1,1.291942000E-1
4.598081760E-1,-1.502684206E-1,-2.970244884E-1,2.730487287E-1
5.106168740E-1,-1.490467340E-1,-1.296828747E0,7.834116220E-1
5.614247390E-1,-4.340069890E-1,-2.082225561E0,3.403946459E-1
6.122318220E-1,-1.316986680E0,-2.241656780E0,-8.780929446E-2
6.630397390E-1,-1.797418118E0,-3.081571817E0,4.599680007E-1
7.138483840E-1,-2.212183237E0,-2.606943369E0,6.016845703E-1
7.646563010E-1,-2.594726562E0,-1.722131133E0,-5.025745630E-1
8.154633320E-1,-2.255248070E0,-1.964790225E0,5.905365944E-1
8.662712490E-1,-1.968913436E0,-1.421288848E0,6.429167092E-2
9.170798950E-1,-2.438044071E0,-1.730682969E0,7.895200700E-2
9.678877590E-1,-1.996706963E0,-2.081156492E0,-2.440334857E-1
1.018694791E0,-2.814478874E-1,-2.587396383E0,-8.047912270E-2
1.069502707E0,-5.549547076E-1,-1.363869190E0,-3.437542915E-1
1.120311353E0,-8.707627654E-1,-6.055023670E-1,-8.918370306E-2
1.171119218E0,-8.780929446E-1,1.437018216E-1,5.441122055E-1
1.221926249E0,-6.623111367E-1,1.163969398E0,1.216655016E0
1.272734114E0,-1.618745178E-2,1.039509296E0,9.321529269E-1
1.323542499E0,3.999522328E-1,8.017370105E-1,1.524369359E0
1.374350312E0,3.642176688E-1,5.001311898E-1,2.025264025E0
1.425157343E0,-7.777612805E-1,-7.345438004E-1,2.021599054E0
1.475965208E0,2.623589039E-1,-5.494571328E-1,8.415948153E-1
1.526773801E0,1.780619770E-1,-1.235438585E0,1.567128658E0
1.577581614E0,3.576510847E-1,-6.788040400E-1,1.844911456E0
1.628388593E0,4.989095032E-1,6.084038615E-1,1.447097182E0
1.679196458E0,6.700994372E-1,-7.186617851E-1,1.756338596E0
1.730005051E0,9.009997360E-3,4.860817194E-1,3.706315756E-1
1.780812864E0,2.557922900E-1,-1.340198874E0,2.199050039E-2
1.831619843E0,2.748812735E-2,-1.264453828E-1,3.657447994E-1
1.882427708E0,4.825693369E-2,-4.808894992E-1,7.797465324E-1
1.933236301E0,1.437018216E-1,-1.595838517E-1,6.038225293E-1
1.984044062E0,1.137702987E-1,-7.330167107E-3,1.511846930E-1
2.034851041E0,1.366770715E-1,1.087308154E-1,1.424801201E-1
2.085658854E0,8.199097514E-1,7.605048269E-2,6.352811307E-2
2.136467447E0,9.280297160E-1,2.495769262E0,6.696413159E-1
2.187275208E0,-3.497100621E-2,-8.851176500E-1,1.163664013E-1
2.238082135E0,-6.097782850E-1,1.539335102E-1,1.781230569E0
2.288889999E0,-9.292513728E-1,1.297592282E0,2.772788525E0
2.339698541E0,3.385621011E-1,6.360446811E-1,3.162661791E-1
2.390506301E0,-2.489202656E-2,2.916795611E-1,4.718795046E-2
2.441313229E0,8.948912472E-2,1.024696305E-1,-4.611896724E-2
2.492121041E0,6.383354217E-2,5.748072863E-1,6.856760383E-2
2.542929583E0,1.223221645E-1,3.112266660E-1,2.084516287E-1
2.593737343E0,2.426590770E-1,4.611896724E-2,1.073564067E-1
2.644544218E0,1.137702987E-1,6.108472496E-2,2.519745007E-2
2.695352031E0,6.780404598E-2,4.077405483E-2,2.641914412E-2
2.746160572E0,-3.512371704E-2,6.230641901E-2,2.895416021E-1
2.796968281E0,-3.953709006E-1,5.888567567E-1,-6.636855602E-1
2.847775208E0,3.591781855E-1,-3.492519259E-1,-1.856364846E0
2.898582968E0,4.022429287E-1,-1.801999472E-2,-1.066844702E0
2.949391510E0,2.706053257E-1,-4.534013867E-1,5.195255876E-1
3.000199218E0,2.950392365E-1,2.519745007E-2,4.755446017E-1
3.051006145E0,5.624375939E-1,-7.330167294E-2,3.603998721E-1
3.101813906E0,2.886253297E-1,-7.528692484E-2,3.807105422E-1
3.152622395E0,1.235438585E-1,1.145338640E-2,2.258607745E-1
3.203430104E0,-1.600419879E-1,6.108472496E-2,3.797942698E-1
3.254236979E0,-5.421269536E-1,-9.437590092E-2,5.413633585E-1
3.305044739E0,-7.617265582E-1,-2.170034945E-1,3.724641204E-1
3.355853281E0,-8.625163436E-1,-8.231166750E-2,1.800472289E-1
3.406660989E0,-9.888089895E-1,-4.993676394E-2,-9.819369763E-2
3.457467812E0,-8.177717924E-1,-2.463241518E-1,-2.848075330E-1
3.508275572E0,-2.785463631E-1,-1.423274130E-1,-4.466820657E-1
3.559084062E0,7.101099193E-2,3.100049868E-2,-3.830012381E-1
3.609891770E0,1.137702987E-1,8.948912472E-2,-1.969982386E-1
3.660698645E0,-2.629697323E-1,-6.765133142E-2,-1.556133330E-1
3.711506354E0,-3.309265077E-1,3.159607351E-1,1.420219894E-2
3.762314843E0,-2.502946556E-1,9.071081877E-2,-5.589252338E-2
3.813122551E0,-1.896680743E-1,-7.055285573E-2,9.376505762E-2
3.863929374E0,-2.183778882E-1,-3.483356535E-1,6.856760383E-2
3.914737083E0,-2.483094037E-1,-1.832541777E-3,7.177454978E-2
3.965545572E0,-3.280249834E-1,-1.557660475E-2,4.688252881E-2
4.016353229E0,-1.577513069E-1,5.299099907E-2,9.101624042E-2
4.067160104E0,-1.360662282E-1,2.243336588E-1,7.711946964E-2
4.117967812E0,-6.032116711E-2,-8.918370306E-2,5.589252338E-2
4.168776249E0,-1.847812906E-2,-2.573194206E-1,5.803048983E-2
4.219583906E0,-1.582094431E-1,-3.292466700E-1,1.359135192E-2
4.270390729E0,-2.571666837E-1,-1.916533262E-1,1.195733473E-1
4.321198437E0,-4.332434237E-1,-2.718270384E-2,9.284878522E-2
4.372006874E0,-5.071559548E-1,-8.154810965E-2,1.667613089E-1
4.422814531E0,-4.953971207E-1,-3.350497186E-1,3.035911024E-1
4.473621354E0,-5.456393361E-1,-5.473191738E-1,2.803788781E-1
4.524429062E0,-7.339329720E-1,-3.704788685E-1,4.069769979E-1
4.575237499E0,-8.067765236E-1,-1.275143623E-1,4.630222321E-1
4.626045156E0,-6.392516494E-1,9.926267900E-3,4.424061179E-1
4.676851926E0,-6.644490957E-1,3.883461356E-1,4.027010500E-1
4.727659635E0,-3.017585576E-1,4.023956358E-1,3.032856584E-1
4.778468020E0,8.063184023E-1,-5.141806602E-1,-1.595838517E-1
4.829275676E0,1.622563004E0,-8.747332692E-1,-7.224795818E-1
4.880082447E0,2.323510170E0,-1.311641812E0,-1.088071704E0
4.930890104E0,2.465379477E0,-9.219212532E-1,-1.934705973E0
4.981698541E0,2.837385416E0,2.596100792E-3,-1.763974190E0
5.032506145E0,3.152124643E0,-6.943806410E-1,-1.070051670E0
5.083312916E0,2.584189415E0,-4.275930822E-1,-7.519529462E-1
5.134120572E0,1.718466043E0,-1.898207814E-1,-4.482091665E-1
5.184929010E0,8.105943203E-1,1.757712960E-1,-4.054498672E-1
5.235736456E0,4.240806997E-1,1.922641695E-1,-4.381301999E-1
5.286543227E0,-8.704573661E-2,-6.368082762E-2,-2.496838123E-1
5.337350883E0,-8.551861346E-2,2.122694254E-2,3.054236295E-4
5.388159268E0,-1.091889441E-1,3.364241421E-1,3.665083554E-3
5.438966873E0,-1.131594554E-1,4.227063060E-1,2.118112892E-1
5.489773591E0,-1.339282542E-1,4.089622498E-1,5.876350403E-1
5.540581248E0,7.192726433E-2,3.506263196E-1,5.945070982E-1
5.591389633E0,3.512371778E-1,4.691306949E-1,2.472404242E-1
5.642197185E0,6.923953891E-1,3.205420971E-1,1.328592747E-1
5.693003904E0,9.827005267E-1,3.972034156E-1,1.250709742E-1
5.743811560E0,1.004080176E0,4.390464723E-1,3.130592033E-2
5.794619893E0,1.129609346E0,3.067980409E-1,-1.435490996E-1
5.845427498E0,1.178935170E0,3.787253052E-2,-3.049654961E-1
5.896234216E0,8.391514421E-1,-1.542389300E-2,-4.283566475E-1
5.947041820E0,1.044854283E0,2.464768738E-1,-6.343649030E-1
5.997850154E0,9.921686649E-1,5.427377820E-1,-7.238540053E-1
6.048657706E0,2.370087355E-1,2.086043358E-1,-5.401417017E-1
6.099464425E0,-1.171299592E-1,-8.857285231E-2,-4.866925478E-1
6.150272081E0,-6.754443645E-1,8.506047726E-2,-3.457395434E-1
6.201080414E0,-1.543458343E0,-3.182514310E-1,1.693574041E-1
6.251887966E0,-1.612636805E0,-6.149705052E-1,5.401417017E-1
6.302694633E0,-9.909469485E-1,1.233911440E-1,6.742226481E-1
6.353502237E0,-1.485122442E0,1.172826737E-1,5.425850749E-1
6.404310570E0,-1.719229579E0,-2.857238054E-1,5.657972693E-1
6.455118123E0,-9.752176404E-1,9.132166207E-2,6.642963886E-1
6.505924841E0,-1.136786699E0,2.544178963E-1,5.754181147E-1
6.556732393E0,-1.493979692E0,2.568612695E-1,3.840702176E-1
6.607540727E0,-1.354553819E0,1.982199401E-1,3.423798978E-1
6.658348279E0,-1.086239100E0,4.056025743E-1,1.200314835E-1
6.709154945E0,-9.938485026E-1,-1.491994411E-1,-1.450762302E-1
6.759962550E0,-8.645015955E-1,1.597365588E-1,-9.498675168E-2
6.810770831E0,-8.501466513E-1,2.284568697E-1,-4.049917459E-1
6.861578383E0,9.193251282E-2,7.837170362E-1,-5.384618640E-1
6.912385050E0,7.466080785E-1,-2.527380586E-1,-7.209524512E-1
6.963192654E0,1.016907930E0,-4.317162931E-1,-6.105418205E-1
7.014000935E0,9.061918855E-1,1.969982386E-1,-2.374668717E-1
7.064808435E0,7.061394453E-1,-4.356867969E-1,-8.322793990E-2
7.115615154E0,9.837695360E-1,-5.711421967E-1,-3.130592033E-2
7.166422706E0,7.826480269E-1,-3.153499067E-1,1.357607991E-1
7.217230987E0,9.506310225E-1,-2.594573796E-1,-1.018587798E-1
7.268038539E0,1.169008970E0,3.994941115E-1,1.879882365E-1
7.318845206E0,1.302631736E0,1.638597846E-1,-1.840177327E-1
7.369652758E0,1.256207347E0,3.494046330E-1,-4.401154518E-1
7.420461039E0,9.513946176E-1,4.424061179E-1,-6.281036735E-1
7.471268539E0,1.012784719E0,4.254551232E-1,-6.739172339E-1
7.522075258E0,1.044548869E0,5.070032477E-1,-6.516213417E-1
7.572882810E0,1.118614078E0,2.742704153E-1,-4.669927359E-1
7.623691091E0,1.250709772E0,1.120904684E-1,-5.772506595E-1
7.674498591E0,9.559759498E-1,-1.171299592E-1,-3.907895386E-1
7.725305258E0,3.976615667E-1,-2.916795611E-1,-1.885990947E-1
7.776112810E0,-1.634016447E-2,-1.974563748E-1,-1.371352077E-1
7.826921091E0,-5.146388412E-1,2.698417902E-1,-2.901524492E-2
7.877728591E0,-1.208866715E0,1.921114624E-1,9.223793447E-2
7.928535258E0,-1.869956136E0,-8.108997345E-2,4.408790171E-1
7.979342810E0,-1.942036152E0,6.001574174E-2,7.203416228E-1
8.030151091E0,-1.659213901E0,1.740914769E-2,9.005415440E-1
8.080958591E0,-1.736944199E0,-3.292466700E-1,9.087880254E-1
8.131765258E0,-1.880493283E0,-2.649549842E-1,5.835118294E-1
8.182572810E0,-1.632489324E0,-1.052184403E-1,5.879405141E-1
8.233381091E0,-1.370588541E0,-9.009997360E-3,2.315111160E-1
8.284188591E0,-1.168703556E0,-4.117110670E-1,2.086043358E-1
8.334995258E0,-6.835380793E-1,-4.036173224E-1,4.275930673E-2
8.385802758E0,2.134911120E-1,1.244601309E-1,6.872031838E-3
8.436611039E0,6.607840061E-1,-2.489202656E-2,-2.014268786E-1
8.487418539E0,7.895200849E-1,-2.678565085E-1,-2.443388999E-1
8.538225206E0,8.096780181E-1,-1.188097894E-1,-1.577513069E-1
8.589032758E0,1.006218195E0,2.808370292E-1,-2.761029601E-1
8.639840987E0,7.267554998E-1,-1.954711229E-2,-5.578562617E-1
8.690648487E0,6.441384554E-1,2.086043358E-1,-9.107732773E-1
8.741455154E0,8.324320912E-1,1.415638477E-1,-9.061918855E-1
8.792262654E0,1.021336675E0,2.342599183E-1,-7.168292403E-1
8.843070935E0,1.477486849E0,5.824428797E-1,-4.622586668E-1
8.893878435E0,1.944479585E0,7.530219555E-1,1.432436854E-1
8.944685050E0,2.106506824E0,5.580089688E-1,-1.020114943E-1
8.995492602E0,2.044353008E0,4.706578255E-1,-4.274403751E-1
9.046300831E0,1.241699815E0,-2.695363462E-1,-2.542651594E-1
9.097108331E0,4.051444530E-1,-4.648547769E-1,-1.910424829E-1
9.147914945E0,-1.435491070E-2,-1.756185889E-1,-2.067717910E-1
9.198722498E0,-5.537330508E-1,-1.145338640E-2,5.955760926E-2
9.249530779E0,-1.369825006E0,-4.321744293E-2,2.959555089E-1
9.300338227E0,-1.896680713E0,-3.741439581E-1,3.539859951E-1
9.351144841E0,-2.207907438E0,-3.455868363E-1,6.032116413E-1
9.401952393E0,-2.158123255E0,1.466033459E-1,6.852179170E-1
9.452760623E0,-1.958834410E0,4.132381678E-1,6.981984377E-1
9.503568123E0,-1.787339091E0,5.815265775E-1,7.015580535E-1
9.554374737E0,-1.749161124E0,3.807105422E-1,3.448232710E-1
9.605182289E0,-1.681204319E0,-5.711421743E-2,-2.351761982E-2
9.655990518E0,-1.071120620E0,-1.149920002E-1,-6.612421572E-2
9.706798018E0,-3.008422814E-2,-1.068982668E-2,-3.787252903E-1
9.757604633E0,5.940489769E-1,2.977880463E-2,-3.970507085E-1
9.808412185E0,6.108472347E-1,-5.882459283E-1,-2.593046725E-1
9.859220414E0,7.241594195E-1,-2.176143378E-1,-4.337015375E-2
9.910027914E0,9.594883323E-1,7.941014133E-3,-7.681404054E-2
9.960834529E0,1.483595252E0,-1.088835239E0,-4.825693369E-2
1.001164203E1,1.592784286E0,-4.781406820E-1,1.627907902E-1
1.006245031E1,1.358218908E0,1.163664013E-1,-1.898207814E-1
1.011325776E1,1.513374090E0,4.578300118E-1,-2.953446507E-1
1.016406437E1,1.879118919E0,3.179459870E-1,-2.782409191E-1
1.021487192E1,2.195843220E0,6.400152445E-1,-3.587200642E-1
1.026568015E1,2.150945902E0,4.103366435E-1,-3.851391971E-1
1.031648760E1,1.483442545E0,2.619007528E-1,-4.060607255E-1
1.036729427E1,5.519005060E-1,-1.853921413E-1,-3.249707520E-1
1.041810177E1,-2.498365343E-1,-5.833591148E-2,-1.991362125E-1
1.046891000E1,-8.266290426E-1,-3.985778242E-2,-1.238492802E-1
1.051971745E1,-1.455038190E0,-1.330119967E-1,2.318165302E-1
1.057052406E1,-1.899276853E0,-4.156815708E-1,3.614688516E-1
1.062133156E1,-2.197828531E0,-4.023956358E-1,6.070294380E-1
1.067213979E1,-2.205005884E0,4.917320609E-2,8.183826208E-1
1.072294724E1,-1.938065648E0,3.939964771E-1,1.051573515E0
1.077375380E1,-1.873773932E0,3.956763148E-1,6.731536984E-1
1.082456130E1,-1.957918167E0,1.829487532E-1,2.434226274E-1
1.087536953E1,-1.621035933E0,-1.267508045E-2,8.964183182E-2
1.092617692E1,-5.685460567E-1,-2.457133085E-1,-1.795890927E-1
1.097698354E1,5.505260825E-1,1.072036922E-1,-2.568612695E-1
1.102779099E1,8.031114340E-1,-2.403683960E-1,-3.090887070E-1
1.107859916E1,6.676560640E-1,-3.868190348E-1,-2.748812735E-1
1.112940656E1,9.278770089E-1,-2.837385535E-1,4.718795046E-2
1.118021312E1,1.292247415E0,-6.879667044E-1,2.748812549E-3
1.123102057E1,1.609887958E0,-5.803049207E-1,-5.260922313E-1
1.128182875E1,1.643637300E0,3.617742956E-1,-5.625903010E-1
1.133263614E1,1.421288848E0,7.875348330E-1,-3.576510847E-1
1.138344265E1,1.569266558E0,7.661551833E-1,-4.340069890E-1
1.143425005E1,1.878966212E0,7.821899056E-1,-6.210789680E-1
1.148505823E1,1.754200578E0,9.086353332E-2,-5.954233408E-1
1.153586557E1,1.393953443E0,-4.147652984E-1,-5.030327439E-1
1.158667208E1,6.416950226E-1,-9.651386738E-2,-5.519005060E-1
1.163747948E1,4.077405483E-2,3.054236295E-4,-2.266243398E-1
1.168828760E1,-8.579349518E-1,-1.605001241E-1,4.869979918E-1
1.173909495E1,-1.665322304E0,-3.909422457E-1,8.930587173E-1
1.178990140E1,-1.934553266E0,-4.214846194E-1,7.351546884E-1
1.184070880E1,-2.177365065E0,-4.062134400E-2,8.107470274E-1
1.189151687E1,-2.298770905E0,1.760767251E-1,9.350544214E-1
1.194232416E1,-2.097191334E0,4.802786708E-1,9.990406632E-1
1.199313062E1,-1.928292036E0,3.816268146E-1,6.287145615E-1
1.204393797E1,-1.573389769E0,9.330692142E-2,3.672719002E-1
1.209474604E1,-1.011257648E0,-1.701209545E-1,-6.108472496E-2
1.214555333E1,-1.957765520E-1,7.986827940E-2,-9.498675168E-2
1.219635974E1,3.005368412E-1,-1.233911440E-1,-2.040229887E-1
1.224716708E1,5.980194807E-1,-1.852394342E-1,-6.398624927E-2
1.229797510E1,1.147781968E0,-3.471139669E-1,3.680354729E-2
1.234878234E1,1.355775476E0,7.284353673E-2,-2.012741715E-1
1.239958875E1,1.414416790E0,-1.078145429E-1,-4.711159468E-1
1.245039604E1,1.376849771E0,1.754658818E-1,-5.841227174E-1
1.250120406E1,1.783826709E0,2.521272004E-1,-7.824953198E-1
1.255201130E1,2.163926363E0,3.987305462E-1,-9.455915689E-1
1.260281765E1,2.370087385E0,5.858024955E-1,-9.071081877E-1
1.265362489E1,2.086196184E0,4.217900336E-1,-6.316160560E-1
1.270443291E1,1.233453274E0,-9.315420687E-2,-5.259394646E-1
1.275524010E1,2.093679011E-1,-3.859027624E-1,-3.240544796E-1
1.280604646E1,-3.819322586E-1,-2.528907657E-1,1.466033421E-2
1.285685370E1,-1.161678791E0,-2.605263591E-1,2.163926363E-1
1.290766166E1,-1.827654958E0,-2.857238054E-1,2.553341687E-1
1.295846880E1,-2.436364174E0,-1.203369126E-1,4.297310412E-1
1.300927510E1,-2.415137291E0,1.475196183E-1,7.598940134E-1
1.306008234E1,-2.248528719E0,2.605263591E-1,9.965972900E-1
1.311089026E1,-2.177517653E0,2.994678617E-1,7.533273697E-1
1.316169739E1,-1.960056186E0,5.192201585E-2,4.062134326E-1
1.321250370E1,-1.581636310E0,-3.229855001E-1,1.348445266E-1
1.326331088E1,-5.948125124E-1,-1.466033459E-1,-1.380514801E-1
1.331411875E1,3.741439581E-1,1.725643501E-2,-3.020639718E-1
1.336492588E1,6.256603003E-1,-4.535540938E-1,-2.238755226E-1
1.341573213E1,9.495620728E-1,-5.517477989E-1,-4.230117425E-2
1.346653932E1,1.476723194E0,-2.481566966E-1,3.451287001E-2
1.351734718E1,1.627907991E0,-4.184303582E-1,-2.235700935E-1
1.356815427E1,1.820019364E0,-5.945070982E-1,-1.201841980E-1
1.361896052E1,1.807802439E0,1.014006436E-1,-4.906630516E-1
1.366976765E1,1.807802439E0,4.559974670E-1,-3.687990308E-1
1.372057547E1,1.946617484E0,7.539382577E-1,-4.295783341E-1
1.377138255E1,2.055653811E0,8.367080092E-1,-4.993676245E-1
1.382218875E1,1.845216870E0,1.779092699E-1,-1.174353883E-1
1.387299583E1,8.345700502E-1,-2.394521236E-1,-2.241809368E-1
1.392380370E1,-3.981196880E-1,-4.972296655E-1,-1.249182671E-1
1.397461073E1,-1.498713732E0,-8.108997345E-2,2.125748396E-1
1.402541687E1,-2.062983990E0,-9.972081333E-2,3.167243004E-1
1.407622396E1,-2.318165302E0,-1.059819981E-1,5.589252710E-1
1.412703177E1,-2.274031639E0,2.046338283E-2,8.156337738E-1
1.417783875E1,-2.133842230E0,3.973561525E-1,8.507575393E-1
1.422864495E1,-2.167286158E0,4.144598544E-1,7.560762167E-1
1.427945198E1,-2.181030035E0,4.104893506E-1,1.896680743E-1
1.433025974E1,-1.559034944E0,-4.764608666E-2,-3.542914093E-1
1.438106672E1,-4.037700295E-1,6.826218218E-2,-3.162661791E-1
1.443187286E1,4.129327536E-1,-2.901524538E-3,-1.609582454E-1
1.448267989E1,9.442171454E-1,-6.652126908E-1,-1.566823274E-1
1.453348765E1,1.101662993E0,-2.441861928E-1,-8.063183725E-2
1.458429463E1,1.226886749E0,-4.766135812E-1,1.710372418E-2
1.463510073E1,1.359745979E0,-4.001049399E-1,-2.861819267E-1
1.468590776E1,1.786575556E0,-3.878880143E-1,-6.847597957E-1
1.473671552E1,2.131398916E0,-1.618745178E-2,-6.441384554E-1
1.478752244E1,2.418802500E0,5.737382770E-1,-4.778352678E-1
1.483832854E1,2.420329571E0,8.677085042E-1,-2.892361879E-1
1.488913557E1,2.093373537E0,1.076007485E0,-2.625116110E-1
1.493994328E1,1.194664478E0,2.060082406E-1,-3.326063454E-1
1.499075026E1,2.851129472E-1,-4.175141156E-1,-1.325538605E-1
1.504155635E1,-9.071081877E-1,-2.718270421E-1,-2.504473738E-2
1.509236333E1,-1.798181653E0,-2.220429778E-1,5.879404768E-2
1.514317104E1,-2.223178625E0,-1.139230132E-1,3.252761811E-2
1.519397802E1,-2.444305420E0,6.123743951E-2,3.460449576E-1
1.524478411E1,-2.661003351E0,5.344913527E-2,5.845808387E-1
1.529559109E1,-2.398797274E0,6.258130074E-1,8.748859763E-1
1.534639880E1,-2.257233381E0,3.530697227E-1,4.529432356E-1
1.539720573E1,-1.757254839E0,-5.680879578E-2,1.223221645E-1
1.544801182E1,-6.366555691E-1,-3.683409095E-1,-2.712161839E-1
1.549881885E1,2.316638231E-1,-6.841489673E-2,-2.255553454E-1
1.554962656E1,6.526902914E-1,-6.642963886E-1,-1.743968874E-1
1.560043349E1,8.351809382E-1,-2.912214398E-1,3.176405653E-2
1.565123958E1,1.197871447E0,-5.210527182E-1,1.976090819E-1
1.570204661E1,1.351652265E0,-2.632751763E-1,-3.316900730E-1
1.575285432E1,1.772067904E0,-3.817795217E-2,-4.266768098E-1
1.580366125E1,2.082225561E0,-8.047912270E-2,-4.431696832E-1
1.585446739E1,2.165911674E0,3.927747905E-1,-6.026008129E-1
1.590527437E1,2.232341290E0,6.581879258E-1,-3.092414141E-1
1.595608208E1,1.982810259E0,8.525900841E-1,-3.400892019E-1
1.600688906E1,1.640583038E0,4.966188073E-1,-5.712949038E-1
1.605769515E1,8.594620824E-1,-1.939440072E-1,-2.073826492E-1
1.610850307E1,-2.092151791E-1,-2.764083743E-1,-1.449235082E-1
1.615931078E1,-1.283390045E0,-4.705050886E-1,1.634016484E-1
1.621011776E1,-2.064969063E0,-3.816268146E-1,2.429644912E-1
1.626092385E1,-2.619771242E0,-1.324011385E-1,3.605526090E-1
1.631173088E1,-2.799513102E0,1.885990947E-1,5.891621709E-1
1.636253864E1,-2.566780090E0,4.080459774E-1,6.748335361E-1
1.641334562E1,-2.435142517E0,3.016058207E-1,4.442386627E-1
1.646415171E1,-2.045116663E0,1.521009654E-1,2.044811249E-1
1.651495874E1,-1.167023659E0,-4.208737612E-1,-2.577775419E-1
1.656576651E1,-7.207997888E-2,-2.057028115E-1,1.287360638E-1
1.661657348E1,6.300889254E-1,-3.504736125E-1,4.337015375E-2
1.666737958E1,1.056154966E0,-3.697153032E-1,-1.082726792E-1
1.671818661E1,1.168092728E0,3.191677108E-2,1.801999360E-1
1.676899437E1,1.310725451E0,-2.189887464E-1,9.468132630E-3
1.681980135E1,1.675095916E0,-2.764083743E-1,-3.481829464E-1
1.687060749E1,1.932262540E0,-2.809897363E-1,-4.908157587E-1
1.692141452E1,2.040382624E0,1.493521482E-1,-6.464291215E-1
1.697222229E1,2.343973637E0,6.067240238E-1,-5.743491650E-1
1.702302932E1,2.481108904E0,7.840224504E-1,-6.123743653E-1
1.707383541E1,1.853157878E0,2.924431264E-1,-4.895940721E-1
1.712464249E1,5.654918551E-1,-3.449759781E-1,-2.467822880E-1
1.717545026E1,-5.664080977E-1,-4.517215490E-1,-1.892099380E-1
1.722625723E1,-1.410904408E0,-4.822639227E-1,1.663031727E-1
1.727706338E1,-2.105285168E0,-3.338280320E-1,3.862081766E-1
1.732787041E1,-2.473625898E0,-2.089097649E-1,3.515425920E-1
1.737867822E1,-2.416358948E0,1.398840249E-1,7.070556879E-1
1.742948520E1,-2.149724245E0,1.815743446E-1,9.483403563E-1
1.748029135E1,-2.202409744E0,-2.293731421E-1,9.222266674E-1
1.753109843E1,-2.011978149E0,-1.421747059E-1,4.002576768E-1
1.758190619E1,-1.487718463E0,8.750387281E-2,-2.757975459E-1
1.763271322E1,-3.732276857E-1,1.166718230E-1,-1.904316396E-1
1.768351937E1,6.485670805E-1,6.917845458E-2,-3.373403847E-1
1.773432645E1,1.119835734E0,-1.412584335E-1,-2.281514555E-1
1.778513421E1,1.369672298E0,6.872031838E-3,-4.990622103E-1
1.783594124E1,1.471531034E0,4.819584787E-1,-7.062921524E-1
1.788674739E1,1.827502251E0,3.968980014E-1,-2.098107576E0
1.793755447E1,1.745496035E0,5.748072863E-1,-1.994874477E0
1.798836229E1,1.784742951E0,5.705313683E-1,-1.151752472E0
1.803916932E1,1.713732004E0,2.092151903E-2,-2.341072112E-1
1.808997546E1,1.443432093E0,6.003101468E-1,8.307522535E-2
1.814078255E1,1.345543742E0,8.159392476E-1,8.338065445E-2
1.819159036E1,1.097539783E0,7.240067124E-1,3.045073450E-1
1.824239739E1,5.250232220E-1,1.582094431E-1,1.820324808E-1
1.829320359E1,-1.525591016E-1,-5.367820263E-1,2.615953386E-1
1.834401062E1,-1.048672080E0,-1.011868477E0,5.062396526E-1
1.839481848E1,-1.757102132E0,-9.257390499E-1,4.210264683E-1
1.844562546E1,-2.196912050E0,-5.002838969E-1,1.580567211E-1
1.849643166E1,-2.485842943E0,2.139492482E-1,2.641914412E-2
1.854723874E1,-2.555479527E0,2.000524849E-2,1.705790907E-1
1.859804661E1,-2.636569500E0,-8.524373770E-1,1.275143623E-1
1.864885364E1,-2.049239874E0,-6.305471063E-1,-5.662553906E-1
1.869965984E1,-9.619317055E-1,2.105895877E-1,-7.675296068E-1
1.875046692E1,-2.417428046E-1,1.070509851E-1,-6.119162440E-1
1.880127473E1,4.436278343E-1,8.276980370E-2,-7.872294188E-1
1.885208182E1,1.052795291E0,9.037485123E-1,-6.473453641E-1
1.890288802E1,9.744541049E-1,1.111742035E-1,4.917320311E-1
1.895369515E1,1.413195133E0,-1.369825006E-1,5.176930428E-1
1.900450296E1,1.802152157E0,5.344913341E-3,8.765657991E-2
1.905531005E1,1.500393629E0,1.629435122E-1,-5.057815313E-1
1.910611624E1,1.800166845E0,1.904621720E0,-8.582404256E-1
1.915692338E1,1.538724303E0,1.282321095E0,-8.796200752E-1
1.920773124E1,1.544527292E0,7.108734846E-1,-5.183038712E-1
1.925853833E1,1.563005447E0,3.136700690E-1,-4.723376334E-1
1.930934452E1,7.065975666E-1,3.063398898E-1,-6.731536984E-1
1.936015166E1,5.803048983E-2,2.942756712E-1,-6.723901033E-1
1.941095958E1,-4.314108789E-1,-2.761029601E-1,-1.869192570E-1
1.946176661E1,-7.052231431E-1,-8.696937561E-1,3.037438095E-1
1.951257291E1,-1.321415305E0,-8.041804433E-1,6.135960817E-1
1.956338005E1,-1.848881960E0,-1.180462316E-1,6.103891134E-1
1.961418791E1,-2.080851078E0,-3.900259733E-1,5.277720094E-1
1.966499499E1,-2.027860165E0,-7.974610925E-1,-5.760289431E-1
1.971580130E1,-2.108644724E0,-1.607139111E0,4.816530645E-1
1.976660843E1,-1.403879762E0,-1.103342891E0,9.605573118E-2
1.981741635E1,-7.718055248E-1,-8.696937561E-1,3.990359604E-1
1.986822343E1,-4.275930673E-2,-1.362800241E0,6.868977547E-1
1.991902973E1,9.364288449E-1,-3.941491842E-1,2.938175201E-1
1.996983687E1,1.077687263E0,6.221479177E-1,-1.171299592E-1
2.002064479E1,9.756757617E-1,1.261399537E-1,4.504998401E-2
2.007145192E1,9.744541049E-1,-8.842013776E-2,2.666348219E-1
2.012225817E1,1.312863469E0,6.777350307E-1,3.057290614E-1
2.017306536E1,1.516275644E0,1.004843712E-1,-2.309002578E-1
2.022387328E1,1.512457848E0,1.238340139E0,-5.005893111E-1
2.027468041E1,1.552162886E0,1.320651770E0,-5.627430081E-1
2.032548671E1,1.746870399E0,1.960972428E0,-6.830799580E-1
2.037629385E1,1.775732994E0,1.452442050E0,-5.774033666E-1
2.042710176E1,1.325843930E0,2.901524603E-1,-3.657447994E-1
2.047790890E1,3.674246371E-1,-4.944808483E-1,-1.291942000E-1
2.052871520E1,-6.462764144E-1,-5.300627351E-1,7.635590434E-2
2.057952239E1,-1.307518601E0,-8.278507590E-1,4.320217371E-1
2.063033031E1,-1.927986622E0,-1.336839199E0,7.650861740E-1
2.068113749E1,-2.070466757E0,-1.129914761E0,9.345963001E-1
2.073194380E1,-2.246543407E0,-6.061131954E-1,8.564078808E-1
2.078275098E1,-2.188513041E0,-3.565820754E-1,9.979717135E-1
2.083355890E1,-2.131704330E0,-4.677563012E-1,7.878402472E-1
2.088436604E1,-1.812536478E0,-7.168292403E-1,4.103366435E-1
2.093517234E1,-9.755230546E-1,-7.043069005E-1,2.802261710E-1
2.098597952E1,3.348970115E-1,-1.791309565E-1,-3.817795515E-1
2.103678749E1,9.510892034E-1,1.637070626E-1,-4.967715442E-1
2.108759463E1,9.049702287E-1,-1.933331639E-1,-2.869454920E-1
2.113840093E1,8.125795722E-1,2.502946556E-1,3.121429384E-1
2.118920817E1,9.804098606E-1,-2.855710872E-2,8.276980370E-2
2.124001609E1,1.122584581E0,5.726693198E-2,-2.748812735E-1
2.129082322E1,1.697849989E0,6.441384554E-1,-4.949389994E-1
2.134162958E1,2.034426689E0,1.029124975E0,-6.317687631E-1
2.139243677E1,2.191567183E0,1.221541762E0,-6.436802745E-1
2.144324473E1,2.032136202E0,1.273311138E0,-6.436802745E-1
2.149405187E1,1.611415029E0,1.259108901E0,-6.039752364E-1
2.154485822E1,8.073873520E-1,1.514901221E-1,-3.701734245E-1
2.159566541E1,-2.405211031E-1,-5.386145711E-1,-4.275930673E-2
2.164647338E1,-1.033706307E0,-9.445225596E-1,1.792836636E-1
2.169728052E1,-1.576902151E0,-1.023932695E0,4.749337435E-1
2.174808687E1,-1.765806675E0,-1.018435121E0,7.024743557E-1
2.179889411E1,-2.112615347E0,-5.328115225E-1,1.269035220E0
2.184970208E1,-2.204395056E0,2.192941606E-1,1.191763043E0
2.190050921E1,-2.402615070E0,-9.376505762E-2,9.943066239E-1
2.195131557E1,-2.398644447E0,-2.229592502E-1,3.655920923E-1
2.200212281E1,-1.605612040E0,-2.441861928E-1,1.093416587E-1
2.205293078E1,-5.984776020E-1,5.925218388E-2,-3.228327632E-1
2.210373796E1,4.065188468E-1,9.544488788E-2,-5.083776116E-1
2.215454432E1,8.185353279E-1,-1.728697717E-1,-2.702999115E-1
2.220535156E1,9.020686746E-1,2.348707765E-1,-1.672194302E-1
2.225615952E1,1.229177356E0,-9.468132630E-3,-2.067717910E-1
2.230696671E1,1.333632231E0,-2.240282297E-1,-5.378510356E-1
2.235777302E1,1.651578307E0,-7.574506104E-2,-5.184566379E-1
2.240858031E1,1.735417008E0,2.936648130E-1,-8.055548072E-1
2.245938828E1,1.930124640E0,5.995466113E-1,-8.105943203E-1
2.251019546E1,1.978076100E0,1.016602516E0,-6.233696342E-1
2.256100182E1,1.721520305E0,1.354706526E0,-4.454603493E-1
2.261180906E1,1.095401883E0,3.684936166E-1,-2.515163720E-1
2.266261703E1,1.988307834E-1,-4.445441067E-1,3.103103936E-1
2.271342426E1,-1.002247691E0,-6.788040400E-1,5.596888065E-1
2.276423062E1,-1.568044901E0,-6.529957056E-1,6.603258848E-1
2.281503786E1,-1.931499004E0,-6.348230243E-1,9.127585292E-1
2.286584588E1,-2.166217089E0,-3.492519259E-1,1.101052165E0
2.291665307E1,-2.385358572E0,-1.823379099E-1,1.087613583E0
2.296745942E1,-2.387496471E0,4.460712075E-1,8.727480173E-1
2.301826666E1,-2.260134935E0,-4.140017331E-1,4.129327536E-1
2.306907468E1,-1.396854997E0,-3.377985358E-1,2.977880463E-2
2.311988187E1,-2.418955117E-1,-5.344913527E-2,-3.370349705E-1
2.317068828E1,6.888830066E-1,-1.351499557E-1,-3.277195692E-1
2.322149552E1,1.158166409E0,-3.150444627E-1,-2.286095917E-1
2.327230354E1,1.246281147E0,9.773556143E-3,5.619794875E-2
2.332311072E1,1.335617542E0,-1.221694499E-1,-2.641914412E-2
2.337391713E1,1.556438804E0,-9.254335612E-2,-3.481829464E-1
2.342472442E1,1.749161124E0,4.584408700E-1,-7.038487792E-1
2.347553239E1,1.924932480E0,1.138161182E0,-8.192988634E-1
2.352633963E1,2.099634647E0,1.226275921E0,-6.763606071E-1
2.357714604E1,2.265937805E0,1.281404853E0,-7.957812548E-1
2.362795328E1,1.783674002E0,8.063184023E-1,-6.021426916E-1
2.367876130E1,5.457920432E-1,3.878879920E-2,-2.681619525E-1
2.372956854E1,-5.474718809E-1,-2.600682080E-1,1.488940120E-1
2.378037494E1,-1.302020907E0,-6.755970716E-1,4.311054647E-1
2.383118223E1,-1.810856700E0,-8.362498879E-1,5.902311802E-1
2.388199026E1,-2.282736301E0,-1.179087877E0,8.269344568E-1
2.393279749E1,-2.504626513E0,-7.540909648E-1,1.127929449E0
2.398360385E1,-2.368102074E0,-6.673506647E-2,1.209935665E0
2.403441119E1,-2.329313278E0,3.029802442E-1,8.884773254E-1
2.408521921E1,-1.870566964E0,-5.451811850E-2,1.954711229E-1
2.413602645E1,-8.312104344E-1,-4.266768098E-1,-1.754658818E-1
2.418683286E1,3.405473530E-1,4.275930673E-2,-1.372879148E-1
2.423764015E1,9.054283500E-1,-8.826743066E-2,-3.776563108E-1
2.428844817E1,1.075854778E0,-7.498150319E-2,-2.183778882E-1
2.433925546E1,1.287055135E0,1.046075895E-1,-1.078145429E-1
2.439006187E1,1.280946732E0,-1.832541823E-2,-4.077405334E-1
2.444086916E1,1.732973695E0,7.299624383E-2,-8.018897176E-1
2.449167718E1,1.987238884E0,6.949914694E-1,-8.683193922E-1
2.454248447E1,2.107575655E0,1.297592282E0,-7.624900937E-1
2.459329088E1,1.942188859E0,1.001484036E0,-6.562026739E-1
2.464409822E1,1.748397589E0,1.088377118E0,-6.471926570E-1
2.469490624E1,9.535325766E-1,3.399364948E-1,-5.305208564E-1
2.474571354E1,-8.704573847E-3,-2.840439677E-1,-7.666133344E-2
2.479651994E1,-1.043632507E0,-5.679352283E-1,4.734066129E-2
2.484732729E1,-1.759698272E0,-9.277243018E-1,4.619532526E-1
2.489813536E1,-2.445832491E0,-1.174964666E0,6.487197876E-1
2.494894260E1,-2.568307400E0,-5.154023767E-1,9.683456421E-1
2.499974906E1,-2.451482773E0,-1.298050433E-1,1.253916740E0
2.505055640E1,-2.527533293E0,6.551336497E-2,1.000262380E0
2.510136447E1,-1.984642744E0,-2.021904439E-1,2.936648130E-1
2.515217177E1,-1.106702566E0,-4.724903405E-1,7.727217674E-2
2.520297822E1,-1.559187621E-1,-2.736595869E-1,-6.322269142E-2
2.525378552E1,6.887302995E-1,1.130067464E-2,-4.176668227E-1
2.530459359E1,9.715525508E-1,-2.861819267E-1,-3.625378609E-1
2.535540088E1,1.270714998E0,-1.527118087E-1,3.542914242E-2
2.540620734E1,1.497492075E0,-3.767400384E-1,-1.059819981E-1
2.545701468E1,1.757102132E0,-2.715215981E-1,-4.990622103E-1
2.550782276E1,1.890877724E0,3.920112252E-1,-7.959339619E-1
2.555863010E1,2.216764688E0,1.065012217E0,-6.998782754E-1
2.560943656E1,2.311904192E0,1.380209327E0,-5.772506595E-1
2.566024390E1,2.141477823E0,1.381583810E0,-5.239542127E-1
2.571105197E1,1.500393629E0,5.369347334E-1,-5.873296261E-1
2.576185927E1,1.980672181E-1,-2.108950168E-1,-1.062874198E-1
2.581266572E1,-1.265217423E0,-6.114581227E-1,4.031591862E-2
2.586347307E1,-1.958223581E0,-9.326110482E-1,2.965663373E-1
2.591428119E1,-2.367185831E0,-7.985301018E-1,6.100836992E-1
2.596508848E1,-2.460034609E0,-3.487937748E-1,8.871029615E-1
2.601589494E1,-2.445832491E0,-1.998997629E-1,1.114490867E0
2.606670229E1,-2.580066204E0,-2.255553454E-1,1.149156451E0
2.611751036E1,-1.997470498E0,-1.805053651E-1,2.764083743E-1
2.616831770E1,-1.041952729E0,-3.232909143E-1,2.980934680E-1
2.621912416E1,-2.580829561E-1,-2.002051920E-1,-2.018850148E-1
2.626993151E1,6.623111367E-1,-1.282779220E-2,-2.289150059E-1
2.632073958E1,1.013242841E0,-1.456870735E-1,-1.745496094E-1
2.637154692E1,1.199704051E0,-1.696628332E-1,-8.521319181E-2
2.642235338E1,1.405254126E0,-2.255553454E-1,-2.631224692E-1
2.647316072E1,1.911493778E0,-1.148392856E-1,-5.978667736E-1
2.652396885E1,2.128191948E0,3.156553209E-1,-1.044243336E0
2.657477614E1,2.198744774E0,1.177866220E0,-9.170344472E-1
2.662558260E1,2.195384979E0,1.505280375E0,-7.227849960E-1
2.667638994E1,1.871941447E0,1.373184681E0,-6.865923405E-1
2.672719807E1,1.067302823E0,3.165715933E-1,-3.845283389E-1
2.677800536E1,6.704048812E-2,-3.254288733E-1,-2.423536479E-1
2.682881182E1,-9.413156509E-1,-6.688777208E-1,1.348445266E-1
2.687961916E1,-1.636459827E0,-9.613208771E-1,5.935907960E-1
2.693042729E1,-2.143921137E0,-1.005607247E0,7.995990515E-1
2.698123458E1,-2.469197273E0,-2.301367074E-1,9.891144037E-1
2.703204104E1,-2.331604004E0,2.509055138E-1,1.200773001E0
2.708284838E1,-2.424147367E0,-2.443389036E-2,1.198787689E0
2.713365650E1,-1.900193095E0,-1.007897966E-2,2.956500649E-1
2.718446380E1,-1.172368646E0,1.114796288E-2,-4.489727318E-2
2.723527026E1,-4.098785222E-1,-5.024218559E-2,-5.068505406E-1
2.728607765E1,5.686988235E-1,6.994201243E-2,-4.378247857E-1
2.733688572E1,8.797727823E-1,-1.482831687E-1,-4.761554301E-1
2.738769302E1,1.220472813E0,-1.191152167E-2,2.825168520E-2
2.743849952E1,1.366007209E0,-1.281252056E-1,-3.261924386E-1
2.748930687E1,1.609277129E0,4.428642616E-2,-7.227849960E-1
2.754011499E1,2.005869627E0,4.645493329E-1,-7.855495811E-1
2.759092229E1,2.528144121E0,6.704048514E-1,-9.240592122E-1
2.764172874E1,2.422467470E0,1.330883503E0,-8.869501948E-1
2.769253614E1,2.042978764E0,1.260025144E0,-7.698202729E-1
2.774334421E1,9.640696645E-1,9.956810623E-2,-4.524851143E-1
2.779415156E1,-2.994678617E-1,-5.467082858E-1,-3.558185324E-2
2.784495802E1,-1.543000221E0,-7.499676943E-1,3.194731176E-1
2.789576541E1,-1.946006656E0,-1.151752472E0,7.478297353E-1
2.794657348E1,-2.373599768E0,-8.495358229E-1,8.962656260E-1
2.799738083E1,-2.418955088E0,-5.803048983E-2,1.193748236E0
2.804818729E1,-2.366269588E0,2.353289127E-1,1.340962410E0
2.809899468E1,-2.319234371E0,-1.617218107E-1,9.819369912E-1
2.814980281E1,-1.804442763E0,-1.890572309E-1,5.891621709E-1
2.820061010E1,-9.290986657E-1,-2.593046725E-1,-4.538595080E-1
2.825141661E1,2.597627938E-1,1.298050433E-1,-2.507528067E-1
2.830222395E1,8.081509471E-1,-1.333174109E-1,-3.732276857E-1
2.835303208E1,1.068830013E0,-2.047865391E-1,-4.149180055E-1
2.840383942E1,1.127929449E0,-8.750387281E-2,-1.682884246E-1
2.845464593E1,1.416402102E0,-2.985515893E-1,-4.708105326E-1
2.850545328E1,1.927070379E0,-2.388412803E-1,-7.029324770E-1
2.855626140E1,2.442014694E0,5.868715048E-1,-1.054322362E0
2.860706874E1,2.672304153E0,1.262468576E0,-6.708629727E-1
2.865787526E1,2.259371281E0,1.698766232E0,-5.596888065E-1
2.870868265E1,1.470309377E0,1.030041218E0,-4.850127101E-1
2.875949072E1,3.042019308E-1,-9.788827598E-2,-2.907632887E-1
2.881029807E1,-6.997255087E-1,-5.685460567E-1,6.184828654E-2
2.886110458E1,-1.440072417E0,-8.127322793E-1,3.724641204E-1
2.891191197E1,-1.891946673E0,-9.823951125E-1,5.807630420E-1
2.896272010E1,-2.368712902E0,-6.016845703E-1,1.049130201E0
2.901352744E1,-2.708343983E0,4.581354442E-4,1.231468081E0
2.906433395E1,-2.775231838E0,-1.469087601E-1,1.187334418E0
2.911514135E1,-2.137049198E0,-1.769929975E-1,6.093201637E-1
2.916594953E1,-1.545443535E0,-1.496575773E-2,1.078145429E-1
2.921675687E1,-4.135435820E-1,-2.629697323E-1,-1.006370857E-1
2.926756338E1,4.621059597E-1,-1.247655526E-1,-1.869192570E-1
2.931837078E1,9.228374958E-1,-1.078145429E-1,-2.930539846E-1
2.936917890E1,1.191610336E0,-7.742489129E-2,-1.832541823E-1
2.941998624E1,1.603626728E0,-2.783936262E-1,-2.962609194E-2
2.947079281E1,1.597518325E0,-4.427115619E-1,-3.854446113E-1
2.952160020E1,2.097802162E0,4.999784827E-1,-1.035080671E0
2.957240838E1,2.429492235E0,7.233958840E-1,-8.606837988E-1
2.962321572E1,2.396201134E0,1.260025144E0,-7.238540053E-1
2.967402223E1,2.186069727E0,1.557660460E0,-6.810947061E-1
2.972482968E1,1.250709772E0,3.800997138E-1,-5.347967744E-1
2.977563781E1,3.680354729E-2,-4.369085133E-1,-1.618745178E-2
2.982644520E1,-1.296523333E0,-6.646018028E-1,1.540862173E-1
2.987725171E1,-1.901109338E0,-8.953493834E-1,5.390726924E-1
2.992805916E1,-2.313431263E0,-1.020725727E0,8.357917666E-1
2.997886729E1,-2.560366392E0,-3.819322586E-1,1.027139664E0
3.002967468E1,-2.383220673E0,3.339807391E-1,1.008356094E0
3.008048119E1,-2.441709280E0,3.206948191E-2,9.452861547E-1
3.013128864E1,-1.896680713E0,-3.202366829E-1,6.824691296E-1
3.018209682E1,-1.029888511E0,-3.084778786E-1,-4.078932703E-1
3.023290416E1,1.603474021E-1,3.110739589E-1,-4.182776511E-1
3.028371072E1,9.633061290E-1,-4.482091665E-1,-2.828222811E-1
3.033451812E1,1.084559321E0,-9.529217333E-2,-1.192679256E-1
3.038532630E1,1.271020412E0,-2.110477239E-1,4.504998401E-2
3.043613369E1,1.431520581E0,-3.536805511E-1,-3.145863414E-1
3.048694020E1,1.800166845E0,-1.466033421E-2,-6.038225293E-1
3.053774765E1,2.232799530E0,5.215108395E-1,-8.086090684E-1
3.058855583E1,2.475458622E0,8.808417320E-1,-7.351546884E-1
3.063936317E1,2.493783951E0,1.467865944E0,-6.930062175E-1
3.069016973E1,1.895764470E0,1.134801507E0,-5.370874405E-1
3.074097718E1,6.239804626E-1,5.558710173E-2,-2.176143378E-1
3.079178536E1,-7.956285477E-1,-4.886777997E-1,5.940489471E-2
3.084259276E1,-1.628366113E0,-7.644753456E-1,3.996468186E-1
3.089339927E1,-2.328244209E0,-1.091889501E0,3.865135908E-1
3.094420671E1,-2.708038568E0,-6.374191046E-1,6.468872428E-1
3.099501489E1,-2.564184189E0,-1.324011385E-1,7.931851745E-1
3.104582229E1,-2.500961304E0,5.381564498E-1,1.260483265E0
3.109662885E1,-2.170645714E0,8.582404256E-2,8.504521251E-1
3.114743630E1,-1.522842169E0,-7.757759839E-2,3.636068404E-1
3.119824447E1,-4.790569544E-1,-1.200314835E-1,-3.437542915E-1
3.124905192E1,4.130854607E-1,4.726430774E-1,-4.135435820E-1
3.129985848E1,1.043327093E0,-4.077405334E-1,-2.985515893E-1
3.135066593E1,1.043479800E0,-1.748550236E-1,-3.665083647E-1
3.140147411E1,1.476875901E0,-5.787777901E-1,-3.526115716E-1
3.145228151E1,1.526354551E0,-7.082774043E-1,-8.008207679E-1
3.150308812E1,1.873621225E0,7.394306064E-1,-1.364632726E0
3.155389557E1,2.230355978E0,1.586675763E0,-6.986565590E-1
3.160470380E1,2.274947882E0,1.485885978E0,-4.676035643E-1
3.165551119E1,1.958987117E0,1.224748731E0,-4.034646153E-1
3.170631776E1,1.398229361E0,3.836120665E-1,-3.848337829E-1
3.175712526E1,1.898207814E-1,-5.048652887E-1,-1.863084175E-2
3.180793348E1,-1.218793035E0,-8.742751479E-1,3.930802047E-1
3.185874088E1,-2.046796560E0,-1.066997409E0,6.384881139E-1
3.190954749E1,-2.354816198E0,-9.571976662E-1,6.186355352E-1
3.196035494E1,-2.422467470E0,-1.661504507E-1,1.014311910E0
3.201116317E1,-2.440487623E0,2.273878902E-1,1.104717255E0
3.206197062E1,-2.604194641E0,-5.222744122E-2,1.063179612E0
3.211277718E1,-2.142088652E0,-4.308000207E-1,3.943018913E-1
3.216358468E1,-9.350544214E-1,-4.136963189E-1,-1.482831687E-1
3.221439286E1,2.263189107E-1,-2.901524538E-3,-1.901262105E-1
3.226520031E1,7.519529462E-1,-2.226538211E-1,-2.195995897E-1
3.231600687E1,1.236049414E0,-2.690782249E-1,-1.927223057E-1
3.236681437E1,1.239867210E0,-2.704526186E-1,6.413896102E-3
3.241762255E1,1.229177356E0,-1.847812980E-1,-3.851391971E-1
3.246842999E1,1.661046386E0,1.510319859E-1,-6.552863717E-1
3.251923656E1,2.159345150E0,4.173613787E-1,-7.751652002E-1
3.257004406E1,2.389176369E0,8.012788892E-1,-8.817580342E-1
3.262085229E1,2.138881683E0,1.408613801E0,-8.599202037E-1
3.267165968E1,1.924168825E0,9.182561636E-1,-7.307260633E-1
3.272246624E1,9.926267862E-1,2.501419485E-1,-4.735593498E-1
3.277327369E1,-2.498365343E-1,-3.368822634E-1,8.261708915E-2
3.282408192E1,-1.132358074E0,-5.690042377E-1,2.887780368E-1
3.287488932E1,-1.816354275E0,-9.323056340E-1,4.442386627E-1
3.292569588E1,-2.635500431E0,-8.956547976E-1,1.018282413E0
3.297650338E1,-2.463088751E0,-1.214058921E-1,1.247655511E0
3.302731156E1,-2.428881407E0,-8.521319181E-2,1.176033735E0
3.307811895E1,-2.341835737E0,4.688252881E-2,1.118155956E0
3.312892552E1,-1.691588759E0,-1.188097894E-1,-1.171299592E-1
3.317973302E1,-6.091674566E-1,6.627693027E-2,3.631486893E-1
3.323054119E1,-6.917845458E-2,-7.345438004E-2,-3.549022675E-1
3.328134859E1,6.271874309E-1,2.709107697E-1,-3.075616062E-1
3.333215515E1,1.004232883E0,-4.382828996E-2,4.260659590E-2
3.338296260E1,1.599503517E0,-4.378247857E-1,-5.497625470E-2
3.343377078E1,1.681967974E0,-5.876350403E-1,-4.553866386E-1
3.348457822E1,1.721062183E0,2.273878902E-1,-8.176190853E-1
3.353538479E1,1.985100865E0,6.291726828E-1,-8.144121170E-1
3.358619223E1,2.081156492E0,1.010035992E0,-5.908420086E-1
3.363700041E1,2.202104330E0,1.395022392E0,-4.694361091E-1
3.368780781E1,1.912868142E0,1.007592559E0,-4.491254389E-1
3.373861437E1,1.145491362E0,-3.665083554E-3,-1.026223376E-1
3.378942187E1,-2.260134816E-1,-4.787515402E-1,-3.924693540E-2
3.384023005E1,-1.311183691E0,-5.063923597E-1,2.564031482E-1
3.389103744E1,-1.818645000E0,-7.426375747E-1,5.267030597E-1
3.394184400E1,-2.177059650E0,-5.467082858E-1,5.926745534E-1
3.399265145E1,-2.400018930E0,-3.959817290E-1,6.803311110E-1
3.404345968E1,-2.573652267E0,1.401894391E-1,8.921424150E-1
3.409426708E1,-2.616564274E0,-1.898207814E-1,7.556180358E-1
3.414507364E1,-2.107117653E0,-2.107422985E-2,1.893626451E-1
3.419588109E1,-1.286749721E0,-1.479777545E-1,-5.228852630E-1
3.424668932E1,-9.300149232E-2,1.734806150E-1,8.276980370E-2
3.429749671E1,5.077667832E-1,-1.285833418E-1,-1.420219894E-2
3.434830328E1,1.271173120E0,-6.536065787E-2,-1.582094431E-1
3.439911072E1,1.290872931E0,-2.999260128E-1,-2.589992285E-1
3.444991895E1,1.473363638E0,-1.788255423E-1,-3.495573401E-1
3.450072635E1,1.590340853E0,5.161659420E-2,-3.620797098E-1
3.455153291E1,1.980672240E0,7.284353673E-2,-8.510629535E-1
3.460234041E1,2.212488890E0,9.210049510E-1,-9.697200060E-1
3.465314859E1,2.213557720E0,1.104564548E0,-6.403206587E-1
3.470395604E1,1.589271903E0,8.362498879E-1,-4.792096615E-1
3.475476260E1,1.090667725E0,6.606312990E-1,-5.369347334E-1
3.480557005E1,2.038702667E-1,-1.275143623E-1,-4.251496792E-1
3.485637828E1,-7.783721089E-1,-4.086568058E-1,-7.177455351E-3
3.490718567E1,-1.512610555E0,-8.163973689E-1,3.692571819E-1
3.495799223E1,-2.080087662E0,-9.683456421E-1,6.885775924E-1
3.500879968E1,-2.705442429E0,-4.824166298E-1,7.591304183E-1
3.505960791E1,-2.626796007E0,1.829487532E-1,9.446752667E-1
3.511041531E1,-2.340919495E0,1.328592747E-1,1.040578246E0
3.516122187E1,-2.101009130E0,-3.506263196E-1,3.755183518E-1
3.521202937E1,-1.258803487E0,-6.016845703E-1,5.037962794E-1
3.526283755E1,-3.374931216E-1,-1.035386100E-1,-4.810422063E-1
3.531364499E1,7.082774043E-1,-1.032331884E-1,-2.298312783E-1
3.536445156E1,1.074785709E0,-3.868190348E-1,-8.460234851E-2
3.541525900E1,1.307365894E0,-4.621059597E-1,-5.680879578E-2
3.546606723E1,1.467865944E0,-1.221694499E-1,-9.513945878E-2
3.551687463E1,2.127428293E0,-4.039227366E-1,-6.737645268E-1
3.556768119E1,2.203936815E0,2.712161839E-1,-5.431959033E-1
3.561848869E1,2.205005884E0,1.033248186E0,-7.177455425E-1
3.566929687E1,2.029234648E0,1.351804972E0,-7.832589149E-1
3.572010432E1,1.609124422E0,1.063485026E0,-6.778877378E-1
3.577091088E1,1.200925708E0,4.381301999E-1,-2.562504113E-1
3.582171838E1,1.974563748E-1,-2.580829710E-2,-9.055810422E-2
3.587252656E1,-9.610154629E-1,-5.883986354E-1,2.631224692E-1
3.592333400E1,-2.086807013E0,-8.163973689E-1,5.987830162E-1
3.597414057E1,-2.502183199E0,-6.209262609E-1,8.929060102E-1
3.602494807E1,-2.428575993E0,5.100574717E-2,9.715525508E-1
3.607575630E1,-2.359397650E0,3.020639718E-1,8.953493834E-1
3.612656374E1,-2.556090355E0,-1.455343664E-1,1.007592559E0
3.617737031E1,-1.908286810E0,4.352286831E-2,2.460187376E-1
3.622817781E1,-9.171871543E-1,-2.788517773E-1,-1.615691036E-1
3.627898604E1,1.241547018E-1,-9.040539712E-2,-1.188097894E-1
3.632979348E1,9.462023973E-1,-1.623326540E-1,-2.301367074E-1
3.638060005E1,1.125486016E0,-1.201841980E-1,-4.086568058E-1
3.643140755E1,1.245364904E0,-1.188097894E-1,-3.359660041E-3
3.648221578E1,1.486038685E0,-4.526378214E-1,-3.410054743E-1
3.653302322E1,2.366422176E0,1.238492802E-1,-7.600467205E-1
3.658382984E1,2.790655613E0,2.690782249E-1,-9.232956171E-1
3.663463729E1,2.615189791E0,1.050199151E0,-8.194515705E-1
3.668544557E1,2.239060640E0,1.750535488E0,-8.721371889E-1
3.673625296E1,1.417929173E0,8.693883419E-1,-6.175665855E-1
3.678705958E1,5.254813433E-1,-5.696150661E-2,-1.812689304E-1
3.683786708E1,-7.043069005E-1,-6.971294284E-1,1.313321590E-1
3.688867526E1,-1.455649018E0,-7.087355256E-1,2.756448388E-1
3.693948270E1,-2.203325987E0,-7.020162344E-1,4.871506989E-1
3.699028932E1,-2.559297323E0,-6.189410090E-1,8.825215697E-1
3.704109676E1,-2.551356316E0,-3.222219273E-2,1.172979474E0
3.709190499E1,-2.466906548E0,2.095206082E-1,8.913788795E-1
3.714271239E1,-2.371614456E0,1.372879148E-1,6.482616663E-1
3.719351900E1,-1.927986622E0,-7.650861889E-2,-4.275930673E-2
3.724432645E1,-8.979454637E-1,-8.658760041E-2,-2.819060087E-1
3.729513463E1,4.162923992E-1,1.343863904E-1,-2.786990702E-1
3.734594208E1,1.246433854E0,-3.596363366E-1,-3.437542915E-1
3.739674864E1,1.362342119E0,-1.701209545E-1,-2.825168669E-1
3.744755609E1,1.331799746E0,-1.640124917E-1,-6.688777357E-2
3.749836426E1,1.592631459E0,-5.085303187E-1,-6.180247068E-1
3.754917166E1,1.589271903E0,-4.734066129E-2,-8.567132950E-1
3.759997822E1,1.880340576E0,8.576295376E-1,-8.448017836E-1
3.765078562E1,2.309002638E0,1.225512266E0,-5.975613594E-1
3.770159380E1,2.383067846E0,1.336686492E0,-3.895678520E-1
3.775240119E1,1.776038408E0,5.439594984E-1,-2.334963679E-1
3.780320770E1,5.639647245E-1,-1.899735034E-1,-2.237228155E-1
3.785401510E1,-6.048914790E-1,-4.902049303E-1,1.969982386E-1
3.790482328E1,-1.701056957E0,-6.812474132E-1,5.835118294E-1
3.795563062E1,-2.338781357E0,-7.296570539E-1,6.209262609E-1
3.800643708E1,-2.580677032E0,-4.891359508E-1,8.254073858E-1
3.805724447E1,-2.596711636E0,3.607053161E-1,9.875873327E-1
3.810805260E1,-2.536085129E0,5.555655956E-1,9.116895199E-1
3.815885994E1,-2.302588701E0,-2.551814318E-1,5.065450668E-1
3.820966640E1,-1.653563499E0,-1.702736765E-1,-1.072036922E-1
3.826047374E1,-4.428642690E-1,-1.577513069E-1,-2.663294077E-1
3.831128187E1,5.755708218E-1,-1.070509851E-1,-3.988832533E-1
3.836208916E1,9.985825419E-1,-1.284306347E-1,-3.292466700E-1
3.841289562E1,1.167634487E0,-2.397575527E-1,-2.464768738E-1
3.846370296E1,1.372726560E0,-2.243336588E-1,-5.390727147E-2
3.851451098E1,1.513679504E0,-4.669927359E-1,-4.993676245E-1
3.856531828E1,1.913020849E0,2.183778882E-1,-8.403730989E-1
3.861612468E1,2.310529709E0,5.792359114E-1,-6.804838181E-1
3.866693202E1,2.349165916E0,9.869764447E-1,-4.376720488E-1
3.871774005E1,2.220429897E0,1.182600260E0,-4.069769979E-1
3.876854729E1,1.531394124E0,6.620057225E-1,-3.704788685E-1
3.881935369E1,5.787777901E-1,1.178935245E-1,-1.637070626E-1
3.887016098E1,-5.789304972E-1,-3.909422457E-1,1.615691036E-1
3.892096900E1,-1.466033459E0,-6.302416325E-1,4.259132445E-1
3.897177619E1,-2.131398916E0,-7.631009221E-1,4.304946065E-1
3.902258255E1,-2.669402599E0,-4.747810364E-1,8.202151656E-1
3.907338984E1,-2.534558058E0,1.988307834E-1,1.154348612E0
3.912419781E1,-2.301672459E0,4.240806997E-1,1.006065488E0
3.917500499E1,-2.211266994E0,-2.122694254E-2,5.676298141E-1
3.922581135E1,-1.574306130E0,-6.566607952E-2,4.245388508E-2
3.927661859E1,-6.279509664E-1,-2.782409191E-1,-2.105895877E-1
3.932742651E1,3.608580232E-1,5.909947306E-2,-3.698680103E-1
3.937823369E1,7.731798887E-1,-3.008422814E-2,-3.857500553E-1
3.942903999E1,1.040883780E0,-3.742966652E-1,-3.061871827E-1
3.947984718E1,1.303853512E0,-2.150182426E-1,-2.550287358E-2
3.953065515E1,1.557965875E0,-5.578562617E-1,-4.242334068E-1
3.958146229E1,1.961583257E0,1.452289373E-1,-8.553388715E-1
3.963226854E1,2.327022552E0,5.541911721E-1,-8.663341403E-1
3.968307572E1,2.457285881E0,9.084826112E-1,-6.974348426E-1
3.973388364E1,2.351150990E0,1.387234092E0,-5.199837089E-1
3.978469078E1,1.604390383E0,8.559496999E-1,-3.116848171E-1
3.983549702E1,4.694361091E-1,-9.193251282E-2,1.634016447E-2
3.988630416E1,-8.622109294E-1,-5.793886185E-1,1.421747059E-1
3.993711203E1,-1.782452345E0,-6.878139973E-1,4.301891923E-1
3.998791911E1,-2.375279665E0,-7.104153633E-1,4.306473136E-1
4.003872536E1,-2.377875566E0,-5.842754245E-1,7.878402472E-1
4.008953249E1,-2.477901936E0,9.926267900E-3,9.921686649E-1
4.014034031E1,-2.472557068E0,4.295783341E-1,1.035844207E0
4.019114739E1,-2.080393076E0,1.253764033E-1,6.439857483E-1
4.024195359E1,-1.450151443E0,-3.309265077E-1,2.431172132E-1
4.029276072E1,-6.079457402E-1,-5.451811850E-2,-7.269082218E-2
4.034356854E1,3.174878657E-1,2.234173864E-1,-2.779355049E-1
4.039437557E1,8.582404256E-1,-9.972081333E-2,-2.441861928E-1
4.044518176E1,1.452747464E0,-4.417952895E-1,-1.459924877E-1
4.049598880E1,1.487871170E0,-2.050919682E-1,-2.976353168E-1
4.054679661E1,1.417471051E0,-3.298575059E-2,-7.221741676E-1
4.059760364E1,1.931957126E0,4.136963189E-1,-8.174663186E-1
4.064840979E1,2.258149624E0,4.129327536E-1,-8.304468393E-1
4.069921682E1,2.522646427E0,5.882459283E-1,-6.991146803E-1
4.075002458E1,2.270824671E0,1.106091619E0,-6.420004964E-1
4.080083156E1,1.522536755E0,4.249969721E-1,-5.578562617E-1
4.085163770E1,1.461452097E-1,-1.333174109E-1,-2.457133085E-1
4.090244473E1,-1.098761559E0,-5.737382770E-1,1.733279079E-1
4.095325249E1,-1.983421087E0,-8.208259940E-1,5.186093450E-1
4.100405942E1,-2.195384979E0,-8.634325862E-1,6.462764144E-1
4.105486552E1,-2.287317514E0,-2.470877171E-1,8.768712282E-1
4.110567255E1,-2.552730799E0,2.484621257E-1,1.254527569E0
4.115648026E1,-2.436211586E0,3.483356535E-1,1.030652046E0
4.120728718E1,-2.061914921E0,-2.063136548E-1,6.545228362E-1
4.125809328E1,-1.454121947E0,-5.361711979E-1,1.305686086E-1
4.130890026E1,-5.254813433E-1,3.542914242E-2,-3.194731176E-1
4.135970791E1,5.928272605E-1,-2.235700935E-1,-2.215848416E-1
4.141051484E1,1.062263370E0,-2.786990702E-1,-3.687990308E-1
4.146132088E1,1.252542257E0,-2.451024652E-1,-1.140757278E-1
4.151212786E1,1.503753185E0,-3.492519259E-1,-4.688252881E-2
4.156293552E1,1.630504012E0,-7.528692484E-2,-6.355865598E-1
4.161374239E1,2.107117653E0,4.859289825E-1,-7.769976854E-1
4.166454843E1,2.242114782E0,5.195255876E-1,-7.617265582E-1
4.171535536E1,2.436517000E0,1.087766290E0,-8.312104344E-1
4.176616302E1,2.035495758E0,1.159388065E0,-7.863131166E-1
4.181696989E1,1.299119353E0,3.362714052E-1,-6.574243903E-1
4.186777588E1,2.426590770E-1,-1.898207814E-1,-1.963873953E-1
4.191858281E1,-1.196649790E0,-6.789567471E-1,9.681928903E-2
4.196939041E1,-1.862015128E0,-8.768712282E-1,3.316900730E-1
4.202019723E1,-2.149113417E0,-7.284353375E-1,8.208259940E-1
4.207100322E1,-2.350845575E0,-4.425588250E-1,1.190235853E0
4.212181010E1,-2.367644072E0,4.176668227E-1,1.374253631E0
4.217261770E1,-2.423383713E0,4.795150831E-2,1.240630746E0
4.222342453E1,-2.148502588E0,-1.911951900E-1,6.223006248E-1
4.227423052E1,-1.360509515E0,-3.568875194E-1,-8.093725890E-2
4.232503734E1,-2.548760176E-1,3.665083554E-3,-5.085303262E-2
4.237584494E1,6.972821355E-1,-1.501157135E-1,-2.489202619E-1
4.242665171E1,1.271783948E0,-3.658975065E-1,-2.544178963E-1
4.247745765E1,1.437781692E0,1.847812906E-2,-1.649287529E-2
4.252826453E1,1.732362866E0,-4.964661002E-1,-1.740914769E-2
4.257907208E1,1.907523274E0,-6.184828654E-2,-7.160657048E-1
4.262987885E1,2.008007765E0,4.798205197E-1,-7.872294188E-1
4.268068479E1,2.016712189E0,9.990406632E-1,-7.290462255E-1
4.273149156E1,2.274947882E0,1.348445296E0,-7.882983685E-1
4.278229911E1,2.080698490E0,1.273311138E0,-7.160657048E-1
4.283310588E1,1.229024649E0,4.723376334E-1,-7.446228266E-1
4.288391176E1,1.507265568E-1,-1.012479365E-1,-3.994941115E-1
4.293471859E1,-1.056918502E0,-4.367557764E-1,-2.137965523E-3
4.298552609E1,-1.898055196E0,-6.238277555E-1,4.109475017E-1
4.303633281E1,-2.434989929E0,-6.279509664E-1,5.039489865E-1
4.308713869E1,-2.840592384E0,-1.082726792E-1,6.352811456E-1
4.313794546E1,-2.846242905E0,5.120427012E-1,6.789567471E-1
4.318875296E1,-2.740566254E0,5.818319917E-1,6.148177385E-1
4.323955968E1,-2.280445576E0,-3.009949923E-1,1.679830020E-3
4.329036557E1,-1.519635320E0,-6.084038615E-1,-4.352286831E-2
4.334117229E1,-2.974826097E-1,-1.730224788E-1,-6.824691296E-1
4.339197979E1,5.670189857E-1,-1.679830020E-3,-5.917583108E-1
4.344278645E1,8.356390595E-1,-4.669927359E-1,-3.875826001E-1
4.349359234E1,1.253611326E0,-3.116848171E-1,-3.023693897E-2
4.354439906E1,1.437781692E0,-7.072083950E-1,-3.717005551E-1
4.359520650E1,1.643484592E0,-3.312319219E-1,-7.649334669E-1
4.364601317E1,1.799556017E0,1.458397806E-1,-6.942279339E-1
4.369681900E1,2.165606260E0,6.200099587E-1,-5.862606764E-1
4.374762572E1,2.430866718E0,9.066500664E-1,-4.547757804E-1
4.379843317E1,2.464005232E0,1.068830013E0,-2.353289127E-1
4.384923984E1,1.763363361E0,3.706315756E-1,-1.701209545E-1
4.390004562E1,4.239279926E-1,-1.000262350E-1,1.233911440E-1
4.395085234E1,-8.568660021E-1,-2.405211031E-1,5.573981404E-1
4.400165973E1,-1.580567241E0,-5.544965863E-1,6.241331697E-1
4.405246640E1,-2.081767559E0,-7.434011102E-1,7.156075835E-1
4.410327218E1,-2.512567520E0,-7.197307944E-1,9.199360013E-1
4.415407885E1,-2.413915634E0,1.956238300E-1,1.157708287E0
4.420488630E1,-2.244252920E0,3.773508966E-1,1.262315869E0
4.425569291E1,-2.177975893E0,-1.931804419E-1,7.450809479E-1
4.430649869E1,-1.570641041E0,-6.108472589E-3,2.790044844E-1
4.435730531E1,-5.951179266E-1,-8.139539510E-2,-2.944283783E-1
4.440811270E1,3.465031087E-1,2.148655206E-1,-3.185568452E-1
4.445891932E1,7.928797603E-1,-1.913478971E-1,-1.006370857E-1
4.450972510E1,1.322484374E0,-2.015796006E-1,9.773556143E-3
4.456053176E1,1.579192877E0,-2.727433145E-1,-1.592784226E-1
4.461133911E1,1.609429836E0,-1.650814712E-1,-6.867450476E-1
4.466214572E1,1.977770686E0,1.698155403E-1,-8.183826208E-1
4.471295145E1,2.150182247E0,8.269344568E-1,-7.997517586E-1
4.476375807E1,2.561129808E0,8.666395545E-1,-7.569924593E-1
4.481456541E1,2.265479803E0,8.929060102E-1,-7.540909648E-1
4.486537203E1,1.757865667E0,1.065470338E0,-6.485670805E-1
4.491617776E1,7.223268747E-1,2.739650011E-1,-3.746020794E-1
4.496698432E1,-5.633538961E-1,-5.793886185E-1,1.601946950E-1
4.501779166E1,-1.724421859E0,-7.313368917E-1,3.907895386E-1
4.506859822E1,-2.279376507E0,-6.459710002E-1,3.662029207E-1
4.511940395E1,-2.459423780E0,-2.722851634E-1,8.264763355E-1
4.517021052E1,-2.327938795E0,1.788255423E-1,9.978190064E-1
4.522101786E1,-2.315874577E0,5.128062963E-1,9.820896983E-1
4.527182442E1,-2.394979477E0,1.747023165E-1,6.349757314E-1
4.532263010E1,-1.914548039E0,-3.532224298E-1,-9.819369763E-2
4.537343666E1,-8.785510659E-1,-1.820324808E-1,-5.179984570E-1
4.542424401E1,4.277457893E-1,-9.009997360E-3,-4.013266563E-1
4.547505052E1,7.821899056E-1,-9.254335612E-2,-7.269082218E-2
4.552585619E1,1.028055906E0,-2.718270384E-2,1.725643501E-2
4.557666276E1,1.371504784E0,-3.492519259E-1,1.145338640E-2
4.562747005E1,1.267202616E0,-5.491516590E-1,-5.037962794E-1
4.567827656E1,1.558729529E0,-1.221694518E-2,-7.432484031E-1
4.572908223E1,1.824906230E0,3.881934285E-1,-7.061394453E-1
4.577988880E1,2.195690393E0,9.571976662E-1,-6.390989423E-1
4.583069604E1,2.288081169E0,1.028819442E0,-4.543176591E-1
4.588150255E1,1.936080337E0,6.258130074E-1,-3.028275371E-1
4.593230822E1,1.169008970E0,1.322484314E-1,-4.059080184E-1
4.598311473E1,3.512371704E-2,-2.367033064E-1,-1.491994411E-1
4.603392202E1,-9.205468297E-1,-4.550811946E-1,9.498675168E-2
4.608472854E1,-1.918671250E0,-1.005759954E0,3.471139669E-1
4.613553416E1,-2.511956692E0,-1.095707297E0,5.706840754E-1
4.618634072E1,-2.620382071E0,-4.491254389E-1,6.827745438E-1
4.623714802E1,-2.440334797E0,1.527118147E-4,1.037829518E0
4.628795447E1,-2.233257532E0,2.658712566E-1,1.232078910E0
4.633876015E1,-2.022209883E0,1.876828223E-1,4.135435820E-1
4.638956671E1,-1.443890214E0,-5.639647245E-1,1.815743446E-1
4.644037395E1,-3.223746419E-1,-3.139754832E-1,1.203369126E-1
4.649118046E1,5.961869359E-1,-2.377723008E-1,-1.053711493E-2
4.654198614E1,1.070204377E0,-3.556658030E-1,-1.893626526E-2
4.659279270E1,1.478403091E0,-3.742966652E-1,8.353336155E-2
4.664359999E1,1.429535270E0,1.374406368E-2,-8.918370306E-2
4.669440650E1,1.500851750E0,1.714953631E-1,-5.795413256E-1
4.674521218E1,1.699224353E0,7.201889157E-1,-4.868452549E-1
4.679601874E1,1.948144674E0,4.663818777E-1,-7.640172243E-1
4.684682604E1,2.267006874E0,8.947384953E-1,-7.105680704E-1
4.689763260E1,2.375737667E0,1.365549088E0,-6.681141853E-1
4.694843828E1,2.107575655E0,7.791357040E-1,-7.420266867E-1
4.699924484E1,7.072083950E-1,-3.619270027E-1,-4.903576374E-1
4.705005218E1,-8.838959932E-1,-7.806627750E-1,-1.163664013E-1
4.710085869E1,-1.779245377E0,-7.904363275E-1,9.407047927E-2
4.715166442E1,-2.079934835E0,-8.942803741E-1,6.539120078E-1
4.720247104E1,-2.197828531E0,-6.371136904E-1,8.319739699E-1
4.725327833E1,-2.268992186E0,-1.574458778E-1,1.005607247E0
4.730408489E1,-2.536390543E0,1.159082651E-1,1.132052660E0
4.735489062E1,-2.386733055E0,-1.139230132E-1,7.777612805E-1
4.740569723E1,-1.637834191E0,-2.544178963E-1,2.916795574E-2
4.745650458E1,-5.572454333E-1,-1.099525094E-1,1.191152185E-1
4.750731114E1,3.924693540E-2,-4.352286831E-2,-7.627955079E-1
4.755811687E1,6.862868667E-1,-5.344913527E-2,-1.076618284E-1
4.760892348E1,9.274188280E-1,-1.466033421E-2,-3.206948051E-3
4.765973088E1,1.382347345E0,-3.602471650E-1,-1.725643501E-2
4.771053744E1,1.746717691E0,-6.085565686E-1,-4.483618736E-1
4.776134317E1,1.811467528E0,-2.414373755E-1,-8.793146014E-1
4.781214984E1,2.294647694E0,2.040229887E-1,-7.223268747E-1
4.786295723E1,2.500655890E0,9.075663090E-1,-7.759287357E-1
4.791376380E1,2.493783951E0,1.643790007E0,-6.493306160E-1
4.796456958E1,1.682120681E0,8.203678727E-1,-2.469350100E-1
4.801537624E1,5.123481154E-1,-8.475505561E-2,-8.078455180E-2
4.806618364E1,-7.235485911E-1,-2.432699203E-1,2.200577259E-1
4.811699026E1,-1.581636310E0,-4.694361091E-1,4.022429287E-1
4.816779604E1,-1.905690789E0,-7.314895988E-1,5.700731874E-1
4.821860270E1,-2.324579239E0,-5.651864409E-1,6.884248853E-1
4.826941010E1,-2.414679289E0,-1.259872466E-1,7.907418013E-1
4.832021671E1,-2.581593275E0,3.345915973E-1,1.068219185E0
4.837102255E1,-2.195384979E0,4.398100078E-2,7.475243211E-1
4.842182921E1,-1.555217147E0,-2.166980654E-1,6.994201243E-2
4.847263666E1,-7.693621516E-1,-3.455868363E-1,2.392994165E-1
4.852344328E1,1.484358907E-1,1.452289373E-1,-1.020114943E-1
4.857424911E1,8.819107413E-1,-2.041756958E-1,-2.812951505E-1
4.862505583E1,1.024543524E0,-7.696675509E-2,-1.676775664E-1
4.867586328E1,1.464200854E0,-3.658975065E-1,-6.398624927E-2
4.872666989E1,1.455038190E0,-3.359659910E-1,-7.795938253E-1
4.877747572E1,1.832847238E0,2.524326444E-1,-7.365291119E-1
4.882828244E1,2.061456680E0,4.703523815E-1,-5.935907960E-1
4.887908994E1,2.346416950E0,8.338065147E-1,-4.793623984E-1
4.892989661E1,2.364437103E0,1.208714008E0,-5.036435723E-1
4.898070244E1,2.048323631E0,8.057075143E-1,-6.216897964E-1
4.903150916E1,9.807152748E-1,2.761029601E-1,-3.811686933E-1
4.908231666E1,-4.680617154E-1,-9.743013978E-2,-1.111742035E-1
4.913312333E1,-1.437934399E0,-5.803049207E-1,3.797942698E-1
4.918392921E1,-2.021140814E0,-5.906893015E-1,4.034646153E-1
4.923473593E1,-2.520203114E0,-2.654131353E-1,4.437805414E-1
4.928554343E1,-2.675969124E0,-4.352286831E-2,8.941276670E-1
4.933635015E1,-2.654894829E0,1.722589284E-1,1.108229637E0
4.938715598E1,-2.543720722E0,1.924168915E-1,6.435275674E-1
4.943796276E1,-1.962194085E0,1.652341783E-1,-1.041494608E-1
4.948877026E1,-8.919897079E-1,-1.369825006E-1,-3.881934285E-1
4.953957697E1,4.404208660E-1,7.757759839E-2,-5.433486104E-1
4.959038286E1,9.327637553E-1,-1.241547018E-1,-4.031592011E-1
4.964118963E1,1.125333309E0,-4.117110670E-1,-3.057290614E-1
4.969199713E1,1.214058876E0,-1.718007922E-1,-9.513945878E-2
4.974280385E1,1.374253631E0,-6.019899845E-1,-6.076403260E-1
4.979360973E1,1.685480356E0,-1.588202827E-2,-8.698465228E-1
4.984441651E1,2.088334084E0,5.305208564E-1,-7.543963790E-1
4.989522406E1,2.465379477E0,6.607840061E-1,-7.287407517E-1
4.994603078E1,2.327938795E0,1.119835734E0,-6.584933400E-1
4.999683666E1,1.848729253E0,9.425373077E-1,-4.721849263E-1
5.004764348E1,5.931326747E-1,1.441599578E-1,-1.296523362E-1
5.009845098E1,-7.547017932E-1,-4.453076422E-1,2.950392365E-1
5.014925776E1,-1.651272893E0,-6.282563806E-1,5.987830162E-1
5.020006364E1,-2.135522127E0,-8.452599049E-1,7.006418109E-1
5.025087041E1,-2.518676043E0,-5.329642296E-1,8.218950033E-1
5.030167796E1,-2.446595907E0,6.016845629E-2,9.996515512E-1
5.035248473E1,-2.337559700E0,2.047865391E-1,1.134648800E0
5.040329062E1,-2.252346516E0,-4.230117425E-2,7.041541934E-1
5.045409744E1,-1.648982167E0,-4.016320780E-2,4.111002088E-1
5.050490499E1,-6.878139973E-1,-2.124221325E-1,-2.851129472E-1
5.055571171E1,5.042544007E-1,2.712161839E-1,-1.325538605E-1
5.060651765E1,1.048366666E0,-8.658760041E-2,-3.826957941E-1
5.065732447E1,1.307518601E0,-1.284306347E-1,-3.067980409E-1
5.070813197E1,1.437476277E0,-2.571666837E-1,-2.026485801E-1
5.075893874E1,1.818034172E0,-3.374931216E-1,-4.472928941E-1
5.080974468E1,2.168813229E0,1.302631795E-1,-7.744016051E-1
5.086055151E1,2.640998125E0,8.069292307E-1,-7.531746626E-1
5.091135906E1,2.479887247E0,1.051878929E0,-4.743228853E-1
5.096216583E1,2.117654800E0,1.024543524E0,-5.737382770E-1
5.101297171E1,1.058140159E0,1.921114624E-1,-5.415160656E-1
5.106377854E1,9.437590092E-2,-1.863084137E-1,-3.805578351E-1
5.111458614E1,-9.964445829E-1,-3.970507085E-1,-3.420744836E-2
5.116539291E1,-1.940967202E0,-6.905628443E-1,3.118375242E-1
5.121619880E1,-2.427201509E0,-8.577822447E-1,5.387672782E-1
5.126700567E1,-2.607248783E0,-3.903313875E-1,9.035958052E-1
5.131781322E1,-2.559144497E0,3.069507480E-1,1.322484374E0
5.136861999E1,-2.553799629E0,1.310267299E-1,1.174964666E0
5.141942593E1,-2.169271231E0,3.787253052E-2,4.466820657E-1
5.147023281E1,-1.204132676E0,-1.453816444E-1,1.421747059E-1
5.152104036E1,-9.559759498E-2,1.209477559E-1,-2.484621257E-1
5.157184718E1,8.000571728E-1,-9.926267900E-3,-4.301891923E-1
5.162265317E1,1.372726560E0,-1.197260618E-1,-8.735115826E-2
5.167345999E1,1.581178188E0,-3.251234591E-1,-1.803526580E-1
5.172426760E1,1.679219127E0,-5.412106514E-1,-5.607577562E-1
5.177507442E1,1.843995214E0,2.367033064E-2,-7.792884111E-1
5.182588041E1,2.052141428E0,4.706578255E-1,-8.119687438E-1
5.187668729E1,2.239518881E0,6.649072170E-1,-7.351546884E-1
5.192749489E1,2.239824295E0,9.961391687E-1,-6.190937161E-1
5.197830171E1,2.003731728E0,8.437327743E-1,-4.998257756E-1
5.202910770E1,9.356653094E-1,2.745758295E-1,-1.924168915E-1
5.207991463E1,-1.501157135E-1,-2.446443290E-1,2.980934680E-1
5.213072223E1,-1.455496311E0,-4.738647640E-1,5.192201734E-1
5.218152911E1,-2.156138182E0,-7.284353375E-1,7.197307944E-1
5.223233510E1,-2.694599867E0,-4.311054647E-1,7.214106321E-1
5.228314203E1,-2.866248131E0,1.421747059E-1,8.484668136E-1
5.233394968E1,-3.028122663E0,3.981196880E-1,7.759287357E-1
5.238475656E1,-2.598696947E0,3.468085229E-1,2.412846684E-1
5.243556260E1,-1.938065648E0,-1.884463727E-1,-3.750602305E-1
5.248636952E1,-3.753656447E-1,-4.833329022E-1,2.603736520E-1
5.253717718E1,5.926745534E-1,4.703523964E-2,-2.064663768E-1
5.258798411E1,1.232537031E0,-3.556658030E-1,-1.502684206E-1
5.263879015E1,1.526812673E0,-3.226800561E-1,-7.101099193E-2
5.268959708E1,1.669750929E0,-1.437018216E-1,-6.154286116E-2
5.274040479E1,1.481762767E0,-2.264716178E-1,-7.666133046E-1
5.279121171E1,2.024653196E0,2.622061968E-1,-9.596410394E-1
5.284201781E1,2.308849812E0,7.137750387E-1,-7.172874212E-1
5.289282479E1,2.497448921E0,9.524635673E-1,-4.013266563E-1
5.294363249E1,2.194468737E0,9.118422270E-1,-4.147652984E-1
5.299443942E1,1.409530044E0,3.261924386E-1,-4.172086716E-1
5.304524552E1,9.071081877E-2,-1.546970755E-1,-1.615691036E-1
5.309605249E1,-1.068830013E0,-4.785988331E-1,1.252236869E-2
5.314686020E1,-1.853005171E0,-6.442911625E-1,4.031592011E-1
5.319766718E1,-2.522646427E0,-7.348492742E-1,3.371876776E-1
5.324847328E1,-2.821503401E0,-4.027010500E-1,7.131641507E-1
5.329928031E1,-2.607707024E0,1.537808031E-1,9.830059409E-1
5.335008802E1,-2.448123217E0,3.167243004E-1,8.973346353E-1
5.340089499E1,-2.162857533E0,-3.210002482E-1,4.851654470E-1
5.345170114E1,-1.493368864E0,1.572931744E-2,-1.276670843E-1
5.350250812E1,-2.040229887E-1,-2.229592577E-2,-4.379774928E-1
5.355331588E1,7.814263701E-1,3.512371704E-2,-3.581092060E-1
5.360412286E1,1.147323847E0,-5.357130170E-1,-3.063398898E-1
5.365492901E1,1.411820769E0,-3.536805511E-1,-1.247655526E-1
5.370573604E1,1.488940239E0,-4.479037523E-1,-2.281514555E-1
5.375654385E1,1.780314326E0,-3.831539452E-1,-7.062921524E-1
5.380735083E1,2.200577259E0,3.425326049E-1,-7.246175408E-1
5.385815697E1,2.458507538E0,2.951919436E-1,-5.618267655E-1
5.390896400E1,2.501114130E0,9.894198179E-1,-5.819846988E-1
5.395977182E1,2.248681545E0,1.290262103E0,-6.864396334E-1
5.401057880E1,1.016602516E0,3.523061574E-1,-2.544178963E-1
5.406138499E1,-5.680879354E-1,-5.265503526E-1,2.816005945E-1
5.411219203E1,-1.575680494E0,-6.139014959E-1,5.851916671E-1
5.416299984E1,-2.227759838E0,-5.205945969E-1,7.463026643E-1
5.421380682E1,-2.446595907E0,-3.121429384E-1,9.860602021E-1
5.426461302E1,-2.416053534E0,-6.016845629E-2,1.097234368E0
5.431542005E1,-2.424147367E0,3.790307343E-1,1.061194420E0
5.436622786E1,-2.348096848E0,3.393256664E-1,8.655705452E-1
5.441703489E1,-1.756338596E0,-2.293731421E-1,1.951656938E-1
5.446784109E1,-8.289197087E-1,-1.233911440E-1,-2.634278834E-1
5.451864812E1,1.768402755E-1,3.936910629E-1,-3.016058207E-1
5.456945593E1,8.098307252E-1,-6.139015034E-2,-2.738122940E-1
5.462026296E1,1.354706526E0,2.199050039E-2,-3.665083647E-2
5.467106916E1,1.727934241E0,-5.896202922E-1,-2.817533016E-1
5.472187624E1,1.613705754E0,-6.108472589E-3,-7.818844914E-1
5.477268406E1,1.664711475E0,7.459971905E-1,-9.254335761E-1
5.482349109E1,1.975938201E0,6.410841942E-1,-6.951441765E-1
5.487429729E1,2.273878813E0,1.175117373E0,-5.583143830E-1
5.492510437E1,2.556701183E0,7.466080785E-1,-4.518742561E-1
5.497591218E1,1.688076377E0,1.879882365E-1,-5.464028716E-1
5.502671921E1,8.095253110E-1,-9.651386738E-2,-3.782671690E-1
5.507752546E1,-5.825955868E-1,-4.121691883E-1,-1.498102844E-1
5.512833255E1,-1.812231064E0,-7.910472155E-1,2.838912606E-1
5.517914036E1,-2.356037855E0,-8.186880350E-1,5.743491650E-1
5.522994739E1,-2.402615070E0,-4.799732268E-1,5.955760479E-1
5.528075364E1,-2.708343983E0,-2.240282297E-1,1.114796281E0
5.533156072E1,-2.434379101E0,2.009687424E-1,1.192679286E0
5.538236859E1,-2.267770529E0,2.425063550E-1,8.211314082E-1
5.543317562E1,-1.856822968E0,-5.068505406E-1,2.367033064E-1
5.548398182E1,-6.456655264E-1,-2.521272004E-1,1.644706279E-1
5.553478895E1,3.959817290E-1,1.322484314E-1,-2.455606014E-1
5.558559677E1,6.881194115E-1,-2.264716178E-1,-2.353289127E-1
5.563640385E1,1.370741248E0,-4.530959427E-1,-2.779355086E-2
5.568721005E1,1.361578584E0,-5.039489828E-3,-2.473931462E-1
5.573801718E1,1.627907991E0,-1.840177327E-1,-6.255075932E-1
5.578882499E1,1.932568073E0,3.144336343E-1,-6.094728708E-1
5.583963208E1,2.529976606E0,5.879405141E-1,-6.737645268E-1
5.589043828E1,2.226843596E0,1.380514801E-1,-5.468609929E-1
5.594124541E1,2.303046942E0,1.305227876E0,-7.316423059E-1
5.599205328E1,1.951504230E0,8.357917666E-1,-5.774033666E-1
5.604286031E1,5.167768002E-1,-1.612636745E-1,-9.162709117E-3
5.609366656E1,-5.184566379E-1,-6.694886088E-1,4.596625641E-2
5.614447364E1,-1.843231559E0,-7.447755337E-1,2.166980654E-1
5.619528151E1,-2.483705044E0,-6.931589246E-1,4.782933891E-1
5.624608859E1,-2.699028730E0,-5.263976455E-1,8.498412371E-1
5.629689479E1,-2.529671192E0,2.292204350E-1,9.342908859E-1
5.634770192E1,-2.289761066E0,2.351761907E-1,9.715525508E-1
5.639850979E1,-2.146669865E0,1.487413049E-1,4.995203316E-1
5.644931682E1,-1.714037418E0,-6.429167390E-1,4.584408700E-1
5.650012307E1,-6.998782754E-1,1.146865711E-1,-4.595098495E-1
5.655093020E1,3.631486893E-1,1.061347127E-1,-3.255815804E-1
5.660173802E1,8.886300325E-1,-4.295783341E-1,-1.950129867E-1
5.665254510E1,1.380514860E0,-4.288147688E-1,-1.606528312E-1
5.670335135E1,1.588202834E0,-4.992149174E-1,-2.619007528E-1
5.675415848E1,1.722589254E0,-9.269607067E-2,-7.024743557E-1
5.680496630E1,1.988613248E0,8.131904006E-1,-6.855233312E-1
5.685577338E1,2.238602400E0,4.042281806E-1,-7.182036638E-1
5.690657963E1,2.456675053E0,8.670976758E-1,-5.505260825E-1
5.695738676E1,2.484926701E0,1.493979692E0,-3.565820754E-1
5.700819463E1,1.672194362E0,6.420004964E-1,-3.625378609E-1
5.705900171E1,1.808107942E-1,-4.176668227E-1,9.345962852E-2
5.710980791E1,-1.402810693E0,-5.848862529E-1,3.900259733E-1
5.716061505E1,-2.140408754E0,-5.357130170E-1,3.523061574E-1
5.721142291E1,-2.109408379E0,-7.466080785E-1,6.673506498E-1
5.726222999E1,-2.299992561E0,-2.084516287E-1,1.011868477E0
5.731303624E1,-2.229897976E0,7.713474035E-1,1.088377118E0
5.736384338E1,-2.497296333E0,-2.619007528E-1,1.004843712E0
5.741465124E1,-2.315874577E0,3.727695346E-1,7.024743408E-2
5.746545833E1,-1.437476277E0,9.269607067E-2,-2.312056869E-1
5.751626458E1,-2.695363462E-1,-2.206685692E-1,-3.761292100E-1
5.756707171E1,6.239804626E-1,-2.344126403E-1,-3.017585576E-1
5.761787958E1,1.082879424E0,-2.580829561E-1,-4.384356141E-1
5.766868666E1,1.536738992E0,-2.182251811E-1,-1.001789495E-1
5.771949291E1,1.363258362E0,-2.718270384E-2,-6.905628443E-1
5.777030005E1,1.721214890E0,3.494046330E-1,-8.877137899E-1
5.782110791E1,1.904774427E0,6.013791561E-1,-5.798467398E-1
5.787191494E1,2.428270578E0,7.872294188E-1,-7.350019813E-1
5.792272119E1,2.462936163E0,8.669449687E-1,-4.738647640E-1
5.797352833E1,1.996096134E0,4.918847680E-1,-3.252761662E-1
5.802433619E1,9.301676750E-1,1.939439960E-2,-3.968980014E-1
5.807514322E1,-2.527380586E-1,-1.088835225E-1,-1.189625040E-1
5.812594947E1,-1.385707021E0,-6.151232123E-1,9.743013978E-2
5.817675661E1,-1.930735469E0,-9.524635673E-1,5.060869455E-1
5.822756442E1,-2.354052544E0,-5.948125124E-1,5.861079693E-1
5.827837150E1,-2.545706034E0,-7.131642103E-2,9.246700406E-1
5.832917770E1,-2.491951466E0,2.153236568E-1,1.271173120E0
5.837998479E1,-2.620076656E0,6.184828654E-2,1.107924223E0
5.843079265E1,-1.879424334E0,-1.062874198E-1,1.068982761E-3
5.848159968E1,-8.719844818E-1,-5.573981255E-2,-7.864658535E-2
5.853240588E1,2.484621257E-1,-1.430909634E-1,-1.317902952E-1
5.858321296E1,8.066238165E-1,-8.887827396E-2,-2.649549842E-1
5.863402078E1,1.139688253E0,-1.672194302E-1,1.740914769E-2
5.868482781E1,1.335159421E0,-2.583884001E-1,-1.415638477E-1
5.873563400E1,1.612636805E0,-6.468872428E-1,-6.736118197E-1
5.878644109E1,1.907065153E0,1.464506239E-1,-8.797727823E-1
5.883724890E1,2.258455038E0,5.842754245E-1,-6.053496599E-1
5.888805588E1,2.609386683E0,8.270871639E-1,-6.102364063E-1
5.893886208E1,2.475153208E0,1.077381849E0,-5.251759291E-1
5.898966916E1,1.683189631E0,6.302416325E-1,-5.796940327E-1
5.904047697E1,5.263976455E-1,-1.751604527E-1,-2.605263591E-1
5.909128395E1,-7.507312894E-1,-5.914528370E-1,1.305686086E-1
5.914209015E1,-1.723505497E0,-6.936170459E-1,4.327852726E-1
5.919289718E1,-2.192483425E0,-7.580614686E-1,4.659237564E-1
5.924370499E1,-2.425063610E0,-6.471926570E-1,9.298622608E-1
5.929451202E1,-2.532572746E0,7.742489129E-2,1.282015681E0
5.934531817E1,-2.275558710E0,5.008947253E-1,1.296828747E0
5.939612526E1,-2.166064262E0,-7.207997888E-2,7.853968740E-1
5.944693302E1,-1.710983157E0,2.800734639E-1,4.161396921E-1
5.949774005E1,-8.921424150E-1,-2.417428046E-1,-5.780141950E-1
5.954854619E1,3.669664860E-1,-2.611372061E-2,-1.634016484E-1
5.959935328E1,1.119988441E0,9.620844573E-2,-1.808107942E-1
5.965016109E1,1.174811959E0,-6.444438547E-2,-4.176668227E-1
5.970096807E1,1.305380583E0,-1.745496094E-1,-1.079672500E-1
5.975177426E1,1.801083088E0,-5.674771070E-1,-3.402419090E-1
5.980258130E1,1.909050345E0,-1.575985998E-1,-1.167329073E0
5.985338911E1,2.129413605E0,5.978667736E-1,-6.986565590E-1
5.990419609E1,2.342599154E0,1.010494113E0,-4.717268050E-1
5.995500229E1,2.309002638E0,1.453511000E0,-4.214846194E-1
6.000580937E1,1.569877505E0,5.764871240E-1,-2.880144715E-1
6.005661718E1,3.177932799E-1,-1.655396074E-1,7.330167294E-2
6.010742416E1,-7.542436719E-1,-2.484621257E-1,1.901262105E-1
6.015823036E1,-1.737707734E0,-4.915793240E-1,3.961344361E-1
6.020903633E1,-2.413610220E0,-5.094466209E-1,4.624113739E-1
6.025984414E1,-2.830818892E0,-2.886253297E-1,6.116108298E-1
6.031065118E1,-2.550134659E0,3.133646548E-1,7.105680704E-1
6.036145732E1,-2.559297323E0,2.218902707E-1,8.649597168E-1
6.041226440E1,-2.129413605E0,1.252236813E-1,3.019112647E-1
6.046307222E1,-1.279877663E0,-4.454603493E-1,-1.134648770E-1
6.051387930E1,-3.817795217E-2,-3.155026138E-1,-1.543916464E-1
6.056468545E1,1.031720996E0,2.580829710E-2,-3.939964771E-1
6.061549258E1,9.546015263E-1,-4.321744442E-1,-2.994678617E-1
6.066630039E1,1.126402378E0,-2.447970361E-1,-1.192679256E-1
6.071710742E1,1.136633992E0,-1.905843467E-1,-5.115845799E-1
6.076791362E1,1.525591016E0,-2.017323077E-1,-1.015838981E0
6.081872076E1,2.192636251E0,5.920637250E-1,-9.523108602E-1
6.086952857E1,3.358590841E0,7.734853625E-1,-8.312104344E-1
6.092033565E1,2.887933016E0,1.240478039E0,-3.927747905E-1
6.097114185E1,1.563768983E0,7.849387527E-1,-2.499892414E-1
6.102194894E1,2.641914412E-2,-2.519744933E-1,1.357607991E-1
6.107275841E1,-6.583406329E-1,-3.756710589E-1,2.822114229E-1
6.112356550E1,-1.486496806E0,-1.536280811E-1,2.646495700E-1
6.117437170E1,-2.220582485E0,-5.074613690E-1,5.871769190E-1
6.122517883E1,-2.743467808E0,-8.993198872E-1,8.058602214E-1
6.127598670E1,-2.864720821E0,6.077930331E-2,1.415027618E0
6.132679378E1,-2.993609667E0,-4.077405483E-2,1.594158649E0
6.137759998E1,-2.021904469E0,1.053406119E0,3.356605768E-1
6.142840711E1,-1.429840684E0,-3.106158376E-1,7.040014863E-2
6.147921498E1,-4.575245976E-1,-5.247178078E-1,2.322746664E-1
6.153002206E1,1.220014691E0,5.906893015E-1,-6.456655264E-1
6.158082831E1,1.451983929E0,-6.398624927E-2,-9.542961121E-1
6.163163544E1,1.606222868E0,-4.401154518E-1,4.123218823E-3
6.168244336E1,1.346001983E0,2.860292196E-1,9.987352788E-2
6.173325044E1,1.493826985E0,-1.779092699E-1,-6.172611713E-1
6.178405670E1,1.929819226E0,9.284878522E-2,-7.905890942E-1
6.183486383E1,2.628323078E0,6.041279435E-1,-6.685723066E-1
6.188567175E1,2.927790880E0,6.768187881E-1,-6.120689511E-1
6.193647883E1,2.325190067E0,1.227039456E0,-6.233696342E-1
6.198728508E1,1.220778227E0,4.559974670E-1,-6.587987542E-1
6.203809227E1,-3.721587062E-1,-2.867927849E-1,-2.985515893E-1
6.208890013E1,-1.502836943E0,-6.146650314E-1,2.231119573E-1
6.213970727E1,-2.383373260E0,-8.524373770E-1,3.538332880E-1
6.219051352E1,-2.948254347E0,-7.398887277E-1,4.324798584E-1
6.224132071E1,-3.261008024E0,-2.240282297E-1,7.583668828E-1
6.229212862E1,-2.965816259E0,3.458922505E-1,9.029849768E-1
6.234293570E1,-2.376195908E0,-1.630962193E-1,6.788040400E-1
6.239374201E1,-1.823684454E0,-4.153761268E-2,9.575030953E-2
6.244454920E1,-5.277720094E-1,-4.825693369E-1,1.878355294E-1
6.249535706E1,6.277982593E-1,-1.032331884E-1,-1.795890927E-1
6.254616420E1,1.214669824E0,-3.330644667E-1,-1.009425074E-1
6.259697050E1,1.518566251E0,-2.854183912E-1,-5.726693198E-2
6.264777768E1,1.451983929E0,-3.602471650E-1,-9.101624042E-2
6.269858560E1,1.740151167E0,-5.080721974E-1,-3.500154912E-1
6.274939274E1,1.947228312E0,-1.152974218E-1,-1.006523609E0
6.280019904E1,2.272351742E0,5.418215394E-1,-9.556705356E-1
6.285100623E1,2.455453157E0,9.075663090E-1,-6.164975762E-1
6.290181414E1,2.433310032E0,1.436865449E0,-5.021164417E-1
6.295262128E1,1.737249613E0,5.228852630E-1,-3.374931216E-1
6.300342758E1,2.544178963E-1,-4.085040987E-1,-9.009997360E-3
6.305423477E1,-1.022558331E0,-5.137225389E-1,3.796415627E-1
6.310504268E1,-2.006480455E0,-6.503996253E-1,4.882196784E-1
6.315584982E1,-2.447359562E0,-6.994200945E-1,7.545490861E-1
6.320665617E1,-2.617480516E0,-1.650814712E-1,8.405258060E-1
6.325746336E1,-2.474694967E0,3.749074936E-1,1.112810969E0
6.330827133E1,-2.547996521E0,1.785201132E-1,1.274532795E0
6.335907847E1,-2.095664263E0,2.379250079E-1,4.469874799E-1
6.340988477E1,-1.082421303E0,-2.426590770E-1,9.743013978E-2
6.346069201E1,-1.583621502E-1,3.512371778E-1,-1.977618039E-1
6.351149998E1,7.127060294E-1,1.195733473E-1,-1.649287641E-1
6.356230711E1,1.096012712E0,1.527118147E-3,-5.760289431E-1
6.361311347E1,1.218334913E0,-1.966928244E-1,-3.382566571E-1
6.366392070E1,1.255443811E0,1.670667231E-1,-1.534753740E-1
6.371472862E1,1.602710485E0,2.460187376E-1,-8.481613994E-1
6.376553581E1,2.393452168E0,1.014006436E-1,-7.745543122E-1
6.381634216E1,2.356037855E0,2.646495700E-1,-8.758022785E-1
6.386714940E1,2.522341013E0,8.663341403E-1,-6.050441861E-1
6.391795737E1,2.081767559E0,8.790091872E-1,-5.625903010E-1
6.396876456E1,8.744278550E-1,8.903098851E-2,-2.751866877E-1
6.401957091E1,-5.874823332E-1,-5.557183027E-1,-3.571929336E-1
6.407037815E1,-1.403574347E0,-7.446228266E-1,1.653869003E-1
6.412118612E1,-2.191872597E0,-7.426375747E-1,7.623373866E-1
6.417199331E1,-2.502641201E0,-1.453816444E-1,8.093726039E-1
6.422279966E1,-2.422009468E0,2.585411072E-1,1.114338160E0
6.427360690E1,-2.526922464E0,5.980194807E-1,1.162595034E0
6.432441492E1,-2.499892473E0,3.478775024E-1,4.995203316E-1
6.437522211E1,-1.867512822E0,-5.650337320E-3,1.348445266E-1
6.442602847E1,-7.450809479E-1,3.084778599E-2,-4.091149569E-1
6.447683576E1,5.427377820E-1,4.433223903E-1,-6.760551929E-1
6.452764373E1,8.646543026E-1,-2.825168520E-2,-4.969242513E-1
6.457845091E1,1.237576604E0,2.275406010E-2,-2.909159958E-1
6.462925732E1,1.433963895E0,-1.863084175E-2,-2.151709497E-1
6.468006456E1,1.607139111E0,-2.014268786E-1,-6.850652099E-1
6.473087258E1,2.002357244E0,3.965925872E-1,-7.911999226E-1
6.478167977E1,2.421551228E0,5.306735635E-1,-7.736380696E-1
6.483248612E1,2.740108013E0,1.078145385E0,-6.613948941E-1
6.488329341E1,2.774773598E0,8.590039611E-1,-7.214106321E-1
6.493410144E1,1.406628489E0,-1.142284349E-1,-4.263713956E-1
6.498490862E1,-4.027010500E-1,-7.658497691E-1,-2.918322682E-1
6.503571503E1,-1.699071646E0,-8.831323981E-1,2.160872221E-1
6.508652227E1,-2.296022177E0,-1.057682037E0,7.786775231E-1
6.513733029E1,-2.488897085E0,-6.989619732E-1,6.372663975E-1
6.518813753E1,-2.583578587E0,-3.817795515E-1,9.639169574E-1
6.523894388E1,-2.470113516E0,-1.133121699E-1,1.349208832E0
6.528975117E1,-2.190498352E0,9.376505762E-2,1.265980959E0
6.534055920E1,-1.775580287E0,-2.452551723E-1,5.858024955E-1
6.539136644E1,-1.010494113E0,-4.121691883E-1,1.557660550E-1
6.544217279E1,-1.020114943E-1,1.876828223E-1,3.396310806E-1
6.549298008E1,4.701996744E-1,8.215895295E-2,-1.177408099E-1
6.554378810E1,1.016449809E0,-1.452289373E-1,-1.130067408E-1
6.559459534E1,1.316833973E0,-1.186570823E-1,-2.478512824E-1
6.564540175E1,1.921725512E0,-2.736595869E-1,-3.269560039E-1
6.569620899E1,1.997623205E0,-1.522536725E-1,-9.061918855E-1
6.574701706E1,2.667111874E0,8.719844371E-2,-1.057529330E0
6.579782425E1,2.609386683E0,6.986565590E-1,-8.463288546E-1
6.584863065E1,2.094442606E0,8.425110579E-1,-2.031067163E-1
6.589943794E1,1.127013206E0,8.246437646E-3,-2.380777150E-1
6.595024597E1,7.240067124E-1,-2.924431264E-1,-3.248180151E-1
6.600105326E1,-3.052709103E-1,1.169772521E-1,1.913478971E-1
6.605185961E1,-1.421746969E0,-7.070556879E-1,7.026270628E-1
6.610266690E1,-1.871941447E0,-9.506310225E-1,9.164236188E-1
6.615347492E1,-2.668028116E0,-3.619270027E-1,5.564818382E-1
6.620428222E1,-3.158232927E0,-1.328592747E-1,1.398076653E0
6.625508857E1,-2.426132679E0,6.583406329E-1,1.298050404E0
6.630589586E1,-2.401240587E0,-3.344388604E-1,4.141544402E-1
6.635670388E1,-1.715869904E0,-9.622371197E-1,5.934380889E-1
6.640751117E1,6.062658876E-2,-9.752176404E-1,1.766875684E-1
6.645831758E1,1.015838981E0,3.695625961E-1,-1.837123185E-1
6.650912487E1,1.416707516E0,4.153761268E-2,-4.002576768E-1
6.655993289E1,1.305685997E0,8.099834919E-1,-7.101099193E-2
6.661074013E1,1.265522838E0,8.872556686E-2,-4.294256270E-1
6.666154649E1,2.009840250E0,-1.821851879E-1,-6.490252018E-1
6.671235378E1,2.304726601E0,-5.558710173E-2,-6.794148684E-1
6.676316180E1,2.370698214E0,9.584193230E-1,-7.357655168E-1
6.681396904E1,2.310682535E0,1.337144613E0,-6.016845703E-1
6.686477544E1,2.067870617E0,1.256665468E0,-5.859552622E-1
6.691558274E1,1.170536041E0,2.764083743E-1,-4.552339315E-1
6.696639076E1,-3.510844707E-1,-9.042066336E-1,-1.424801201E-1
6.701719800E1,-9.790354371E-1,-9.066500664E-1,2.855710872E-2
6.706800435E1,-1.939745426E0,-5.919110179E-1,3.142809272E-1
6.711881164E1,-2.707885981E0,-7.953231335E-1,4.005630910E-1
6.716961966E1,-2.705289841E0,-5.202891231E-1,6.988092661E-1
6.722042690E1,-2.329924107E0,1.522536725E-1,1.064401388E0
6.727123326E1,-2.022667885E0,1.339282542E-1,8.432746530E-1
6.732204055E1,-1.648065925E0,-2.006633282E-1,5.095993280E-1
6.737284857E1,-1.076007485E0,-3.775036037E-1,2.806843221E-1
6.742365581E1,-2.762556672E-1,3.868190348E-1,-1.154501289E-1
6.747446216E1,5.312843919E-1,1.979145110E-1,-1.569877416E-1
6.752526946E1,1.161678791E0,-3.524588645E-1,6.917845458E-2
6.757607748E1,1.474279881E0,-2.903051674E-1,-5.176930502E-2
6.762688466E1,1.416707516E0,-2.373141646E-1,-4.227063060E-1
6.767769107E1,1.626533508E0,1.253764033E-1,-4.297310412E-1
6.772849831E1,2.151404142E0,3.255815804E-1,-6.067240238E-1
6.777930633E1,2.316485405E0,4.743228853E-1,-7.684458494E-1
6.783011352E1,2.351456642E0,7.308787704E-1,-4.815003574E-1
6.788091992E1,2.082836390E0,1.202300072E0,-5.546492934E-1
6.793172716E1,1.066386580E0,4.019374847E-1,-3.811686933E-1
6.798253518E1,-4.585935771E-1,-4.155288339E-1,1.027750522E-1
6.803334237E1,-1.449540496E0,-6.336013079E-1,-2.718270384E-2
6.808414878E1,-1.862473249E0,-5.767925382E-1,3.229855001E-1
6.813495602E1,-2.577928066E0,-4.274403751E-1,7.206470370E-1
6.818576404E1,-2.537459612E0,1.339282542E-1,9.483403563E-1
6.823657123E1,-2.562962294E0,4.152234197E-1,1.046992183E0
6.828737758E1,-2.551661730E0,3.857500553E-1,3.999522328E-1
6.833818487E1,-2.092915535E0,5.205945969E-1,-2.519744933E-1
6.838899284E1,-1.349056125E0,3.038965166E-2,-6.041279435E-1
6.843980008E1,-1.531699449E-1,4.734066315E-3,-1.185043678E-1
6.849060644E1,1.021031141E0,-3.310792148E-1,-4.718795046E-2
6.854141367E1,2.261662006E0,-8.597674966E-1,-2.805316150E-1
6.859222170E1,1.611262321E0,-6.148177385E-1,-5.858024955E-1
6.864302888E1,1.460077643E0,6.368082762E-2,-2.541124523E-1
6.869383529E1,1.887976170E0,1.324011385E-1,-7.944068313E-1
6.874464253E1,2.049392462E0,2.304421216E-1,-6.913263798E-1
6.879545050E1,2.334658146E0,8.455653191E-1,-6.358919740E-1
6.884625774E1,2.337101698E0,1.125333309E0,-2.912214398E-1
6.889706409E1,1.747939467E0,6.155813336E-1,-2.634278834E-1
6.894787133E1,6.352811456E-1,-5.955760926E-2,-3.390202299E-2
6.899867935E1,-5.361711979E-1,-5.409052372E-1,2.794626169E-2
6.904948654E1,-1.564990640E0,-7.157602906E-1,1.780619770E-1
6.910029289E1,-2.409028769E0,-8.263236284E-1,4.167505503E-1
6.915110013E1,-2.731861591E0,-6.597150564E-1,6.565080881E-1
6.920190815E1,-2.628017664E0,2.214321308E-2,9.011524320E-1
6.925271534E1,-2.496380091E0,4.963133857E-2,1.060278177E0
6.930352170E1,-2.191414595E0,8.964183182E-2,6.343649030E-1
6.935432894E1,-1.664864182E0,-1.258345395E-1,1.036913246E-1
6.940513696E1,-7.201889157E-1,-3.616215885E-1,2.037175596E-1
6.945594414E1,3.753656447E-1,1.496575773E-2,-8.780929446E-2
6.950675050E1,9.300149679E-1,-2.780882120E-1,-1.357607991E-1
6.955755774E1,1.238950968E0,-4.217900336E-1,-4.123219103E-2
6.960836571E1,1.530325055E0,-2.082989216E-1,-1.374406368E-2
6.965917289E1,1.656617761E0,-5.117372870E-1,-4.866925478E-1
6.970997930E1,1.897291541E0,1.658450365E-1,-7.718055248E-1
6.976078654E1,2.250055790E0,5.508314967E-1,-6.607840061E-1
6.981159451E1,2.281819820E0,7.540909648E-1,-4.750864506E-1
6.986240170E1,2.306711912E0,8.498412371E-1,-3.083251417E-1
6.991320805E1,1.732057452E0,6.274928451E-1,-3.530697227E-1
6.996401529E1,8.142594099E-1,2.451024652E-1,-2.997733057E-1
7.001482326E1,-2.776300907E-1,-7.879929990E-2,1.566823274E-1
7.006563050E1,-1.535822749E0,-6.294780970E-1,3.874298632E-1
7.011643685E1,-2.058097124E0,-6.878139973E-1,3.103103936E-1
7.016724409E1,-2.705900669E0,-2.258607745E-1,4.784461260E-1
7.021805206E1,-2.618702173E0,8.307522535E-2,9.515473247E-1
7.026885925E1,-2.460645437E0,2.275405973E-1,1.144880533E0
7.031966560E1,-2.126512051E0,2.461714447E-1,6.992673874E-1
7.037047284E1,-1.737402320E0,-1.250709742E-1,4.865398407E-1
7.042128081E1,-9.239065051E-1,-2.125748396E-1,-8.292251825E-2
7.047208800E1,8.368607610E-2,2.976353168E-1,-3.895678520E-1
7.052289435E1,6.076403260E-1,-9.773556143E-2,-4.411844313E-1
7.057370159E1,1.050809979E0,-1.068982705E-1,-1.029277667E-1
7.062450961E1,1.773594975E0,-4.434750974E-1,-1.934858710E-1
7.067531680E1,1.837123156E0,-5.764871240E-1,-7.986828089E-1
7.072612315E1,1.985864401E0,1.634016484E-1,-8.403730989E-1
7.077693039E1,1.926459551E0,7.705838084E-1,-7.927270532E-1
7.082773836E1,2.143615723E0,9.857547879E-1,-6.855233312E-1
7.087854555E1,2.068023443E0,7.067502737E-1,-3.637595475E-1
7.092935185E1,1.678608298E0,4.973823726E-1,-3.191677034E-1
7.098015909E1,1.001484036E0,8.093725890E-2,-3.747547865E-1
7.103096706E1,-1.072036922E-1,-2.906105816E-1,-1.067455560E-1
7.108177425E1,-1.195428133E0,-6.555918455E-1,3.836120665E-1
7.113258060E1,-1.879424334E0,-5.480827093E-1,4.107947946E-1
7.118338779E1,-2.259218693E0,-4.466820657E-1,4.497362971E-1
7.123419576E1,-2.722393513E0,-2.278460264E-1,9.396358132E-1
7.128500294E1,-2.391161680E0,2.915268540E-1,1.182447553E0
7.133580925E1,-2.173547268E0,1.488940120E-1,8.631271720E-1
7.138661649E1,-1.946312070E0,-1.079672500E-1,5.952706337E-1
7.143742440E1,-1.290262103E0,-9.055810422E-2,1.304158866E-1
7.148823159E1,-2.744231224E-1,-1.618745178E-2,-4.246915579E-1
7.153903789E1,3.975088596E-1,-9.620844387E-3,-4.413371384E-1
7.158984508E1,7.592831254E-1,-5.543438718E-2,-2.006633282E-1
7.164065300E1,1.410293579E0,-1.962346882E-1,5.787777901E-2
7.169146013E1,1.541778445E0,-4.210264683E-1,-5.691569448E-1
7.174226644E1,1.907981396E0,-2.522799075E-1,-6.274928451E-1
7.179307362E1,2.286554098E0,2.438807636E-1,-7.247702479E-1
7.184388154E1,2.250055790E0,5.769452453E-1,-5.777087808E-1
7.189468867E1,2.007091284E0,1.006065488E0,-4.422534108E-1
7.194549492E1,1.926001430E0,1.024085402E0,-3.775036037E-1
7.199630211E1,1.390593767E0,5.326588154E-1,-1.644706279E-1
7.204710998E1,4.546230733E-1,1.250709742E-1,-1.313321572E-2
7.209791711E1,-7.731798887E-1,-5.263976455E-1,-8.383878320E-2
7.214872336E1,-1.561325550E0,-7.379034758E-1,-5.909947306E-2
7.219953050E1,-2.541735411E0,-5.552601814E-1,3.405473530E-1
7.225033836E1,-2.898775578E0,-2.728960216E-1,6.253548861E-1
7.230114544E1,-2.423689127E0,4.120164812E-1,1.164580345E0
7.235195170E1,-2.335574389E0,2.732014358E-1,9.058864713E-1
7.240275883E1,-2.202104330E0,1.531699449E-1,2.953446507E-1
7.245356670E1,-1.606986403E0,-1.737860441E-1,-5.925218388E-2
7.250437373E1,-7.168292403E-1,-3.329117596E-2,-4.559974670E-1
7.255517998E1,3.126010895E-1,5.451811850E-2,-1.928750277E-1
7.260598706E1,1.095554590E0,-3.480302393E-1,-7.177454978E-2
7.265679492E1,1.326149344E0,-4.132381678E-1,-1.010952219E-1
7.270760196E1,1.672805190E0,-4.734066129E-1,-6.077930331E-2
7.275840815E1,1.578276634E0,-4.917320311E-1,-5.473191738E-1
7.280921524E1,2.202409744E0,1.142284349E-1,-4.921901822E-1
7.286002305E1,2.393604994E0,1.453816444E-1,-4.236225784E-1
7.291083003E1,2.664668560E0,7.849387527E-1,-2.588465214E-1
7.296163623E1,2.496990919E0,8.102889061E-1,-2.273878902E-1
7.301244331E1,1.684258580E0,6.659762263E-1,-3.101576865E-1
7.306325107E1,4.558447599E-1,5.573981255E-2,-2.104368806E-1
7.311405810E1,-8.118160367E-1,-3.472666740E-1,1.104106456E-1
7.316486425E1,-1.658144832E0,-5.526640415E-1,2.434226274E-1
7.321567128E1,-2.211114407E0,-3.993414044E-1,1.823379099E-1
7.326647904E1,-2.677038193E0,-1.195733473E-1,4.396573007E-1
7.331728602E1,-2.638401985E0,1.183516532E-1,8.041804433E-1
7.336809216E1,-2.309918880E0,3.833066523E-1,8.643488884E-1
7.341889914E1,-2.297854662E0,3.298575282E-1,4.799732268E-1
7.346970690E1,-2.002662659E0,-1.939439960E-2,1.653869003E-1
7.352051383E1,-8.761076927E-1,-6.215370819E-2,-2.964136302E-1
7.357131998E1,8.322793990E-2,3.087832928E-1,-3.329117596E-1
7.362212696E1,7.006418109E-1,-1.181989461E-1,-3.274141252E-1
7.367293466E1,1.111589313E0,-7.666133344E-2,4.993676394E-2
7.372374159E1,1.445569992E0,-3.333698809E-1,4.275931045E-3
7.377454768E1,1.559798479E0,-5.337277651E-1,-4.714213610E-1
7.382535466E1,1.752826214E0,-9.987352788E-2,-5.247178078E-1
7.387616237E1,2.028776407E0,2.257080674E-1,-5.981721878E-1
7.392696930E1,2.398949862E0,3.888042867E-1,-6.438329816E-1
7.397777534E1,2.652298689E0,1.056154966E0,-4.836383164E-1
7.402858232E1,2.181182861E0,5.618267655E-1,-4.618005157E-1
7.407938998E1,9.474241138E-1,9.773556143E-3,-2.667875290E-1
7.413019685E1,-1.553079188E-1,-4.695888162E-1,1.856975704E-1
7.418100289E1,-1.229788303E0,-5.686988235E-1,2.809897363E-1
7.423180982E1,-1.812231064E0,-6.974348426E-1,5.282301903E-1
7.428261748E1,-2.473931313E0,-3.574983478E-1,5.532749295E-1
7.433342435E1,-2.598391533E0,-9.239064902E-2,6.728482842E-1
7.438423039E1,-2.302741528E0,3.272614181E-1,8.525900841E-1
7.443503732E1,-2.188971043E0,1.104106456E-1,5.427377820E-1
7.448584492E1,-2.072604656E0,3.248180151E-1,7.040014863E-2
7.453665180E1,-1.447402596E0,9.452861547E-2,3.313846514E-2
7.458745779E1,-4.938700199E-1,5.497625470E-2,-4.950917065E-1
7.463826466E1,5.016583204E-1,1.612636745E-1,-1.310267299E-1
7.468907232E1,1.001178622E0,-2.651077211E-1,-1.081199646E-1
7.473987914E1,1.351652265E0,-2.417428046E-1,2.794626169E-2
7.479068513E1,1.322178841E0,-2.852656841E-1,-2.429644912E-1
7.484149196E1,1.588966489E0,-2.380777150E-1,-6.436802745E-1
7.489229956E1,2.004647970E0,8.933641016E-2,-6.128324866E-1
7.494310638E1,2.292967796E0,1.960819662E-1,-4.460712075E-1
7.499391237E1,2.438807726E0,4.630222321E-1,-5.031854510E-1
7.504471920E1,2.282430887E0,1.123806238E0,-3.304683566E-1
7.509552680E1,1.622563004E0,6.310052276E-1,-2.092151791E-1
7.514633357E1,5.251759291E-1,-2.672456764E-2,-8.551862091E-3
7.519713951E1,-8.359444737E-1,-2.944283783E-1,3.884988427E-1
7.524794633E1,-1.725796223E0,-1.652341783E-1,3.585673273E-1
7.529875388E1,-2.086043358E0,-5.381564498E-1,5.225798488E-1
7.534956065E1,-2.615037203E0,-5.914528370E-1,5.033381581E-1
7.540036659E1,-2.546316862E0,-3.573456407E-2,4.663818777E-1
7.545117341E1,-2.223484039E0,4.534013867E-1,6.082511544E-1
7.550198097E1,-2.256011724E0,-8.582404256E-2,7.756233215E-1
7.555278768E1,-2.042520523E0,-3.391729295E-1,3.933856487E-1
7.560359357E1,-6.801784039E-1,3.000787199E-1,-6.836907864E-1
7.565440039E1,1.736333370E-1,3.573456407E-1,-9.009996802E-2
7.570520789E1,6.193991303E-1,-5.172349215E-1,-3.451287001E-2
7.575601466E1,1.145491362E0,-2.768665254E-1,-6.642963737E-2
7.580682055E1,1.403574347E0,-3.721587062E-1,-1.517955512E-1
7.585762732E1,1.577665806E0,-8.093725890E-2,-6.496360302E-1
7.590843482E1,1.946617484E0,2.858765125E-1,-2.431172132E-1
7.595924154E1,2.244252920E0,1.870719790E-1,-5.021164417E-1
7.601004737E1,2.311140537E0,6.180247068E-1,-4.242334068E-1
7.606085414E1,2.057333469E0,9.856020808E-1,-5.126535892E-1
7.611166164E1,1.916227818E0,7.385143638E-1,-7.502731681E-1
7.616246831E1,1.145491362E0,2.232646793E-1,-6.621584296E-1
7.621327420E1,4.245388508E-2,-1.221694518E-3,-1.000262350E-1
7.626408091E1,-6.998782754E-1,-2.333436459E-1,1.519482583E-1
7.631488836E1,-1.556438804E0,-3.814741075E-1,3.452814221E-1
7.636569508E1,-2.446901321E0,-3.713951409E-1,3.271087110E-1
7.641650091E1,-2.539292097E0,-2.939702570E-1,4.657710493E-1
7.646730763E1,-2.062678576E0,-1.221694518E-3,6.293253899E-1
7.651811508E1,-2.079782248E0,5.984776020E-1,6.783458591E-1
7.656892175E1,-2.103299856E0,-1.603474021E-1,7.099572420E-1
7.661972753E1,-1.707470775E0,-9.651386738E-2,4.378247857E-1
7.667053425E1,-5.488462448E-1,6.233696342E-1,-6.872031838E-2
7.672134170E1,1.348445266E-1,2.535016239E-1,7.421794534E-2
7.677214831E1,6.108472496E-2,4.111002088E-1,-2.031067200E-2
7.682295414E1,-2.460187376E-1,3.194731176E-1,-2.599155009E-1
7.687376081E1,-2.953446507E-1,4.909684956E-1,-4.645493329E-1
7.692456826E1,-1.337755471E-1,6.421532035E-1,-1.742441803E-1
7.697537487E1,5.161659420E-2,2.014268786E-1,-1.986780763E-1
7.702618065E1,1.188097894E-1,3.348970115E-1,-1.748550236E-1
7.707698732E1,7.528692484E-2,1.241547018E-1,-1.713426560E-1
7.712779472E1,8.444963396E-2,-2.764083743E-1,-1.579040140E-1
7.717860133E1,2.185306102E-1,-2.145601064E-1,1.056765765E-1
7.722940711E1,2.838912606E-1,-6.856760383E-2,1.194206402E-1
7.728021378E1,4.300364852E-1,1.166718230E-1,1.788255423E-1
7.733102117E1,3.704788685E-1,3.318427801E-1,2.768665254E-1
7.738182774E1,1.020114943E-1,1.872246861E-1,1.944021434E-1
7.743263352E1,-9.407047927E-2,5.190674663E-1,-1.527118147E-4
7.748344013E1,-3.329117596E-2,6.691831946E-1,-2.550287358E-2
7.753424753E1,1.679829881E-2,7.157602906E-1,-2.611372061E-2
7.758505409E1,3.573456407E-2,8.570187092E-1,-2.698417902E-1
7.763585987E1,1.649287641E-1,7.817317843E-1,-2.411319613E-1
7.768666649E1,-3.130592033E-2,6.001574397E-1,-3.423798978E-1
7.773747383E1,-5.238015205E-2,6.934643388E-1,-4.694361091E-1
7.778828039E1,6.963659078E-2,8.602256775E-1,-1.896680743E-1
7.783908612E1,5.711421743E-2,4.559974670E-1,-1.294996142E-1
7.788989274E1,-7.849387079E-2,6.954495907E-1,-2.040229887E-1
7.794070008E1,-5.787777901E-2,6.013791561E-1,-5.089884996E-1
7.799150664E1,-6.062658876E-2,8.157865405E-1,-5.662553906E-1
7.804231237E1,1.594311297E-1,6.879667044E-1,-6.797202826E-1
7.809311894E1,2.912214398E-1,8.017370105E-1,-6.371136904E-1
7.814392628E1,2.498365343E-1,2.144073844E-1,-6.200099587E-1
7.819473284E1,1.856975704E-1,6.954495907E-1,-7.354601026E-1
7.824553852E1,4.840964451E-2,4.581354558E-1,-4.486673176E-1
7.829634508E1,3.420744836E-2,5.088357925E-1,-5.080721974E-1
7.834715242E1,1.893626526E-2,5.586197972E-1,-4.767662883E-1
7.839795894E1,3.558185324E-2,4.265241027E-1,-5.387672782E-1
7.844876461E1,-8.918370306E-2,5.083776116E-1,-5.289937258E-1
7.849957117E1,-1.588202827E-2,4.479037523E-1,-7.156075835E-1
7.855037847E1,-7.925742865E-2,4.564556181E-1,-5.037962794E-1
7.860118498E1,1.191152185E-1,3.529170156E-1,-5.273138881E-1
7.865199065E1,3.145863414E-1,4.007157981E-1,-4.530959427E-1
7.870279722E1,9.095515609E-1,5.008947477E-2,-4.543176591E-1
7.875360451E1,1.545290828E0,-1.097997949E-1,-6.960604787E-1
7.880441102E1,1.831014633E0,-1.911951900E-1,-9.637642503E-1
7.885521664E1,2.418038845E0,2.515163720E-1,-8.793146014E-1
7.890602321E1,2.702999115E0,5.537330508E-1,-1.087766290E0
7.895683050E1,2.434379101E0,1.374406338E0,-9.773555994E-1
7.900763696E1,1.763516068E0,9.529217482E-1,-1.046992183E0
7.905844258E1,9.321529269E-1,5.344913527E-2,-5.929799676E-1
7.910924914E1,5.635066032E-1,2.901524492E-2,-5.068505406E-1
7.916005638E1,-9.819369763E-2,6.749862432E-2,-5.622848868E-1
7.921086284E1,-1.152974248E0,-1.490467340E-1,-4.535540938E-1
7.926166852E1,-2.008771181E0,-3.939964771E-1,-5.622848868E-1
7.931247503E1,-2.542193651E0,-3.118375242E-1,-3.264978528E-1
7.936328227E1,-2.645274162E0,9.956810623E-2,-1.517955512E-1
7.941408873E1,-2.164995432E0,6.533011198E-1,1.873773932E-1
7.946489435E1,-2.051530600E0,6.178719997E-1,4.362976551E-1
7.951570086E1,-2.015490532E0,5.008947253E-1,2.999260128E-1
7.956650810E1,-1.639361382E0,1.591257155E-1,-1.629435122E-1
7.961731451E1,-9.848384857E-1,2.899997234E-1,-4.056025743E-1
7.966812013E1,-1.867665499E-1,4.726430774E-1,-6.030589342E-1
7.971892659E1,2.509055138E-1,-1.278197914E-1,-6.019899845E-1
7.976973383E1,6.765133142E-1,-1.261399537E-1,-4.785988331E-1
7.982054029E1,8.922951221E-1,-4.124746025E-1,-4.758500159E-1
7.987134586E1,1.091584086E0,-4.109475017E-1,-4.595098495E-1
7.992215232E1,1.137244940E0,-4.796678126E-1,-7.116370797E-1
7.997295956E1,1.349667072E0,4.596625641E-2,-6.022953987E-1
8.002376597E1,1.661199093E0,1.456870735E-1,-3.920112252E-1
8.007457154E1,1.848881960E0,2.344126403E-1,-5.109737515E-1
8.012537800E1,2.000524759E0,5.570927262E-1,-6.394043565E-1
8.017618519E1,1.868429065E0,8.846595287E-1,-3.681881726E-1
8.022699164E1,1.652647257E0,4.902049303E-1,-3.324536085E-1
8.027779716E1,9.930849075E-1,5.268557742E-2,-1.745496094E-1
8.032860362E1,2.072299272E-1,-2.910687327E-1,-3.034383655E-1
8.037941081E1,-7.937960029E-1,-4.445441067E-1,-2.521272004E-1
8.043021722E1,-1.740609288E0,-6.968240142E-1,5.390727147E-2
8.048102279E1,-2.281667233E0,-5.838172436E-1,1.412584335E-1
8.053182925E1,-2.338934183E0,-4.332434237E-1,6.030589342E-1
8.058263638E1,-1.897596955E0,1.123958975E-1,1.109145880E0
8.063344279E1,-1.842468023E0,4.598152637E-1,1.351652265E0
8.068424836E1,-2.039313555E0,1.656923145E-1,8.196043372E-1
8.073505477E1,-1.865222096E0,-4.578300118E-1,3.428380191E-1
8.078586196E1,-1.482526302E0,-1.834068894E-1,-2.351761907E-1
8.083666831E1,-6.233696342E-1,1.145338640E-2,-4.529432356E-1
8.088747383E1,3.355078697E-1,-8.796200156E-2,-5.195255876E-1
8.093828024E1,9.449806809E-1,-6.897992492E-1,-1.933331639E-1
8.098908742E1,1.446639061E0,-3.683409095E-1,-1.672194302E-1
8.103989378E1,8.434273601E-1,-4.818057716E-1,-5.673243999E-1
8.109069930E1,1.021794796E0,2.133384049E-1,-2.028012872E-1
8.114150570E1,1.291331053E0,4.443913698E-2,9.559759498E-2
8.119231284E1,1.494895935E0,-4.077405483E-2,9.147437662E-2
8.124311920E1,1.543458343E0,1.598892659E-1,-3.889569938E-1
8.129392472E1,1.711441278E0,5.592306852E-1,-6.595623493E-1
8.134473112E1,1.705027461E0,8.478559852E-1,-4.231644273E-1
8.139553826E1,1.758018374E0,7.067502737E-1,-4.104893506E-1
8.144634461E1,1.155875683E0,-2.452551723E-1,-4.628695250E-1
8.149715008E1,1.881409585E-1,-7.194253802E-1,-4.825693369E-1
8.154795649E1,-4.712686539E-1,-5.616740584E-1,-1.181989461E-1
8.159876362E1,-1.106549859E0,-4.106420577E-1,3.880407214E-1
8.164956992E1,-1.412737012E0,-4.109475017E-1,8.408312798E-1
8.170037544E1,-1.537044406E0,-2.907632887E-1,1.151752472E0
8.175118180E1,-1.822768211E0,-3.933856487E-1,1.066386580E0
8.180198894E1,-2.076269865E0,-4.581354558E-2,1.054169655E0
8.185279524E1,-1.896528006E0,1.206423342E-1,1.040731072E0
8.190360070E1,-1.743205309E0,1.345391124E-1,5.612159371E-1
8.195440711E1,-1.366465330E0,-7.788302377E-3,3.138227761E-1
8.200521420E1,-3.426853120E-1,-1.356080920E-1,6.398624927E-2
8.205602050E1,7.513421178E-1,2.110477239E-1,1.191152185E-1
8.210682597E1,7.624900937E-1,-2.825168669E-1,8.047912270E-2
8.215763232E1,7.394306064E-1,-1.345391124E-1,1.754658818E-1
8.220843946E1,9.115368128E-1,1.446180940E-1,1.534753740E-1
8.225924576E1,1.064401388E0,8.857285604E-3,-2.927485406E-1
8.231005123E1,1.436865449E0,-5.573981255E-2,-4.210264683E-1
8.236085753E1,1.600572586E0,1.501157135E-1,-4.770717025E-1
8.241166461E1,1.832236409E0,5.147915483E-1,-5.012001991E-1
8.246247091E1,2.049545288E0,6.413896084E-1,-5.548020005E-1
8.251327638E1,2.014116049E0,6.995728016E-1,-5.260922313E-1
8.256408268E1,1.512152433E0,3.307738006E-1,-6.064186096E-1
8.261488977E1,8.223531246E-1,-7.314895838E-2,-6.991146803E-1
8.266569607E1,1.670667231E-1,-2.348707765E-1,-5.068505406E-1
8.271650154E1,-6.175665855E-1,-3.871244490E-1,-4.208737612E-1
8.276730784E1,-1.383569002E0,-5.577035546E-1,-1.998997629E-1
8.281811492E1,-2.051988602E0,-6.928535104E-1,8.765657991E-2
8.286892117E1,-2.150182247E0,-6.061131954E-1,6.569662094E-1
8.291972664E1,-1.940356374E0,-1.354553849E-1,1.236354828E0
8.297053294E1,-1.987238884E0,2.657185495E-1,1.175575495E0
8.302133998E1,-1.942799687E0,2.730487287E-1,9.678874612E-1
8.307214628E1,-1.770540833E0,1.939439960E-2,2.761029601E-1
8.312295170E1,-1.244906664E0,-2.130329758E-1,-2.412846684E-2
8.317375800E1,-4.059080184E-1,-2.275406010E-2,-3.006895781E-1
8.322456503E1,4.037700295E-1,-9.483403713E-2,-2.983988822E-1
8.327537128E1,6.058077812E-1,-3.707842827E-1,-7.391251624E-2
8.332617670E1,8.938222528E-1,-4.350759685E-1,7.895200700E-2
8.337698300E1,1.061957955E0,-3.356605768E-1,1.641651988E-1
8.342779008E1,1.218182087E0,-4.596625566E-1,-3.510844707E-1
8.347859633E1,1.395633221E0,-1.679829881E-2,-5.152496696E-1
8.352940170E1,1.706401825E0,2.788517773E-1,-5.331169367E-1
8.358020800E1,1.985558987E0,3.570402265E-1,-4.731011987E-1
8.363101503E1,2.037022829E0,4.039227366E-1,-4.547757804E-1
8.368182128E1,2.056722641E0,8.383878469E-1,-5.274665952E-1
8.373262670E1,1.530935884E0,5.674771070E-1,-4.285093546E-1
8.378343300E1,6.562026739E-1,-9.651386738E-2,1.832541777E-3
8.383423998E1,-1.655396074E-1,-3.443651497E-1,8.704573661E-2
8.388504623E1,-8.666395545E-1,-3.973561525E-1,2.542651594E-1
8.393585164E1,-1.481915474E0,-5.170822144E-1,4.834856093E-1
8.398665789E1,-2.107423067E0,-4.156815708E-1,5.716003180E-1
8.403746492E1,-2.144226551E0,-2.993151546E-2,7.339329720E-1
8.408827112E1,-2.127275467E0,9.452861547E-2,1.021642089E0
8.413907654E1,-2.053973913E0,2.785463631E-1,9.200887084E-1
8.418988279E1,-1.950893402E0,2.667875290E-1,6.386408210E-1
8.424068982E1,-1.466033459E0,-1.097997949E-1,3.130592033E-2
8.429149602E1,-7.611156702E-1,6.902574003E-2,-1.214058921E-1
8.434230138E1,6.795676053E-2,1.837123185E-1,-2.449497581E-1
8.439310768E1,6.653653979E-1,-2.075353563E-1,-1.424801201E-1
8.444391466E1,1.034011722E0,-2.060082406E-1,4.917320609E-2
8.449472086E1,1.330578089E0,-4.388937652E-1,-1.145338640E-2
8.454552623E1,1.133732557E0,-1.895153672E-1,-5.716003180E-1
8.459633248E1,1.352263093E0,2.666348219E-1,-7.307260633E-1
8.464713951E1,1.475501537E0,3.996468186E-1,-5.671716928E-1
8.469794571E1,1.946159363E0,3.037438095E-1,-6.459710002E-1
8.474875107E1,2.053668499E0,4.327852726E-1,-1.971509457E-1
8.479955732E1,1.757407546E0,6.207735538E-1,-2.389939874E-1
8.485036430E1,1.586064935E0,6.839962006E-1,-4.604261220E-1
8.490117050E1,8.063184023E-1,3.225273490E-1,-3.871244490E-1
8.495197581E1,1.313321590E-1,-5.573981255E-2,-4.081986845E-1
8.500278206E1,-6.068767309E-1,-3.591781855E-1,-1.974563748E-1
8.505358904E1,-1.644095421E0,-6.381826997E-1,-9.437590092E-2
8.510439524E1,-2.352067471E0,-6.603258848E-1,1.936385781E-1
8.515520060E1,-2.368407488E0,-1.592784226E-1,5.847335458E-1
8.520600680E1,-2.145142794E0,3.843756318E-1,9.823951125E-1
8.525681378E1,-2.090166569E0,3.741439581E-1,9.391776323E-1
8.530761998E1,-1.955016613E0,1.371352077E-1,6.039752364E-1
8.535842529E1,-1.699835181E0,-1.670667231E-1,1.139230132E-1
8.540923154E1,-1.017976999E0,-2.504473738E-2,-1.464506239E-1
8.546003847E1,2.641914412E-2,2.153236605E-2,-5.021164417E-1
8.551084466E1,6.030589342E-1,-8.506047726E-2,-3.005368412E-1
8.556164998E1,8.325847983E-1,-3.620797098E-1,-2.817533016E-1
8.561245623E1,9.385668039E-1,-8.536590636E-2,-5.405998230E-2
8.566326315E1,1.203216434E0,-4.847072959E-1,-1.953184158E-1
8.571406935E1,1.339588046E0,-3.388675153E-1,-4.384356141E-1
8.576487466E1,1.699529767E0,1.120904684E-1,-6.733064055E-1
8.581568086E1,1.975021958E0,3.156553209E-1,-6.387935281E-1
8.586648784E1,2.256317139E0,7.317950130E-1,-5.731274486E-1
8.591729399E1,2.365047932E0,9.772028923E-1,-4.946335554E-1
8.596809930E1,1.669292808E0,5.086830258E-1,-4.289674759E-1
8.601890550E1,6.381826997E-1,-2.130329758E-1,-3.252761662E-1
8.606971242E1,-4.312581718E-1,-3.226800561E-1,-3.038965166E-2
8.612051857E1,-1.232995152E0,-1.786728203E-1,1.053711548E-1
8.617132388E1,-1.616149187E0,-3.976615667E-1,5.002838969E-1
8.622213008E1,-1.792378545E0,-5.435013771E-1,8.631271720E-1
8.627293701E1,-1.991056681E0,-1.566823274E-1,1.194664478E0
8.632374315E1,-2.436669827E0,-5.935907960E-1,1.304158926E0
8.637454847E1,-1.997012377E0,2.884726226E-1,1.253000498E0
8.642535466E1,-1.803526521E0,2.191414535E-1,3.510844707E-1
8.647616159E1,-1.353179336E0,2.733541466E-2,1.424801201E-1
8.652696774E1,-6.621584296E-1,-1.395785958E-1,-9.697200358E-2
8.657777305E1,3.339807391E-1,-2.580829561E-1,-2.496838123E-1
8.662857920E1,1.055238605E0,-7.215633392E-1,-1.424801201E-1
8.667938612E1,1.072189689E0,3.956763148E-1,-6.978929788E-2
8.673019227E1,9.655967951E-1,8.765657991E-2,-5.560237169E-1
8.678099753E1,1.243837714E0,4.847072959E-1,-5.337277651E-1
8.683180373E1,1.633100152E0,4.338542521E-1,-5.259394646E-1
8.688261065E1,1.729461312E0,8.339592218E-1,-2.791571915E-1
8.693341675E1,2.109255552E0,5.372401476E-1,-7.153021693E-1
8.698422206E1,2.053668499E0,7.582141757E-1,-1.062721491E0
8.703502820E1,1.640124917E0,3.961344361E-1,-1.032179117E0
8.708583513E1,9.849911928E-1,-1.055238619E-1,-7.270609736E-1
8.713664123E1,1.023169141E-2,-4.249969721E-1,-4.176668227E-1
8.718744654E1,-5.731274486E-1,-4.592044353E-1,9.162709117E-2
8.723825268E1,-1.515970230E0,-3.413109183E-1,6.473453641E-1
8.728905956E1,-2.423383713E0,-6.931589246E-1,6.513158679E-1
8.733986571E1,-2.698265076E0,-4.520269632E-1,8.163973689E-1
8.739067097E1,-2.034884930E0,2.270824611E-1,9.608627558E-1
8.744147711E1,-2.105437756E0,1.843231618E-1,9.097042680E-1
8.749228399E1,-1.987849712E0,-1.711899489E-1,5.688515306E-1
8.754309013E1,-1.415943980E0,-4.660764635E-1,1.302631795E-1
8.759389539E1,-4.830274582E-1,-3.637595475E-1,-2.586938143E-1
8.764470154E1,4.184303582E-1,7.162184268E-2,-1.007898003E-1
8.769550841E1,6.195518374E-1,-3.113794029E-1,-4.184303805E-2
8.774631451E1,9.072608948E-1,-1.191152167E-2,2.318165302E-1
8.779711977E1,1.486191392E0,-3.174878657E-1,1.766875684E-1
8.784792591E1,1.717702508E0,-7.290462255E-1,-3.961344361E-1
8.789873279E1,2.038549900E0,-3.130592033E-2,-6.740699410E-1
8.794953888E1,2.058860779E0,1.873773932E-1,-6.566607952E-1
8.800034414E1,2.260440350E0,9.121476412E-1,-6.775823236E-1
8.805115029E1,2.445832491E0,1.304006219E0,-7.159129977E-1
8.810195716E1,1.849034667E0,4.479037523E-1,-6.647545099E-1
8.815276320E1,6.536065936E-1,-1.692046970E-1,-3.903313875E-1
8.820356847E1,-6.369609833E-1,-1.262926757E-1,-2.431172132E-1
8.825437461E1,-1.559951186E0,-1.669140160E-1,7.024743594E-3
8.830518144E1,-2.060845852E0,-3.581092060E-1,4.188885093E-1
8.835598753E1,-2.285026789E0,-1.913478971E-1,7.140804529E-1
8.840679279E1,-2.355885267E0,-7.207997888E-2,1.032789946E0
8.845759888E1,-2.238296986E0,1.015533581E-1,1.098608851E0
8.850840576E1,-2.147280931E0,3.794888556E-1,4.384356141E-1
8.855921185E1,-1.980061412E0,7.666133344E-2,3.909422457E-2
8.861001706E1,-1.229788303E0,3.512371797E-3,-4.075878263E-1
8.866082315E1,-2.443389036E-2,1.446180940E-1,-4.469874799E-1
8.871163003E1,6.198572516E-1,-3.442124426E-1,-3.075616062E-1
8.876243612E1,1.168245435E0,-4.433223903E-1,-9.529217333E-2
8.881324133E1,1.301257372E0,-1.262926757E-1,-1.803526580E-1
8.886404742E1,1.370741248E0,-1.507265568E-1,-5.239542127E-1
8.891485430E1,1.615080118E0,1.722589284E-1,-5.057815313E-1
8.896566034E1,2.016712189E0,2.411319613E-1,-6.484143734E-1
8.901646555E1,2.394063234E0,4.240806997E-1,-6.759024858E-1
8.906727164E1,2.220582485E0,-5.803049076E-3,-3.539859951E-1
8.911807852E1,1.645469785E0,3.518480062E-1,-3.436015844E-1
8.916888456E1,9.936957955E-1,4.123218954E-1,-1.910424829E-1
8.921968977E1,-2.809897438E-2,-1.047603041E-1,6.108472496E-2
8.927049586E1,-1.116017938E0,-5.041016936E-1,5.870242119E-1
8.932130268E1,-1.666391373E0,-5.793886185E-1,6.794148684E-1
8.937210873E1,-2.085585356E0,-2.617480457E-1,6.450546980E-1
8.942291394E1,-2.813867807E0,-4.138490185E-2,8.938222528E-1
8.947372008E1,-2.375279665E0,3.723114133E-1,8.718317747E-1
8.952452690E1,-1.976854444E0,2.573194206E-1,8.188407421E-1
8.957533294E1,-1.796349049E0,3.436015919E-2,4.572191834E-1
8.962613810E1,-1.131899953E0,-4.078932703E-1,7.727217674E-2
8.967694420E1,-1.366770715E-1,8.139539510E-2,-4.404208660E-1
8.972775102E1,4.503471553E-1,2.875563502E-1,-4.030064642E-1
8.977855706E1,7.241594195E-1,2.626643144E-2,-3.724641204E-1
8.982936227E1,1.111589313E0,-4.504998401E-2,-1.649287529E-2
8.988016836E1,1.544985414E0,-6.036698222E-1,-1.165191159E-1
8.993097519E1,1.616454601E0,-3.555130959E-1,-6.936170459E-1
8.998178123E1,2.081920147E0,2.339545041E-1,-6.048914790E-1
9.003258638E1,2.335727215E0,4.967715442E-1,-5.270084739E-1
9.008339248E1,2.458812952E0,8.817580342E-1,-4.075878263E-1
9.013419930E1,2.240435123E0,9.290986657E-1,-4.132381678E-1
9.018500529E1,1.376544356E0,2.211267054E-1,-4.393518865E-1
9.023581050E1,4.428642616E-2,-2.134911120E-1,-3.970507067E-3
9.028661659E1,-1.244295835E0,-3.603998721E-1,1.058292910E-1
9.033742336E1,-1.898818731E0,-7.339329720E-1,4.251496792E-1
9.038822940E1,-2.350845575E0,-6.442911625E-1,5.549547076E-1
9.043903456E1,-2.549981833E0,-1.429382563E-1,7.533273697E-1
9.048984065E1,-2.267159700E0,9.605573118E-2,1.241699815E0
9.054064742E1,-2.066954374E0,2.626643181E-1,1.036913276E0
9.059145347E1,-1.604237556E0,2.605263591E-1,3.603998721E-1
9.064225862E1,-1.269798756E0,-8.536590636E-2,-3.206948051E-3
9.069306466E1,-5.743491650E-1,-2.070772201E-1,-2.279987335E-1
9.074387149E1,2.359397560E-1,2.170034945E-1,-2.397575527E-1
9.079467748E1,7.728744745E-1,-1.487413049E-1,-3.356605768E-1
9.084548263E1,1.270867705E0,-3.356605768E-1,-1.626380831E-1
9.089628873E1,1.611415029E0,-5.827482939E-1,-2.331909388E-1
9.094709550E1,1.718007922E0,-4.729484916E-1,-4.248442650E-1
9.099790149E1,1.914395332E0,-2.221956849E-1,-8.542698622E-1
9.104870670E1,2.311140537E0,6.942279339E-1,-5.986303091E-1
9.109951274E1,2.496685505E0,1.169161677E0,-5.935907960E-1
9.115031951E1,1.936843991E0,6.394043565E-1,-4.657710493E-1
9.120112550E1,1.150683522E0,3.765873313E-1,-6.038225293E-1
9.125193065E1,1.814216375E-1,-5.360184610E-2,-5.341859460E-1
9.130273670E1,-8.191461563E-1,-2.802261710E-1,-1.530172378E-1
9.135354347E1,-1.797570825E0,-7.569924593E-1,3.953709006E-1
9.140434946E1,-2.128191948E0,-6.416950226E-1,5.497625470E-1
9.145515461E1,-2.324426651E0,-4.718795046E-2,5.259394646E-1
9.150596065E1,-2.485690117E0,5.955760926E-2,1.040272832E0
9.155676742E1,-2.308391809E0,-4.642439261E-2,1.249335408E0
9.160757341E1,-2.155527353E0,-1.336228400E-1,7.223268747E-1
9.165837857E1,-1.589577317E0,-1.241547018E-1,-1.924168877E-2
9.170918461E1,-5.854970813E-1,-2.127275616E-1,-1.067455560E-1
9.175999138E1,3.448232710E-1,-1.004843712E-1,1.496575773E-2
9.181079737E1,8.999307156E-1,-3.303156495E-1,-1.998997629E-1
9.186160253E1,1.181531310E0,-9.910997003E-2,8.078455180E-2
9.191240852E1,1.262163162E0,-3.720059693E-1,-1.217113137E-1
9.196321529E1,1.522842169E0,-3.636068404E-1,-2.166980654E-1
9.201402128E1,2.008465767E0,-3.985778391E-1,-6.000047326E-1
9.206482638E1,2.406890869E0,1.959292591E-1,-8.965710402E-1
9.211563242E1,2.484773874E0,8.967237473E-1,-8.029587269E-1
9.216643920E1,2.223025799E0,1.312099934E0,-5.169295073E-1
9.221724519E1,1.758629203E0,9.349017143E-1,-3.927747905E-1
9.226805029E1,7.272136807E-1,-5.146388337E-2,-1.198787764E-1
9.231885633E1,-4.920374751E-1,-5.358657837E-1,2.519745007E-2
9.236966305E1,-1.451373100E0,-6.536065936E-1,2.701472044E-1
9.242046904E1,-2.052294016E0,-5.277720094E-1,5.190674663E-1
9.247127414E1,-2.486148357E0,-2.912214398E-1,5.835118294E-1
9.252208019E1,-2.496990919E0,3.190149665E-1,8.335011005E-1
9.257288690E1,-2.162093878E0,5.244123936E-1,9.721634388E-1
9.262369289E1,-2.123915911E0,2.654131353E-1,7.893673778E-1
9.267449800E1,-1.726559758E0,1.059819981E-1,3.652866483E-1
9.272530399E1,-1.075549364E0,-7.024743594E-3,-3.448232710E-1
9.277611076E1,-1.801999360E-1,1.769929975E-1,-2.869454920E-1
9.282691670E1,4.801259339E-1,-3.113794029E-1,-2.446443290E-1
9.287772180E1,9.894198179E-1,-2.504473738E-2,-1.788255423E-1
9.292852779E1,1.099830508E0,-1.708845198E-1,-2.370087355E-1
9.297933456E1,1.459772229E0,-4.308000207E-1,-3.477247953E-1
9.303014050E1,1.708387017E0,-7.299624383E-2,-6.749862432E-1
9.308094560E1,2.276933193E0,1.514901221E-1,-7.968502641E-1
9.313175159E1,2.443236351E0,6.029062271E-1,-7.136223316E-1
9.318255836E1,2.507680655E0,8.916842937E-1,-6.074876189E-1
9.323336430E1,1.960972428E0,8.385405540E-1,-6.363501549E-1
9.328416940E1,9.136747718E-1,2.319692522E-1,-5.352548957E-1
9.333497545E1,-8.735115826E-2,-1.769929975E-1,-1.440072358E-1
9.338578216E1,-1.153126955E0,-5.062396526E-1,2.183778882E-1
9.343658810E1,-1.829029441E0,-4.466820657E-1,2.646495700E-1
9.348739326E1,-2.438807726E0,-5.114318728E-1,3.973561525E-1
9.353819925E1,-2.646953821E0,-3.706315756E-1,8.254073858E-1
9.358900602E1,-2.491646051E0,-7.437065244E-2,1.017366052E0
9.363981201E1,-2.259218693E0,2.229592577E-2,6.519267559E-1
9.369061711E1,-1.842620730E0,-1.435490996E-1,5.720584393E-1
9.374142315E1,-1.299119353E0,-7.925742865E-2,-4.886778072E-2
9.379222992E1,-5.178457499E-1,4.382828996E-2,-5.894676223E-2
9.384303586E1,4.011739492E-1,3.167243004E-1,-2.221956849E-1
9.389384102E1,7.464553714E-1,-9.758284688E-2,-5.573981255E-2
9.394464706E1,1.335159421E0,-5.086830258E-1,2.168507688E-2
9.399545383E1,1.428008199E0,-3.248180151E-1,-5.170822144E-1
9.404625982E1,1.622410297E0,-4.657710493E-1,-6.134433746E-1
9.409706498E1,1.786880970E0,-2.861819267E-1,-6.120689511E-1
9.414787102E1,2.113531590E0,4.039227366E-1,-7.026270628E-1
9.419867784E1,2.490424156E0,5.231906772E-1,-4.637857676E-1
9.424948383E1,2.173089027E0,4.902049303E-1,-3.129065037E-1
9.430028899E1,1.496728539E0,6.079457402E-1,-1.881409585E-1
9.435109508E1,6.462764144E-1,2.692309320E-1,-1.618745178E-1
9.440190185E1,-5.963396430E-1,-4.156815708E-1,2.802261710E-1
9.445270789E1,-1.554911733E0,-4.866925478E-1,4.446968138E-1
9.450351305E1,-1.784590244E0,-3.431434333E-1,3.289412558E-1
9.455431914E1,-2.267312288E0,-2.449497581E-1,8.426637650E-1
9.460512597E1,-2.424605370E0,7.040014863E-2,1.011868477E0
9.465593196E1,-2.096733332E0,5.334223509E-1,1.031568289E0
9.470673716E1,-2.094748020E0,2.133384049E-1,7.218687534E-1
9.475754326E1,-1.858502746E0,3.126010895E-1,3.258870244E-1
9.480835008E1,-9.823951125E-1,1.774511337E-1,-1.548497826E-1
9.485915612E1,8.842013776E-2,5.448757410E-1,-3.646758199E-1
9.490996133E1,7.916580439E-1,-1.577513069E-1,-1.324011385E-1
9.496076742E1,1.202758312E0,-1.272089481E-1,-9.513945878E-2
9.501157425E1,1.309961915E0,-5.344913341E-3,-5.589252338E-2
9.506238034E1,1.367839694E0,-3.955236077E-1,-4.288147688E-1
9.511318555E1,1.605306625E0,-2.826695740E-1,-8.270871639E-1
9.516399164E1,1.889350533E0,2.363978922E-1,-9.620844126E-1
9.521479852E1,2.293578863E0,2.968717813E-1,-7.922688723E-1
9.526560456E1,2.368560314E0,5.951179266E-1,-5.673243999E-1
9.531640977E1,2.030608892E0,8.185353279E-1,-4.227063060E-1
9.536721591E1,9.915578365E-1,2.808370292E-1,-2.695363462E-1
9.541802279E1,-2.991624475E-1,-3.246653080E-1,5.528167635E-2
9.546882883E1,-1.337297320E0,-4.384356141E-1,3.475720882E-1
9.551963409E1,-1.891946673E0,-5.854970813E-1,4.399627447E-1
9.557044019E1,-2.361230135E0,-4.425588250E-1,6.319214702E-1
9.562124706E1,-2.494089365E0,-1.918060333E-1,9.396358132E-1
9.567205315E1,-2.401240587E0,1.070509851E-1,1.032026410E0
9.572285841E1,-2.019461155E0,2.408265322E-1,8.932114244E-1
9.577366456E1,-1.961735964E0,1.090362370E-1,3.755183518E-1
9.582447144E1,-1.159388065E0,-2.654131353E-1,-1.521009654E-1
9.587527748E1,-2.246390730E-1,3.280249834E-1,-3.420744538E-1
9.592608274E1,4.425588250E-1,-1.545443535E-1,-1.226275861E-1
9.597688888E1,9.648332596E-1,-4.961606860E-1,-2.313583940E-1
9.602769576E1,1.214058876E0,-1.343863904E-1,-1.514901221E-1
9.607850185E1,1.449998736E0,-2.771719396E-1,-3.289412558E-1
9.612930716E1,1.658297539E0,-1.979145110E-1,-6.062659025E-1
9.618011331E1,1.998844981E0,4.358395338E-1,-7.502731681E-1
9.623092018E1,2.387038469E0,1.797417998E-1,-7.064448595E-1
9.628172628E1,2.517301559E0,1.003774762E0,-4.877615273E-1
9.633253154E1,2.316179991E0,9.600991607E-1,-5.757235289E-1
9.638333774E1,1.324011445E0,1.860029846E-1,-3.286358118E-1
9.643414461E1,8.796200156E-2,-3.768927455E-1,-1.000262350E-1
9.648495070E1,-1.207034230E0,-4.621059597E-1,2.021904439E-1
9.653575602E1,-1.893931985E0,-6.491779089E-1,3.851391971E-1
9.658656216E1,-2.197675705E0,-4.396573007E-1,5.729747415E-1
9.663736909E1,-2.516079903E0,-1.959292591E-1,7.330167294E-1
9.668817518E1,-2.240435123E0,2.944283783E-1,1.086849928E0
9.673898050E1,-2.271435499E0,2.403683960E-1,1.186265349E0
9.678978664E1,-2.125595808E0,3.675773442E-1,5.068505406E-1
9.684059357E1,-1.635390878E0,-2.718270384E-2,-1.050657257E-1
9.689139966E1,-6.791094542E-1,-5.039489828E-3,-2.521272004E-1
9.694220498E1,4.498890042E-1,-5.192201585E-3,-4.089622498E-1
9.699301117E1,9.026795626E-1,-2.176143378E-1,-3.559712470E-1
9.704381805E1,1.062263370E0,-1.382041872E-1,-7.131642103E-2
9.709462420E1,1.234064221E0,-1.731752008E-1,-2.186833173E-1
9.714542951E1,1.560409307E0,-4.608842432E-1,-5.596888065E-1
9.719623570E1,1.982352018E0,6.200099736E-2,-6.306998134E-1
9.724704258E1,2.434531689E0,2.182251811E-1,-6.174138784E-1
9.729784873E1,2.499587059E0,4.692834020E-1,-5.548020005E-1
9.734865404E1,2.366269588E0,7.973083854E-1,-6.432221532E-1
9.739946024E1,1.563310862E0,4.477510452E-1,-4.246915579E-1
9.745026716E1,6.803311110E-1,1.801999360E-1,-2.050919682E-1
9.750107331E1,-5.031854510E-1,-2.240282297E-1,7.391251624E-2
9.755187862E1,-1.497797489E0,-2.929012477E-1,2.967190444E-1
9.760268482E1,-2.393299580E0,-1.766875684E-1,3.129065037E-1
9.765349175E1,-3.081571817E0,-3.148917556E-1,2.415900975E-1
9.770429789E1,-2.820281744E0,-2.959555089E-1,8.101361990E-1
9.775510321E1,-2.273878813E0,2.473931462E-1,1.173895717E0
9.780590940E1,-2.337559700E0,2.279987335E-1,7.664605975E-1
9.785671633E1,-1.686243892E0,-2.997733057E-1,2.779355086E-2
9.790752248E1,-7.795938253E-1,-1.884463727E-1,-3.955236077E-1
9.795832779E1,4.033119082E-1,-5.375456065E-2,-1.776038408E-1
9.800913399E1,7.533273697E-1,-4.217900336E-1,-1.907370538E-1
9.805994097E1,9.014578462E-1,-5.821374655E-1,-1.389677543E-2
9.811074711E1,1.684105873E0,-6.146650314E-1,3.455868363E-1
9.816155242E1,1.447402596E0,-6.456655264E-1,-3.994941115E-1
9.821235862E1,1.718313336E0,8.826743066E-2,-8.693883419E-1
9.826316560E1,1.980061412E0,4.051444530E-1,-7.032378912E-1
9.831397175E1,2.539292097E0,5.992411375E-1,-6.647545099E-1
9.836477711E1,2.506458998E0,8.971819282E-1,-3.417690396E-1
9.841558331E1,2.057486296E0,8.796200752E-1,-3.845283389E-1
9.846639029E1,1.095096469E0,1.273616552E-1,-2.118112892E-1
9.851719649E1,-2.834331393E-1,-4.008685052E-1,1.635543555E-1
9.856800180E1,-1.339435339E0,-3.480302393E-1,1.699682474E-1
9.861880805E1,-2.033357859E0,-8.174663186E-1,2.728960216E-1
9.866961503E1,-2.513789177E0,-8.509102464E-1,5.037962794E-1
9.872042123E1,-2.381693363E0,1.053711493E-2,9.258917570E-1
9.877122659E1,-2.072299242E0,5.354076028E-1,1.483595252E0
9.882203284E1,-2.087417841E0,7.919634581E-1,1.228566527E0
9.887283982E1,-1.914395332E0,4.622586668E-1,4.278984964E-1
9.892364602E1,-1.242157936E0,-1.221694518E-3,-4.291202128E-2
9.897445138E1,-3.304683566E-1,2.904578745E-1,-4.358395338E-1
9.902525768E1,5.489989519E-1,4.795150831E-2,-2.516690791E-1
9.907606466E1,1.058598280E0,-1.200314835E-1,-1.739387512E-1
9.912687091E1,1.421288848E0,-2.594573796E-1,-2.761029601E-1
9.917767628E1,1.328134656E0,-3.326063454E-1,-3.167243004E-1
9.922848253E1,1.614316583E0,-1.424801201E-1,-6.812474132E-1
9.927928956E1,1.747175932E0,4.388937652E-1,-6.410841942E-1
9.933009581E1,2.329007864E0,3.773508966E-1,-5.842754245E-1
9.938090117E1,2.454384327E0,4.747810364E-1,-5.143333673E-1
9.943170748E1,2.146211863E0,8.376243114E-1,-5.108210444E-1
9.948251451E1,1.187028885E0,2.890834510E-1,-4.387410581E-1
9.953332076E1,1.414111406E-1,-1.305686086E-1,-1.812689304E-1
9.958412617E1,-9.376505613E-1,-3.144336343E-1,-7.788302377E-3
9.963493248E1,-1.664711475E0,-6.852179170E-1,2.678565085E-1
9.968573951E1,-2.219818830E0,-8.060129285E-1,4.530959427E-1
9.973654576E1,-2.623894453E0,-3.602471650E-1,5.851916671E-1
9.978735117E1,-2.420787573E0,1.429382563E-1,9.002361298E-1
9.983815748E1,-2.220735312E0,6.077930331E-2,1.025918007E0
9.988896456E1,-1.779703498E0,-1.466033421E-2,5.696150661E-1
9.993977081E1,-1.324927688E0,-2.930539846E-1,7.314895838E-2
9.999057628E1,-6.737645268E-1,-2.701472044E-1,2.715215981E-1
1.000413826E2,3.318427801E-1,-1.310267299E-1,-8.582404256E-2
1.000921897E2,1.027445078E0,-6.322269142E-2,-1.140757278E-1
1.001429959E2,1.150530815E0,-3.472666740E-1,-2.386885732E-1
1.001938014E2,1.416402102E0,1.435491070E-2,-1.394258887E-1
1.002446077E2,1.711746693E0,-2.606790662E-1,-3.133646548E-1
1.002954148E2,1.802304864E0,-6.001574174E-2,-7.988355160E-1
1.003462211E2,2.189276695E0,6.986565590E-1,-8.118160367E-1
1.003970266E2,2.310224295E0,6.894938350E-1,-5.048652887E-1
1.004478329E2,2.214473963E0,9.747595191E-1,-4.457657933E-1
1.004986400E2,1.811925650E0,9.199360013E-1,-5.456393361E-1
1.005494464E2,8.167027831E-1,2.322746664E-1,-3.584146202E-1
1.006002519E2,-4.262186885E-1,-3.658975065E-1,-1.814216375E-1
1.006510582E2,-1.527576327E0,-5.577035546E-1,5.085303262E-2
1.007018653E2,-2.297243834E0,-5.877877474E-1,2.107423097E-1
1.007526717E2,-2.634889603E0,-4.268295169E-1,2.999260128E-1
1.008034772E2,-2.619160414E0,-1.982199401E-1,7.487460375E-1
1.008542836E2,-2.288386583E0,3.237490356E-2,9.669712186E-1
1.009050907E2,-2.207754612E0,5.749599934E-1,6.270347238E-1
1.009558971E2,-1.825669765E0,-1.589729935E-1,3.785725832E-1
1.010067026E2,-1.345849276E0,-1.808107942E-1,-8.536590636E-2
1.010575090E2,-1.278197914E-1,5.497625470E-2,-1.476723254E-1
1.011083161E2,7.889092565E-1,-1.023169160E-1,1.750077456E-1
1.011591225E2,1.710983157E0,-9.768974781E-1,4.123218823E-3
1.012099280E2,1.569266558E0,-1.708845198E-1,-8.872556686E-2
1.012607345E2,1.161220670E0,-4.561502039E-1,-5.369347334E-1
1.013115416E2,1.652189136E0,-4.260659590E-2,-1.656923145E-1
1.013623480E2,1.928902984E0,-5.326588154E-1,-9.313893318E-1
1.014131536E2,1.903400064E0,3.229855001E-1,-8.270871639E-1
1.014639600E2,2.134605646E0,5.633538961E-1,-5.903838873E-1
1.015147672E2,2.140408754E0,1.011868477E0,-4.375193417E-1
1.015655736E2,1.452136636E0,6.357392669E-1,-2.460187376E-1
1.016163791E2,2.765611112E-1,-5.344913527E-2,1.679829881E-2
1.016671857E2,-1.129303813E0,-4.689779878E-1,2.279987335E-1
1.017179928E2,-1.820324779E0,-5.103628635E-1,4.479037523E-1
1.017687992E2,-2.313278675E0,-3.144336343E-1,4.654656053E-1
1.018196048E2,-2.478359938E0,-3.420744836E-2,6.606312990E-1
1.018704113E2,-2.459576607E0,3.718532622E-1,7.707365155E-1
1.019212185E2,-2.545858622E0,5.734328628E-1,6.974348426E-1
