"Time (s)","Gyroscope x (rad/s)","Gyroscope y (rad/s)","Gyroscope z (rad/s)"
5.023396100E-2,-3.613161445E-1,3.713951409E-1,-2.678565085E-1
1.010330760E-1,-8.353336155E-2,1.009425074E-1,-2.370087355E-1
1.518328670E-1,-3.503209054E-1,-9.481876493E-1,-1.409530044E-1
2.026318780E-1,-6.462764144E-1,-1.188097954E0,-2.386885732E-1
2.534301590E-1,-6.398624778E-1,-5.236487985E-1,-2.348707765E-1
3.042292740E-1,-8.394568563E-1,-2.738122940E-1,5.482354015E-2
3.550291170E-1,-7.962393761E-1,-1.169161677E0,4.104893506E-1
4.058290110E-1,-3.341334462E-1,-2.599766016E0,5.653391480E-1
4.566273440E-1,1.734806150E-1,-7.693621516E-1,-2.719797492E-1
5.074264590E-1,2.316638231E-1,4.182776511E-1,-4.375193417E-1
5.582263540E-1,-1.047450304E0,3.787253052E-2,-2.183778882E-1
6.090253650E-1,-2.973757267E0,-6.942279339E-1,5.563291311E-1
6.598236980E-1,-3.594683409E0,-1.184127450E0,1.181073189E0
7.106228650E-1,-3.597584963E0,-1.365549088E0,1.366312623E0
7.614227610E-1,-3.349122763E0,-1.526507258E0,2.118571043E0
8.122217710E-1,-3.182056189E0,-1.338213682E0,1.707012653E0
8.630201040E-1,-3.411581993E0,-1.460993886E0,1.171604991E0
9.138192190E-1,-2.646801233E0,-1.157250166E0,1.835595965E-1
9.646192190E-1,-1.404185176E0,-1.526049137E0,-4.709632397E-1
1.015418282E0,-2.556395829E-1,-2.015643358E0,-9.220739603E-1
1.066216615E0,3.344388679E-2,-1.965859175E0,-3.339807391E-1
1.117015782E0,-9.636115283E-2,-1.176186442E0,-5.030327439E-1
1.167815729E0,-4.671454430E-1,-1.152210593E0,-6.780404449E-1
1.218614792E0,-7.007945180E-1,-1.057682037E0,-2.009687424E-1
1.269413177E0,3.889569938E-1,-1.609887958E0,-5.013529062E-1
1.320212396E0,-4.526378214E-1,2.739650011E-1,-8.735115826E-2
1.371012708E0,-5.375455618E-1,-1.009425074E-1,-3.807105422E-1
1.421811823E0,9.483403563E-1,-6.760551929E-1,-4.321744442E-1
1.472610208E0,9.926267713E-2,7.944068313E-1,-5.022691488E-1
1.523409427E0,-2.658712566E-1,5.309789777E-1,1.134648770E-1
1.574209375E0,-4.314108789E-1,7.463026643E-1,7.073611021E-1
1.625008489E0,-3.184041381E-1,7.304205894E-1,2.366880417E0
1.675806875E0,4.107947648E-2,3.878879920E-2,7.233958840E-1
1.726606093E0,2.182251811E-1,-5.399889946E-1,-3.649812341E-1
1.777406041E0,4.046862945E-2,-1.137855768E0,5.720584393E-1
1.828205156E0,-2.409792393E-1,-1.604237556E0,2.454842329E0
1.879003541E0,-1.404948682E-1,-2.727433145E-1,2.689713240E0
1.929802812E0,-5.445703268E-1,4.672981426E-2,7.798992395E-1
1.980602760E0,-6.749862432E-2,-1.283237338E0,5.630484819E-1
2.031401927E0,-2.776300907E-1,-1.838192105E0,6.265766025E-1
2.082200312E0,6.369609833E-1,-1.676775664E-1,4.115583301E-1
2.132999583E0,1.555369854E0,-1.186112642E0,1.260635972E0
2.183799531E0,2.013963461E0,1.946312070E0,-1.494590521E0
2.234598698E0,7.695148587E-1,1.297744989E0,-6.354338527E-1
2.285397135E0,2.640387416E-1,2.003273487E0,-6.878139973E-1
2.336196406E0,3.692571819E-1,1.218029380E0,-5.445703268E-1
2.386996354E0,1.565448761E0,-8.490777016E-2,-1.598892659E-1
2.437795520E0,1.271020412E0,-1.057987452E0,-1.678302884E-1
2.488593958E0,8.571714163E-1,-7.959339619E-1,2.015795931E-2
2.539393229E0,-2.305948362E-2,-8.047912270E-2,5.367820263E-1
2.590193229E0,-9.355126023E-1,5.980194807E-1,7.363763452E-1
2.640992500E0,-6.533011198E-1,1.232384369E-1,-4.604261220E-1
2.691790885E0,2.075353563E-1,-7.233958840E-1,-2.011672735E0
2.742590156E0,-8.008207679E-1,1.095249176E0,-1.220167428E-1
2.793390156E0,-5.607577562E-1,1.256971002E0,1.788408041E0
2.844189375E0,-4.326325655E-1,1.617676258E0,2.766069174E0
2.894987812E0,-2.974826097E0,-2.288386583E0,8.060129285E-1
2.945787031E0,-1.365701795E0,-1.895611763E0,8.086090684E-1
2.996587135E0,-5.708367825E-1,-1.447708011E0,1.347070932E0
3.047386354E0,-8.402203918E-1,-1.026376128E0,1.418234587E0
3.098184791E0,-1.359135151E0,2.634278834E-1,1.149461865E0
3.148984114E0,-1.515970230E0,4.046863019E-1,1.041800022E0
3.199784166E0,2.228065491E0,-1.916380525E0,1.185959935E0
3.250583333E0,2.916642904E0,-2.679176092E0,3.651339412E-1
3.301381823E0,1.852394342E-1,3.384704590E0,-1.101815701E0
3.352179998E0,3.805273056E0,1.723963618E0,-1.051573515E0
3.402980051E0,3.466405392E0,2.742704153E-1,-2.651840687E0
3.453779269E0,5.775560737E-1,-2.688644171E0,-3.150444746E0
3.504577759E0,-9.329164624E-1,-2.642219782E0,-3.153499067E-1
3.555377082E0,-1.269951463E0,-6.694886088E-1,7.632536292E-1
3.606177134E0,-7.197307944E-1,9.542961121E-1,7.232431769E-1
3.656976457E0,-7.482878864E-3,-2.767290831E0,-7.950177193E-1
3.707774894E0,-1.929513812E0,2.896637678E0,7.437065244E-2
3.758574217E0,1.790087938E0,4.260964870E0,-1.698308110E0
3.809374321E0,-1.668376565E0,8.723967552E0,2.330382317E-1
3.860173540E0,-3.531155348E0,4.046710491E0,6.413896382E-2
3.910972030E0,-3.735025644E0,-1.973036647E0,-2.330382317E-1
3.961771405E0,-2.304879427E0,-6.865312576E0,-4.207210541E-1
4.012571509E0,1.158471823E0,-5.701343060E0,4.627167806E-2
4.063370728E0,9.190196991E-1,-9.662076235E-1,7.296570539E-1
4.114169269E0,2.479276419E0,-3.023693897E-2,1.310725451E0
4.164968592E0,2.861208677E0,-2.697348833E0,-1.270104170E0
4.215768696E0,2.321219683E0,-5.076140761E-1,-3.294299364E0
4.266567967E0,1.154195905E0,-3.089359999E0,-2.193552494E0
4.317366509E0,2.838912606E-1,4.633276463E-1,-1.196497083E0
4.368165884E0,1.214058921E-1,1.021183848E0,-1.114796288E-2
4.418965988E0,-1.308587551E0,3.098675489E0,1.973647475E0
4.469765259E0,7.207997888E-2,1.112047434E0,1.035080671E0
4.520563801E0,2.544178963E-1,4.895940721E-1,-1.679219127E0
4.571363176E0,-1.394106150E0,-4.940074444E0,1.270104170E0
4.622163332E0,-5.795413256E-1,2.218750000E0,9.101623893E-1
4.672962603E0,-2.914046764E0,4.849516392E0,-3.908048153E0
4.723761144E0,-3.200228691E0,-3.380275965E0,-1.643484592E0
4.774560571E0,-6.714433193E0,1.778329134E0,1.521009684E0
4.825360676E0,1.098150611E0,-3.448385477E0,1.802762985E0
4.876159998E0,3.646910906E0,-1.294538021E0,6.303943992E-1
4.926958540E0,-9.226847887E-1,3.885446787E0,1.738929391E0
4.977757967E0,3.376610994E0,-1.638445020E0,-3.691044450E-1
5.028558175E0,3.633472204E0,3.841923952E0,-3.600639105E0
5.079357498E0,4.705967426E0,-2.036412001E0,-2.368865728E0
5.130156092E0,2.121778011E0,-1.949060917E0,-8.756495714E-1
5.180955467E0,-6.293253899E-1,1.150530815E0,6.479562521E-1
5.231755623E0,-1.208408594E0,-4.810422286E-2,1.170536041E0
5.282554946E0,-2.437127829E0,-7.235485911E-1,1.099525094E0
5.333353540E0,1.528950691E0,5.235266209E0,-7.907418013E-1
5.384152967E0,1.591257095E0,-6.708935261E0,-2.755532026E0
5.434953175E0,6.117635369E-1,-4.290896416E0,1.915006161E0
5.485752550E0,-1.421746969E0,2.479734421E0,5.498847008E0
5.536551144E0,-7.113010883E0,1.665322304E0,2.498670816E0
5.587350623E0,-5.259394646E-1,-1.831320047E0,2.137965336E-2
5.638150780E0,-1.572168112E0,-9.152019024E-1,-7.046123147E-1
5.688950155E0,-3.054236295E-3,2.120403528E0,-2.478512824E-1
5.739748748E0,2.366880417E0,1.425259352E0,-1.150378108E0
5.790548227E0,3.656073570E0,2.257538795E0,-6.174138784E-1
5.841348384E0,9.868237376E-1,6.060521126E0,-7.844805717E-1
5.892147759E0,2.546927691E0,3.605831385E0,-9.223793447E-2
5.942946405E0,3.369280815E0,-2.507833481E0,-1.204438090E0
5.993745884E0,1.105786204E0,-3.100049868E-2,-7.212579250E-1
6.044546092E0,-1.401283622E0,-3.375236511E0,1.201231122E0
6.095345519E0,-1.544679999E0,-2.923973083E0,2.585716486E0
6.146144113E0,7.956285775E-2,3.359049082E0,7.287407517E-1
6.196943540E0,1.394106150E0,3.177932799E-1,-2.157207012E0
6.247743800E0,-4.046863019E-1,2.301825285E0,1.555369854E0
6.298543175E0,-4.823402882E0,5.579173565E0,1.235591292E0
6.349341821E0,-7.600314140E0,1.402657986E0,-7.769976854E-1
6.400141300E0,-2.101009130E0,-1.305838704E0,-1.376697063E0
6.450941561E0,-9.358180165E-1,-9.617789984E-1,-9.182561636E-1
6.501740936E0,1.296065211E0,-5.748072863E-1,-2.672456764E-2
6.552539582E0,3.236726999E0,4.308000207E-1,7.114843726E-1
6.603339113E0,4.127494812E0,1.930277348E-1,2.270061016E0
6.654139321E0,3.505499601E0,-8.663341403E-1,1.911493778E0
6.704938748E0,3.270628929E0,-1.673874259E0,-1.602099657E0
6.755737394E0,2.049239874E0,-3.927595139E0,-1.166718245E0
6.806536925E0,-1.415638477E-1,-7.337802649E-1,-2.771719396E-1
6.857337186E0,-1.046686769E0,-8.840487003E-1,8.273926377E-1
6.908136665E0,-1.740151167E0,-1.943715930E0,1.399451017E0
6.958935259E0,8.674030751E-2,3.447927237E0,-8.501466513E-1
7.009734790E0,8.368607163E-1,1.101357579E0,-2.777369738E0
7.060535050E0,5.654918551E-1,-2.903357029E0,3.385621011E-1
7.111334477E0,-2.886558771E0,4.292729199E-1,3.678064108E0
7.162133175E0,-5.991189957E0,3.468848944E0,2.285943270E0
7.212932707E0,-4.476593971E0,4.853181541E-1,-4.136963189E-1
7.263733019E0,-1.255138397E0,-3.122956753E-1,-1.858655453E0
7.314532498E0,-3.712424338E-1,-2.356343269E-1,-2.415900975E-1
7.365331144E0,1.183363795E0,1.882936716E0,2.632751763E-1
7.416130675E0,2.545553207E0,2.440181971E0,4.007157981E-1
7.466930988E0,3.432503462E0,1.757560253E0,2.208365440E0
7.517730415E0,2.383526087E0,9.920159578E-1,2.333894730E0
7.568529165E0,4.351370335E0,-5.074613571E0,-4.504998624E-1
7.619328696E0,1.744579792E0,-3.021555901E0,-7.886037827E-1
7.670129009E0,3.527642787E-1,6.291726977E-2,-5.021164417E-1
7.720928436E0,-1.798639774E0,-1.803984642E0,3.358132839E-1
7.771727186E0,-3.229549408E0,2.397575527E-1,1.226123214E0
7.822526769E0,1.438392639E0,1.080130696E0,-1.216655016E0
7.873327082E0,1.569266558E0,-3.229855001E-1,-1.090515018E0
7.924126613E0,4.233171642E-1,1.060430884E0,1.792683959E0
7.974925311E0,-5.015513897E0,1.550788522E0,2.099176645E0
8.025724842E0,-7.410799026E0,2.683757544E0,4.581354558E-2
8.076525207E0,-1.546818018E0,-4.293339729E0,-8.690829277E-1
8.127324686E0,-5.372401476E-1,-3.891555071E0,-3.432961702E-1
8.178123436E0,-9.982771277E-1,7.656970620E-1,-5.819846988E-1
8.228923019E0,2.153083801E0,3.640954971E0,-1.443126678E0
8.279723332E0,3.941491842E0,2.441861868E0,5.016583204E-1
8.330522863E0,2.871592999E0,5.458378315E0,9.831586480E-1
8.381321613E0,4.050986290E0,-5.821221828E0,-2.794626169E-2
8.432121248E0,2.682993889E0,-1.875148416E0,-1.241852522E0
8.482921561E0,3.245126009E-1,2.077033281E0,-3.211529553E-1
8.533721092E0,-9.869764447E-1,2.067412615E0,6.603258848E-1
8.584519894E0,-2.170798540E0,-1.801999360E-1,5.636593103E-1
8.635319477E0,-6.230641901E-2,-2.450108290E0,-1.038287640E0
8.686119842E0,2.079018593E0,1.922641695E-1,-1.631878495E0
8.736919373E0,-3.593308926E-1,-3.414636135E0,-3.573456407E-1
8.787718175E0,-2.928859949E0,-1.877591729E0,4.287537098E0
8.838517811E0,-6.469635963E0,1.166870952E0,2.713841677E0
8.889318227E0,-2.879075766E0,-3.486105204E0,-7.247702479E-1
8.940117759E0,-2.071688414E0,-1.758782029E0,-5.635065958E-2
8.990916561E0,-1.509250879E0,3.248027563E0,2.115058601E-1
9.041716248E0,3.319038630E0,1.022558331E0,-1.223068953E0
9.092516613E0,3.481981993E0,2.109866381E0,1.756185889E-1
9.143316248E0,3.584299088E0,3.297658920E0,1.704416513E0
9.194114998E0,2.876632452E0,2.664057493E0,-1.740914769E-2
9.244914686E0,5.006198883E0,-2.809897423E0,-1.455801725E0
9.295715102E0,4.886777997E-1,2.325648308E0,-5.839699507E-1
9.346514686E0,-1.591257095E0,3.599722862E0,5.205945969E-1
9.397313540E0,-2.314194918E0,1.954711229E-1,9.356653094E-1
9.448113227E0,-1.706707239E0,-2.656574726E0,-9.388722181E-1
9.498913696E0,4.601665020E0,-2.163468361E0,-1.637986898E0
9.549713280E0,7.640172243E-1,-2.570292473E0,-1.518413544E0
9.600512186E0,-1.297897696E0,-3.283762217E0,2.272351742E0
9.651311873E0,-6.932199955E0,-1.677539229E0,3.854904413E0
9.702112342E0,-3.546273708E0,-4.374735355E0,1.171910524E0
9.752912030E0,-2.317859888E0,3.486410677E-1,5.787777901E-2
9.803710884E0,-1.108535051E0,5.919110179E-1,4.923428893E-1
9.854510623E0,1.983879209E0,-1.750077456E-1,-6.064186096E-1
9.905311092E0,2.802872658E0,8.229639530E-1,-6.430694461E-1
9.956110727E0,3.572082043E0,4.016320705E0,-5.978667736E-1
1.000690963E1,1.703958392E0,4.855777740E0,-3.541692495E0
1.005770942E1,4.394740582E0,-1.545138121E0,-3.007048368E0
1.010850989E1,1.023932695E0,1.392731816E-1,-7.719582319E-1
1.015930963E1,-1.301715493E0,1.351804972E0,2.281514555E-1
1.021010854E1,-1.338977218E0,-1.037982225E0,1.295454383E0
1.026090828E1,-9.732323885E-1,-2.564031482E-1,1.837428570E0
1.031170880E1,2.441709280E0,6.676560640E-1,-3.759764731E-1
1.036250849E1,3.837648034E-1,-4.950917244E0,-2.188207626E0
1.041330745E1,1.105022669E0,-1.798181653E0,3.707842827E-1
1.046410729E1,-4.928163052E0,-6.131379604E-1,4.220343590E0
1.051490781E1,-4.331365108E0,-3.280707836E0,2.634431601E0
1.056570760E1,-1.966470003E0,-5.948125124E-1,6.383354068E-1
1.061650651E1,-1.068524599E0,2.015795931E-2,9.596410394E-1
1.066730635E1,1.208103180E0,7.340856791E-1,7.635590620E-3
1.071810687E1,1.991209388E0,-3.454341292E-1,-1.591257155E-1
1.076890661E1,3.360728979E0,3.295979023E0,-1.079519868E0
1.081970562E1,2.191414595E0,2.978338480E0,-3.893234968E0
1.087050547E1,4.147653103E0,-2.283041626E-1,-3.616979361E0
1.092130604E1,1.659977436E0,1.395785958E-1,-1.236202121E0
1.097210578E1,-1.430909634E-1,-1.684716702E0,2.754921019E-1
1.102290484E1,-1.405406833E0,-1.524369359E0,5.928272605E-1
1.107370469E1,-1.626991630E0,-1.140757278E-1,3.057748556E0
1.112450531E1,-3.344388679E-2,1.998386860E0,-1.721062213E-1
1.117530510E1,1.477181435E0,-6.749862432E-1,-1.869039893E0
1.122610411E1,-1.681357026E-1,1.032484531E0,2.015032291E0
1.127690396E1,-3.487479687E0,2.227454424E0,1.999303102E0
1.132770448E1,-6.933574677E0,-2.254026383E-1,2.212946892E0
1.137850427E1,-1.781994224E0,-2.482635975E0,9.729269743E-1
1.142930333E1,1.296523362E-1,-1.764585018E0,1.571404636E-1
1.148010323E1,-1.033859015E0,1.221694469E0,-1.812689304E-1
1.153090385E1,2.083905458E0,6.612421870E-1,-1.065775752E0
1.158170364E1,3.187401056E0,1.340504289E0,1.145338640E-2
1.163250276E1,2.967801332E0,3.078975677E0,3.226800561E-1
1.168330265E1,2.591977596E0,3.750907660E0,9.956810623E-2
1.173410333E1,4.377026081E0,-4.666872919E-1,-1.826280594E0
1.178490312E1,9.199360013E-1,-2.367033064E-2,-1.160151601E0
1.183570224E1,-1.337755442E0,1.373490095E0,-3.101576865E-1
1.188650213E1,-1.442973971E0,-1.710066915E0,1.155722976E0
1.193730281E1,-7.724163532E-1,-1.434880257E0,-1.594311297E-1
1.198810271E1,1.336228400E-1,1.901872993E0,-9.009997249E-1
1.203890177E1,8.092198968E-1,-3.317206144E0,-1.151294351E0
1.208970166E1,1.124722481E0,-1.928750277E-1,8.489249945E-1
1.214050234E1,-5.454560757E0,3.272614181E-1,1.465728045E0
1.219130229E1,-7.649487495E0,-4.479495525E0,1.323095202E0
1.224210135E1,-6.126797795E-1,-2.292204380E0,1.021336675E0
1.229290130E1,-1.204743505E0,5.781669021E-1,7.052231431E-1
1.234370198E1,-4.625640810E-1,1.335617542E0,-5.390726924E-1
1.239450182E1,2.122999668E0,1.505280375E0,-8.270871639E-1
1.244530099E1,2.993762493E0,2.625421524E0,4.610369802E-1
1.249610093E1,3.688906670E0,2.710481882E0,8.657232523E-1
1.254690161E1,3.563071966E0,2.078713179E0,2.098260373E-1
1.259770156E1,4.293034554E0,-1.453052878E0,-1.825669765E0
1.264850062E1,9.562813640E-1,-5.690042377E-1,-6.592568755E-1
1.269930062E1,-1.030652046E0,6.164975762E-1,4.173613787E-1
1.275010130E1,-1.583316088E0,-2.295869350E0,1.565907001E0
1.280090125E1,-1.656617761E0,-1.207950473E0,1.391204596E-1
1.285170031E1,1.295454383E0,-2.060082406E-1,-1.357608080E0
1.290250031E1,1.016755223E0,-1.611415029E0,-2.015490532E0
1.295330104E1,4.382828996E-2,-1.540404081E0,1.511541486E0
1.300410099E1,-6.208193302E0,2.458660305E-2,4.282497406E0
1.305490005E1,-5.386298180E0,-3.047364235E0,9.765920639E-1
1.310570005E1,-7.928797603E-1,-8.674030900E-1,1.577513069E-1
1.315650078E1,-1.997928619E0,-3.568875194E-1,1.619966984E0
1.320730073E1,1.269493341E0,2.285485029E0,-2.909159958E-1
1.325809984E1,2.076880693E0,2.301367074E-1,-1.283390045E0
1.330889984E1,3.847115993E0,3.084015131E0,-3.109212518E-1
1.335970057E1,1.869498014E0,5.175708771E0,1.033858955E-1
1.341050052E1,4.237294674E0,5.193728805E-1,-1.355470061E0
1.346129963E1,2.790961027E0,-5.470137000E-1,-1.138161182E0
1.351209963E1,-2.585411072E-1,1.236965656E0,-1.110062122E0
1.356290036E1,-1.024848938E0,4.676035643E-1,4.947862923E-1
1.361370031E1,-1.976854444E0,-1.403421521E0,1.679219127E0
1.366449942E1,-2.565558553E-1,-7.566870451E-1,-4.902049154E-2
1.371529942E1,3.375083923E0,-2.088639498E0,-1.895000935E0
1.376610020E1,3.384093940E-1,-1.156028390E0,-2.530434728E-1
1.381690015E1,-3.746479034E0,8.192988634E-1,3.607969284E0
1.386769927E1,-9.298622131E0,-2.036717415E0,2.273420811E0
1.391849932E1,-1.204285383E0,-2.989791870E0,-1.169619799E0
1.396930005E1,-1.886296391E0,-3.106158376E-1,5.383091569E-1
1.402010005E1,-1.449235082E-1,5.497625470E-1,6.018372774E-1
1.407089916E1,2.422467470E0,1.461452127E0,-4.737120569E-1
1.412169922E1,2.774315596E0,-2.199050039E-2,-3.239017725E-1
1.417249994E1,3.656989813E0,4.502249718E0,4.986040890E-1
1.422329994E1,3.211376667E0,2.511956692E0,-2.505695343E0
1.427409911E1,4.556920528E0,-1.872552276E0,-1.733279109E0
1.432489916E1,1.918060333E-1,1.015075445E0,-1.007287145E0
1.437569989E1,-1.275143623E0,1.234064221E0,2.266243398E-1
1.442649984E1,-1.742899895E0,-2.256164312E0,1.317139387E0
1.447729906E1,-1.011715770E0,-1.694643021E0,9.425373077E-1
1.452809911E1,3.336905956E0,1.447402596E0,-9.174925685E-1
1.457889989E1,1.254527569E0,-6.539120078E-1,-9.520054460E-1
1.462969989E1,-1.644858956E0,-7.708892226E-1,1.645011663E0
1.468049906E1,-9.148659706E0,7.495095730E-1,2.278918505E0
1.473129911E1,-3.559406996E0,-3.819780588E0,-7.562289238E-1
1.478209989E1,-1.822004676E0,-1.938218355E0,2.414373755E-1
1.483289984E1,-1.562547326E0,3.854446113E-1,5.088357925E-1
1.488369906E1,2.099940062E0,9.330691695E-1,-1.109604001E0
1.493449916E1,2.195079565E0,1.081352353E0,-6.140542030E-1
1.498529994E1,3.438611984E0,3.040950298E0,5.140279531E-1
1.503609994E1,2.595642805E0,4.236836433E0,-5.250232220E-1
1.508689911E1,5.860468388E0,-1.311489105E0,-1.119072199E0
1.513769922E1,2.144531965E0,-1.481304616E-1,-8.773293495E-1
1.518850000E1,-3.524588645E-1,2.482025146E0,-1.107160673E-1
1.523929994E1,-1.766570330E0,-2.214321345E-1,9.810206890E-1
1.529009922E1,-2.612135649E0,-3.517564058E0,1.344169378E0
1.534089927E1,1.361425877E0,1.697544575E0,-2.803788781E-1
1.539170010E1,2.725905895E0,-3.651644945E0,-6.592568755E-1
1.544250010E1,-8.261709213E-1,4.062134400E-2,3.775036037E-1
1.549329927E1,-5.387672901E0,9.796462655E-1,2.803483486E0
1.554409937E1,-9.113535881E0,-1.628213406E0,7.003363967E-1
1.559490021E1,-1.401130915E0,-3.634083033E0,-1.073105931E0
1.564570020E1,-9.051229358E-1,-1.154348612E0,1.150072694E0
1.569649942E1,5.373928547E-1,-2.112004459E-1,-1.149920002E-1
1.574729948E1,2.389328957E0,5.674771070E-1,-1.338824511E0
1.579810031E1,3.450370789E0,1.512763262E0,-3.738385141E-1
1.584890036E1,3.405931711E0,5.319563389E0,-4.810422063E-1
1.589969953E1,4.202476501E0,3.403030157E0,-1.378071427E0
1.595049963E1,4.447120667E0,-1.160151601E0,-1.819408536E0
1.600130046E1,3.361186981E-1,2.302894115E0,-9.382613897E-1
1.605210052E1,-1.690367103E0,2.755684614E0,2.038702667E-1
1.610289974E1,-2.879381180E0,-1.312558055E0,1.235896707E0
1.615369979E1,-2.109255552E0,-2.144226551E0,6.584933400E-1
1.620450062E1,3.936605215E0,2.811424434E-1,-1.257734537E0
1.625530062E1,9.556705356E-1,-3.667832375E0,-1.134037971E0
1.630609989E1,-3.579564989E-1,-2.577011824E0,3.133493662E0
1.635690000E1,-6.836755276E0,3.862234592E0,3.921486616E0
1.640770088E1,-7.032684326E0,-5.058731556E0,-6.843016148E-1
1.645850093E1,-2.210350752E0,-6.311579347E-1,-5.022691488E-1
1.650930015E1,-1.659977436E0,1.810398579E0,8.153283596E-1
1.656010026E1,2.888544083E0,3.588727489E-2,-8.994725943E-1
1.661090109E1,3.170144558E0,8.054021001E-1,-8.730534315E-1
1.666170109E1,3.866357803E0,2.247154236E0,8.223531246E-1
1.671250041E1,2.618244171E0,5.591084957E0,-9.938485026E-1
1.676330052E1,5.785639763E0,-2.816005945E0,-1.685633063E0
1.681410135E1,1.768250108E0,-1.240936160E0,-8.695410490E-1
1.686490146E1,-1.226581335E0,2.931303263E0,-1.000720501E0
1.691570067E1,-2.263647318E0,9.297095537E-1,6.076403260E-1
1.696650078E1,-2.465226889E0,-1.302479029E0,1.343253136E0
1.701730166E1,4.559974670E-1,-1.442057610E0,2.750339806E-1
1.706810166E1,3.664930820E0,-2.006785870E0,-1.739540339E0
1.711890099E1,1.827960461E-1,-7.603521347E-1,-1.340198874E0
1.716970109E1,-3.121582270E0,-3.199923277E0,5.037199020E0
1.722050198E1,-7.561067581E0,1.710372329E0,3.965467691E0
1.727130198E1,-3.819780588E0,-3.880254507E0,-7.514948249E-1
1.732210130E1,-2.389176369E0,6.598677635E-1,2.032594234E-1
1.737290140E1,-2.290677279E-1,1.509556293E0,3.333698809E-1
1.742370229E1,2.717812061E0,1.171146870E0,-8.422056437E-1
1.747450239E1,3.505652428E0,4.437805414E-1,-1.933331639E-1
1.752530161E1,3.992344856E0,2.842272282E0,3.906368315E-1
1.757610177E1,3.891555071E0,4.339917183E0,-1.612942219E0
1.762690260E1,5.450284481E0,-3.206795454E0,-1.401589036E0
1.767770270E1,4.874561131E-1,1.940509081E0,-1.158929944E0
1.772850198E1,-1.379751205E0,1.814063668E0,2.486148328E-1
1.777930208E1,-2.462019920E0,-2.343515396E0,6.085565686E-1
1.783010297E1,-2.761182308E0,-3.120666027E0,6.989619732E-1
1.788090307E1,1.476570487E0,2.516996145E0,-4.036173224E-1
1.793170229E1,1.992583752E0,-4.822028160E0,-9.561286569E-1
1.798250244E1,8.574768305E-1,-1.764737725E0,-3.483356535E-1
1.803330333E1,-3.556200027E0,6.319214702E-1,4.641828537E0
1.808410343E1,-8.554152489E0,2.017323017E0,2.535168886E0
1.813490265E1,-3.041408539E0,-4.702760220E0,-1.454885483E0
1.818570281E1,-2.190498352E0,6.328377724E-1,5.859552622E-1
1.823650369E1,1.158777237E0,1.449082375E0,-6.352811307E-2
1.828730380E1,3.594836235E0,5.969504714E-1,-1.267049909E0
1.833810307E1,3.537874699E0,7.189671993E-1,-1.374406274E-3
1.838890323E1,3.414483547E0,3.490992069E0,1.218182087E0
1.843970411E1,4.027010441E0,2.038855553E0,-1.901262045E0
1.849050422E1,4.399322033E0,-2.593352079E0,-1.883700252E0
1.854130349E1,5.509842038E-1,9.709417224E-1,-1.027750492E0
1.859210364E1,-1.355470061E0,1.772526026E0,-7.085828483E-2
1.864290453E1,-2.361840963E0,-1.514748454E0,1.090056896E0
1.869370458E1,-2.319386959E0,-9.462023973E-1,1.664253354E0
1.874450390E1,1.397465825E0,6.913263798E-1,-9.822424054E-1
1.879530411E1,1.832083583E0,-2.418802500E0,-1.726407051E0
1.884610500E1,9.347490072E-1,-3.693182468E0,1.911951900E-1
1.889690515E1,-3.105242014E0,-3.226800561E-1,5.072781086E0
1.894770442E1,-9.187295914E0,2.032441616E0,1.902331114E0
1.899850458E1,-1.485580564E0,-4.077558041E0,-4.475983381E-1
1.904930552E1,-2.379097462E0,1.211768270E0,1.195886254E0
1.910010557E1,1.575375080E0,1.330730796E0,1.064401343E-1
1.915090494E1,2.557617426E0,-5.071559548E-1,-1.015075445E0
1.920170510E1,4.193008423E0,6.394043565E-1,-9.703308940E-1
1.925250604E1,3.062024593E0,5.974544525E0,-1.207492352E0
1.930330619E1,4.741396427E0,1.169619799E0,-2.498517990E0
1.935410546E1,4.063050747E0,-2.461714506E0,-1.020573020E0
1.940490567E1,-6.062658876E-2,1.785506487E0,-7.220214605E-1
1.945570661E1,-1.960361600E0,8.237275481E-1,1.229330078E-1
1.950650677E1,-2.491340637E0,-2.125595808E0,1.895917177E0
1.955730604E1,-7.301151752E-1,-1.025459886E0,1.301868200E0
1.960810625E1,3.179001808E0,1.399603724E0,-2.032441616E0
1.965890718E1,-4.098785222E-1,-2.065579891E0,-9.594883323E-1
1.970970729E1,-1.993499994E0,-2.094595194E0,3.173198700E0
1.976050666E1,-7.133779526E0,3.059428453E0,4.021665573E0
1.981130687E1,-4.549895763E0,-1.881714940E0,-7.742488980E-1
1.986210786E1,-1.935927629E0,-2.807454109E0,-3.944546282E-1
1.991290802E1,-9.326110482E-1,1.654021621E0,1.071120620E0
1.996370734E1,3.408222198E0,-1.612025857E0,-9.964445829E-1
2.001450755E1,3.155789614E0,-1.281252056E-1,-1.058903694E0
2.006530849E1,4.315024853E0,3.411123753E0,3.665083647E-2
2.011610859E1,2.657796383E0,6.893411160E0,-1.385401607E0
2.016690802E1,5.699815750E0,-3.700512648E0,-1.464200854E0
2.021770823E1,8.539644480E-1,-4.062134400E-2,-8.464815617E-1
2.026850922E1,-1.130525589E0,2.141630411E0,-3.701734245E-1
2.031930937E1,-1.873773932E0,-1.057682037E0,1.197566032E0
2.037010869E1,-1.757865667E0,-2.365658760E0,1.036302328E0
2.042090896E1,2.673831224E0,2.699792147E0,-1.091125965E0
2.047170989E1,7.009471953E-2,-4.392297268E0,-7.965448499E-1
2.052251010E1,-1.203369126E-1,-3.854446173E0,1.750077367E0
2.057330942E1,-6.138098717E0,1.139077425E0,4.758347511E0
2.062410963E1,-4.858831882E0,-3.959817290E-1,1.663337111E0
2.067491062E1,-2.224247694E0,-1.836817741E0,-2.327328026E-1
2.072571073E1,-1.621799469E0,1.354706526E0,1.015533566E0
2.077651015E1,1.664711475E0,3.142809272E-1,-5.807630420E-1
2.082731036E1,3.267880201E0,-2.748812735E-1,-9.497147799E-1
2.087811135E1,4.343123913E0,3.196258307E0,-2.066190839E-1
2.092891151E1,2.334505558E0,7.754858494E0,-2.071077585E0
2.097971083E1,5.723485947E0,-1.943563223E0,-1.281862974E0
2.103051109E1,2.062220335E0,-1.065470338E0,-4.792096615E-1
2.108131203E1,-5.969504714E-1,2.228370905E0,-4.272876680E-1
2.113211224E1,-2.697501421E0,-6.891884208E-1,7.637118101E-1
2.118291156E1,-2.890834570E0,-2.259982109E0,1.083948493E0
2.123371177E1,2.032136202E0,-2.820587158E0,-1.387386799E0
2.128451270E1,1.873468518E0,-1.774816751E0,-1.790851474E0
2.133531281E1,-6.618530154E-1,-2.104979753E0,-3.877353072E-1
2.138611218E1,-2.108950138E0,-4.340069771E0,3.921028614E0
2.143691244E1,-6.179483414E0,-1.596449256E0,4.333961487E0
2.148771338E1,-1.900193095E0,-1.183363795E0,-7.971556485E-2
2.153851354E1,-2.326411724E0,1.568350345E-1,2.431172132E-1
2.158931286E1,-7.197307944E-1,2.080087662E0,4.092676565E-2
2.164011302E1,2.682993889E0,-1.288887709E-1,-9.468132257E-1
2.169091396E1,3.669206858E0,2.293731451E0,-3.197785318E-1
2.174171411E1,2.636111259E0,4.714824677E0,-2.114600420E0
2.179251343E1,4.453229427E0,1.891641259E0,-2.392841339E0
2.184331364E1,3.689364672E0,-2.037939072E0,-2.044200420E0
2.189411453E1,-5.270084739E-1,1.524063945E0,-4.107947946E-1
2.194491468E1,-1.674026966E0,2.435600758E0,8.585458398E-1
2.199571396E1,-2.592588425E0,-1.194053650E0,2.336338043E0
2.204651416E1,-4.836383164E-1,-1.655854225E0,9.000834227E-1
2.209731505E1,3.935994387E0,-2.441861928E-1,-2.122846842E0
2.214811510E1,-4.979932308E-1,-2.996511221E0,-1.768402755E-1
2.219891448E1,5.207473040E-2,-2.149724245E0,2.563267708E0
2.224971463E1,-6.695649624E0,-3.223440886E0,4.760943413E0
2.230051552E1,-2.550592661E0,-2.830666304E0,1.586064935E0
2.235131562E1,-2.492409468E0,1.032789946E0,9.672766328E-1
2.240211489E1,-1.080741525E0,7.618792653E-1,1.043021679E0
2.245291505E1,2.197370291E0,7.275190949E-1,-8.444963098E-1
2.250371593E1,2.579455376E0,-1.099372387E0,-2.877090573E-1
2.255451604E1,3.338280201E0,4.557989597E0,-1.121362805E0
2.260531526E1,1.975785494E0,3.393561840E0,-4.781712532E0
2.265611541E1,4.603344917E0,-1.896528006E0,-3.269101858E0
2.270691630E1,7.149966955E-1,1.496117592E0,-2.400629669E-1
2.275771635E1,-1.382958174E0,3.490075827E0,3.428380191E-1
2.280851562E1,-1.787491798E0,5.344913341E-3,1.262926698E0
2.285931573E1,-2.347638845E0,-2.334810972E0,1.251473308E0
2.291011656E1,3.321176529E0,4.288147926E0,-1.258650780E0
2.296091666E1,1.427702785E0,-5.186551571E0,-6.113054156E-1
2.301171588E1,5.859552622E-1,-2.866706133E0,-1.210088372E0
2.306251599E1,-3.180070877E0,-4.449717045E0,5.333460331E0
2.311331682E1,-5.744407654E0,-3.313846350E0,4.194993496E0
2.316411687E1,-1.059209108E0,-6.963659078E-2,5.453338623E-1
2.321491609E1,-2.357106924E0,1.114948988E0,1.292858243E0
2.326571619E1,2.330382317E-1,1.817117929E0,1.572931744E-2
2.331651703E1,2.326259136E0,-6.190937161E-1,-5.801522136E-1
2.336731708E1,3.704330444E0,2.543720722E0,-2.849602401E-1
2.341811630E1,2.500045061E0,4.045335770E0,-3.318885803E0
2.346891640E1,3.708911896E0,1.805206418E0,-3.913393021E0
2.351971724E1,2.917711973E0,-3.011476994E-1,-1.509098172E0
2.357051718E1,-1.104869962E0,1.786880970E0,6.087092757E-1
2.362131646E1,-1.180309653E0,3.025220931E-1,1.026223421E0
2.367211656E1,-1.649440289E0,-1.197107911E0,2.163468361E0
2.372291739E1,6.374191046E-1,-7.160657048E-1,4.271349311E-1
2.377371744E1,2.626032352E0,-1.751451850E0,-1.311336398E0
2.382451666E1,1.841704547E-1,-2.871898413E0,-1.779398084E0
2.387531677E1,-3.619270027E-2,-2.386121988E0,3.442735195E0
2.392611760E1,-8.446949005E0,-1.078298092E0,4.275778294E0
2.397691755E1,-3.121429384E-1,-4.620906830E0,1.735569715E0
2.402771682E1,-2.377264738E0,1.101052165E0,1.659519315E0
2.407851692E1,3.089359999E-1,5.972558856E-1,6.219952106E-1
2.412931776E1,1.209630251E0,3.515425920E-1,-3.503209054E-1
2.418011781E1,3.437084913E0,8.845068216E-1,-4.173613787E-1
2.423091703E1,3.362103224E0,2.181335449E0,-3.158538580E0
2.428171713E1,2.834942102E0,4.139864445E0,-5.359726429E0
2.433251802E1,3.686157703E0,-1.380972981E0,-2.567238331E0
2.438331807E1,-3.701734245E-1,1.897749662E0,3.124483824E-1
2.443411729E1,-1.839261055E0,1.892557502E0,9.475768209E-1
2.448491739E1,-2.312820435E0,1.038440317E-2,1.806122661E0
2.453571823E1,-1.348903418E0,-5.995466113E-1,6.432221532E-1
2.458651823E1,3.377985239E0,-2.073521137E0,-2.070466757E0
2.463731755E1,-3.666610718E-1,-3.151666403E0,-2.166522503E0
2.468811765E1,1.597823739E0,-2.059624195E0,2.713841677E0
2.473891854E1,-6.648003578E0,1.152821541E0,4.320369720E0
2.478971854E1,-2.370087385E0,-5.805339813E0,2.135980129E0
2.484051786E1,-2.459882021E0,8.658760041E-2,9.886562824E-1
2.489131802E1,-6.539120078E-1,7.663078904E-1,7.466080785E-1
2.494211885E1,2.019002914E0,3.469612300E-1,-2.197522968E-1
2.499291896E1,2.808217525E0,-2.128802687E-1,1.656923145E-1
2.504371823E1,3.568417072E0,3.030107737E0,-2.003273487E0
2.509451838E1,2.363978863E0,3.563988447E0,-5.439747334E0
2.514531927E1,3.946226120E0,-2.097038746E0,-3.420439243E0
2.519611937E1,-1.458397806E-1,1.629282355E0,-3.185568452E-1
2.524691864E1,-1.971967697E0,2.600529432E0,9.168817401E-1
2.529771880E1,-2.289455414E0,-4.953971207E-1,2.479123592E0
2.534851974E1,-1.107313395E0,-1.347223639E0,1.563310862E0
2.539931984E1,3.416163206E0,-3.093941510E-1,-1.627297044E0
2.545011911E1,-7.780666947E-1,-2.456064224E0,-8.881719112E-1
2.550091932E1,1.333784938E0,-7.224795818E-1,3.718532622E-1
2.555172026E1,-4.536457062E0,-3.677605867E0,4.127647877E0
2.560252036E1,-4.657710552E0,2.060082406E-1,3.510539293E0
2.565331968E1,-2.214321375E0,-2.661308765E0,7.966975570E-1
2.570411989E1,-1.683647752E0,9.046648145E-1,1.778634548E0
2.575492083E1,1.707928896E0,5.960342288E-1,-1.624853760E-1
2.580572099E1,2.484621286E0,-7.308787704E-1,-6.372663975E-1
2.585652031E1,3.967453003E0,2.334810972E0,-7.041541934E-1
2.590732052E1,1.456565261E0,3.810465097E0,-4.010670185E0
2.595812146E1,4.597694397E0,-3.069507480E-1,-3.686310530E0
2.600892166E1,2.322288513E0,-6.644490957E-1,-1.856364846E0
2.605972099E1,-1.496117592E0,2.660392523E0,4.489727318E-1
2.611052119E1,-1.531241417E0,7.438592315E-1,9.225320816E-1
2.616132218E1,-1.760614514E0,-2.854794741E0,1.573389769E0
2.621212239E1,1.464658976E0,3.642787695E0,-3.197785318E-1
2.626292172E1,2.327175379E0,-9.220739603E-1,-3.474193811E-1
2.631372198E1,4.333961308E-1,-4.336404800E0,-1.584690452E0
2.636452297E1,2.611372061E-2,-3.158232927E0,3.380886793E0
2.641532317E1,-8.065474510E0,-9.167290330E-1,4.811033249E0
2.646612255E1,-8.495358229E-1,-3.029344320E0,1.822157383E0
2.651692281E1,-2.799818516E0,9.823951125E-1,1.247808218E0
2.656772380E1,-8.090671897E-1,1.446791768E0,7.241594195E-1
2.661852401E1,1.464048147E0,4.662291706E-1,-6.122216582E-1
2.666932338E1,3.193051338E0,1.406017661E0,-3.507790267E-1
2.672012369E1,3.456937313E0,3.074088812E0,-1.576902151E0
2.677092468E1,2.181030035E0,5.210680008E0,-3.640344143E0
2.682172494E1,4.943586826E0,-1.503753185E0,-2.211725235E0
2.687252432E1,4.912739098E-1,1.107007980E0,1.461452097E-1
2.692332463E1,-1.242005229E0,2.128191948E0,6.102364063E-1
2.697412562E1,-1.307824016E0,-1.387539506E0,1.811009407E0
2.702492588E1,-1.633405566E0,-9.168817401E-1,2.102841616E0
2.707572531E1,3.602319002E0,-2.334810972E0,-1.574611545E0
2.712652562E1,-2.996205688E-1,-4.066257477E0,-2.163010120E0
2.717732666E1,1.626686215E0,-2.040382624E0,1.211310148E0
2.722812692E1,-4.883112907E0,-9.524635673E-1,4.779421806E0
2.727892635E1,-5.256951332E0,-2.934051991E0,3.564141035E0
2.732972666E1,-1.354401112E0,-1.248113632E0,7.007945180E-1
2.738052771E1,-1.636001706E0,8.765658140E-1,1.897902489E0
2.743132802E1,1.820783019E0,1.714037418E0,-2.991624475E-1
2.748212744E1,1.978992462E0,-1.964026690E0,-2.643441558E-1
2.753292776E1,4.168726921E0,3.184499502E0,-8.182299137E-1
2.758372885E1,2.360008478E0,3.352940559E0,-4.520422459E0
2.763452911E1,3.781602621E0,8.066238165E-1,-4.480564594E0
2.768532859E1,2.100856543E0,-3.489464819E-1,-1.664253354E0
2.773612890E1,-1.618592501E0,2.574568510E0,3.086305857E-1
2.778693000E1,-2.245779991E0,1.127165914E0,1.163053155E0
2.783773031E1,-2.074284554E0,-1.310572743E0,2.193705320E0
2.788852979E1,1.698766232E0,1.863084175E-2,-4.520269632E-1
2.793933015E1,2.787754059E0,-1.251473308E0,-1.773900390E0
2.799013125E1,-2.254026383E-1,-5.204876900E0,-1.149614573E0
2.804093156E1,-1.813300133E0,-3.912171364E0,4.579063892E0
2.809173104E1,-4.544398308E0,1.035844207E0,5.474871159E0
2.814253140E1,-2.360466480E0,-1.900956631E0,1.231468081E0
2.819333255E1,-2.627101421E0,6.247440577E-1,6.578825116E-1
2.824413286E1,-1.188097894E-1,1.922183633E0,3.639122546E-1
2.829493234E1,3.125858068E0,-4.831801951E-1,-1.159998894E0
2.834573276E1,3.708911896E0,1.364480019E0,-3.161134422E-1
2.839653385E1,2.604652643E0,3.265436649E0,-1.727476001E0
2.844733422E1,3.218401432E0,1.986475229E0,-4.141696930E0
2.849813369E1,3.215652704E0,-9.729269743E-1,-2.827764750E0
2.854893411E1,-8.793146014E-1,2.597169876E0,-1.236965731E-1
2.859973526E1,-2.113837004E0,2.697348833E0,7.656970620E-1
2.865053562E1,-2.192941666E0,-1.500699043E0,1.821546555E0
2.870133510E1,-1.026986957E0,-1.191915751E0,5.352548957E-1
2.875213552E1,4.062286854E0,9.602518678E-1,-1.482831717E0
2.880293672E1,9.834641218E-2,-5.195103168E0,-1.140299082E0
2.885373708E1,1.750382781E0,-4.386494160E0,1.753131628E0
2.890453661E1,-4.356104374E0,-1.106091619E0,5.558404446E0
2.895533703E1,-4.253024101E0,-3.588422298E0,4.434292793E0
2.900613817E1,-1.426481009E0,1.068524599E0,6.878139973E-1
2.905693859E1,-1.872094154E0,8.264763355E-1,1.670667291E0
2.910773812E1,1.701056957E0,1.937607527E0,-9.834641218E-2
2.915853854E1,1.440835953E0,-1.698613524E0,2.402156889E-1
2.920933974E1,3.814588308E0,2.265021563E0,-2.295258641E-1
2.926014010E1,2.838301897E0,2.508138895E0,-4.136352062E0
2.931093968E1,3.132730246E0,1.738929391E0,-5.837409019E0
2.936174015E1,2.197370291E0,-9.042066336E-1,-2.237838984E0
2.941254130E1,-1.265828252E0,3.821460485E0,7.666133344E-2
2.946334172E1,-1.498102903E0,2.002662659E0,1.151141644E0
2.951414130E1,-2.068634272E0,-1.924626946E0,1.838039398E0
2.956494177E1,7.229377031E-1,2.806843221E-1,-6.671979427E-1
2.961574297E1,2.609386683E0,1.523758531E0,-1.119377613E0
2.966654333E1,1.146713018E0,-6.106792927E0,-1.679371834E0
2.971734291E1,-3.121429384E-1,-6.006308556E0,4.599679947E0
2.976814338E1,-6.699620247E0,2.054890156E0,5.830995083E0
2.981894463E1,-7.621846795E-1,-4.881127834E0,1.873468518E0
2.986974505E1,-3.042171955E0,1.075854778E0,9.379559755E-1
2.992054463E1,-1.159388065E0,1.595685720E0,1.045312405E0
2.997134510E1,1.501462579E0,-3.028275371E-1,-3.710896969E-1
3.002214630E1,3.409444094E0,1.608208179E0,-9.729269743E-1
3.007294677E1,3.237643242E0,3.448843718E0,-2.856932640E0
3.012374635E1,2.546011448E0,4.508358002E0,-4.451243877E0
3.017454687E1,4.331517696E0,-2.418955088E0,-2.611982822E0
3.022534807E1,-3.921639323E-1,3.529170156E-1,5.619794875E-2
3.027614854E1,-1.788560748E0,1.379293084E0,1.387997627E0
3.032694812E1,-8.625163436E-1,1.522536725E-1,2.464310646E0
3.037774864E1,-8.215895295E-2,-1.307213157E-1,1.489398360E0
3.042854984E1,2.964747190E0,4.798205197E-1,-9.468132257E-1
3.047935031E1,2.567696571E0,-3.284831047E0,-2.125290394E0
3.053014994E1,-3.541387022E-1,-2.774926424E0,7.627955079E-1
3.058095046E1,-6.046319008E0,-3.224662781E0,5.452575207E0
3.063175172E1,-3.403335571E0,-2.126206636E0,3.349886417E0
3.068255218E1,-2.604805470E0,3.173351586E-1,1.239103675E0
3.073335177E1,-1.940356374E0,1.132358074E0,1.277128935E0
3.078415229E1,1.415791273E0,7.734853625E-1,-1.881409585E-1
3.083495359E1,2.626796007E0,-1.121362805E0,-6.755970716E-1
3.088575406E1,3.855362415E0,1.565907001E0,-1.701209664E0
3.093655369E1,1.842773438E0,6.031658649E0,-4.004867554E0
3.098735422E1,5.708520412E0,-3.154873371E0,-3.068591118E0
3.103815547E1,6.354338527E-1,2.224094868E0,-2.774773538E-1
3.108895599E1,-1.545596242E0,3.491755724E0,1.022405624E0
3.113975562E1,-1.801999450E0,1.408461094E0,1.344169378E0
3.119055614E1,-2.042673349E0,-8.179244995E-1,2.153236568E-1
3.124135744E1,2.780118704E0,2.283805132E0,-1.360204101E0
3.129215791E1,8.035695553E-1,-4.458726883E0,-1.406017661E0
3.134295760E1,2.087875843E0,-3.293382883E0,-1.647913218E0
3.139375817E1,-2.512720108E0,-4.472470760E0,6.118551731E0
3.144455942E1,-6.933727264E0,-1.142284393E0,4.577689171E0
3.149535994E1,-6.838434935E-1,-1.356539011E0,1.837123185E-1
3.154615963E1,-3.216110706E0,1.330578089E0,1.051420808E0
3.159696015E1,3.623851240E-1,1.204132676E0,9.749122262E-1
3.164776146E1,1.756491303E0,-1.044548824E-1,1.992889196E-1
3.169856198E1,3.867884874E0,1.571251869E0,1.119377613E-1
3.174936166E1,3.358743668E0,2.808217525E0,-2.742398739E0
3.180016224E1,2.872967482E0,6.833853722E-1,-5.680727005E0
3.185096354E1,3.040186882E0,-1.798487067E0,-2.425521851E0
3.190176406E1,-1.574306130E0,2.069703341E0,8.771766424E-1
3.195256375E1,-1.608971715E0,2.364284277E0,1.948450089E0
3.200336432E1,-6.595623493E-1,-2.510582209E-1,1.396702290E0
3.205416562E1,-3.251234591E-1,-1.857281089E0,-2.304421216E-1
3.210496614E1,2.095358849E0,3.967758417E0,-1.930888176E0
3.215576583E1,1.494590521E0,-7.616501808E0,-2.222873211E0
3.220656640E1,5.173876286E-1,-3.800997019E0,2.578844309E0
3.225736776E1,-5.545577049E0,2.839676142E0,5.431348324E0
3.230816828E1,-2.948101521E0,-3.217638016E0,2.495311022E0
3.235896797E1,-2.354510784E0,-1.485733271E0,5.154023767E-1
3.240976854E1,-1.636307120E0,8.774821162E-1,1.436560035E0
3.246056989E1,5.639647245E-1,1.477792263E0,-3.072561622E-1
3.251137041E1,2.597933292E0,1.391204596E-1,-1.666085869E-1
3.256217015E1,4.021971226E0,2.735679388E0,3.193204105E-1
3.261297073E1,2.549065590E0,3.662945509E0,-3.734872818E0
3.266377208E1,4.420548916E0,8.669449687E-1,-3.569027901E0
3.271457260E1,2.659170866E0,-1.015228152E0,-1.496117592E0
3.276537234E1,-1.402657986E0,2.016406775E0,6.768187881E-1
3.281617291E1,-1.520246148E0,9.807152748E-1,1.092805743E0
3.286697427E1,-2.139187098E0,-5.172349215E-1,1.899276853E0
3.291777484E1,1.713732004E0,-9.269607067E-2,-1.776038408E-1
3.296857453E1,2.247307062E0,-3.366684675E0,-1.091584086E0
3.301937515E1,2.680092454E-1,-1.970745921E0,-1.292705536E0
3.307017651E1,-8.840487003E-1,-5.969810486E0,3.161898136E0
3.312097708E1,-6.398777962E0,-6.685723066E-1,5.222743988E0
3.317177677E1,-1.040883780E0,-2.242267609E0,1.882478595E0
3.322257739E1,-3.000939846E0,1.105938911E0,9.736905098E-1
3.327337875E1,-5.181511641E-1,1.554300904E0,6.673506647E-2
3.332417932E1,2.370545387E0,1.505738497E-1,-1.253611326E0
3.337497906E1,3.189386368E0,1.483900666E0,-3.610107303E-1
3.342577963E1,3.435557604E0,2.698417664E0,-1.717549801E0
3.347658099E1,2.779202223E0,2.650160789E0,-4.279290676E0
3.352738156E1,4.150554180E0,-2.152014971E0,-3.416621447E0
3.357818130E1,-9.944593310E-1,2.865331888E0,3.469612300E-1
3.362898192E1,-2.011214495E0,2.853267431E0,1.850103617E0
3.367978328E1,-1.481610060E0,-7.469134927E-1,2.589381456E0
3.373058380E1,-8.562551737E-1,-2.653215170E0,1.007287145E0
3.378138354E1,1.615538239E0,4.449106216E0,-1.499477267E0
3.383218416E1,1.910882950E0,-6.562484741E0,-1.999913931E0
3.388298552E1,7.882983685E-1,-4.360074997E0,1.551093936E0
3.393378609E1,-5.212054253E0,-8.964183331E-1,5.105155945E0
3.398458578E1,-3.297506332E0,-3.174878657E-1,3.323925257E0
3.403538640E1,-1.904927135E0,-2.443236351E0,2.203631550E-1
3.408618776E1,-1.619356036E0,1.586828470E0,1.140299082E0
3.413698828E1,1.316528559E0,1.776038408E-1,-2.473931387E-2
3.418778797E1,2.847311735E0,5.838172436E-1,-3.866663277E-1
3.423858859E1,3.718379974E0,3.622324228E0,-1.129303813E0
3.428938989E1,1.854684949E0,2.904273272E0,-4.776520252E0
3.434019046E1,4.774382114E0,-1.500240922E0,-3.619575500E0
3.439099015E1,1.049282908E0,1.801999360E-1,-1.077687263E0
3.444179073E1,-2.221193314E0,3.225884438E0,7.058340311E-1
3.449259203E1,-1.761530757E0,1.834068894E-1,1.502989650E0
3.454339255E1,-9.860602021E-1,-1.051115394E0,2.013963461E0
3.459419224E1,1.231773496E0,1.895764470E0,-8.881719112E-1
3.464499281E1,1.927528501E0,-2.231119633E0,-1.601488829E0
3.469579411E1,1.697849989E0,-6.783611298E0,-1.128998399E0
3.474659463E1,-1.584690452E0,-1.252694964E0,5.735855579E0
3.479739432E1,-7.311383724E0,-1.240172625E0,5.831300735E0
3.484819489E1,2.918322682E-1,-3.725862741E0,6.991146803E-1
3.489899614E1,-2.813409805E0,1.968149900E0,1.049741030E0
3.494979666E1,8.466343284E-1,4.666872919E-1,1.646233350E-1
3.500059630E1,2.296633005E0,-5.813738704E-1,-6.064186096E-1
3.505139687E1,3.101271629E0,2.025722265E0,-3.759764731E-1
3.510219812E1,3.065689564E0,4.282344818E0,-2.057180882E0
3.515299859E1,2.576248407E0,2.580524206E0,-5.273749828E0
3.520379823E1,3.907895327E0,-3.170297384E0,-3.024610281E0
3.525459875E1,-1.303700805E0,2.222109556E0,1.244601309E-1
3.530540000E1,-2.105743170E0,3.369586229E0,7.577560544E-1
3.535620046E1,-1.665475011E0,-1.518413544E0,1.384332657E0
3.540700010E1,-1.893321037E0,-1.624853730E0,1.658755779E0
3.545780057E1,2.914810419E0,3.995399237E0,-9.706363082E-1
3.550860182E1,2.602820158E0,-3.873382568E0,-1.488940239E0
3.555940229E1,2.059318781E0,-2.991013527E0,5.563291311E-1
3.561020187E1,-4.672523499E0,-4.156204700E0,5.482048512E0
3.566100234E1,-4.205836296E0,-3.982113361E0,3.284373045E0
3.571180359E1,-1.699987888E0,1.084559321E0,4.156815708E-1
3.576260401E1,-2.418038845E0,1.123500824E0,1.400520086E0
3.581340359E1,1.024848938E0,1.268882513E0,4.272876680E-1
3.586420406E1,2.053363085E0,-2.718270421E-1,-2.383831441E-1
3.591500526E1,3.966078520E0,2.061304092E0,-1.733279079E-1
3.596580567E1,3.210918665E0,1.438698053E0,-3.022166729E0
3.601660613E1,3.063093662E0,9.619317055E-1,-6.013944149E0
3.606740660E1,2.318165302E0,-1.486496806E0,-1.983726501E0
3.611820780E1,-1.366923451E0,2.890376568E0,8.735115528E-1
3.616900816E1,-1.764585018E0,2.057944298E0,1.187487125E0
3.621980770E1,-1.487871170E0,-2.246848822E0,1.415027618E0
3.627060728E1,-5.856497884E-1,-7.041541934E-1,3.307738006E-1
3.632140910E1,2.511193037E0,2.455300570E0,-1.358829737E0
3.637220947E1,-1.172826737E-1,-4.536457062E0,-1.979450583E0
3.642300900E1,3.578037918E-1,-3.979058981E0,2.513178349E0
3.647380941E1,-5.895897865E0,1.419761777E0,4.526072979E0
3.652461056E1,-2.202867985E0,-2.342751980E0,2.390245438E0
3.657541092E1,-1.752368093E0,-1.261857748E0,2.797680497E-1
3.662621040E1,-1.212226391E0,-3.420744836E-2,1.066844702E0
3.667701082E1,1.255291104E0,1.163511276E0,1.018587798E-1
3.672781196E1,2.636569500E0,2.469350100E-1,1.910424829E-1
3.677861228E1,4.118484974E0,3.303309202E0,-8.849649429E-1
3.682941176E1,1.984948158E0,2.517454147E0,-5.090495586E0
3.688021217E1,5.224271297E0,-1.792683959E0,-2.983836174E0
3.693101327E1,1.239714503E0,1.812689304E-1,-5.121954083E-1
3.698181358E1,-1.624395609E0,1.220930934E0,9.355126023E-1
3.703261306E1,-1.950129867E0,7.566870451E-1,1.305533290E0
3.708341342E1,-1.947686434E0,-1.530172378E-1,1.812689185E0
3.713421452E1,-6.661289334E-1,-3.658975065E-1,2.904578745E-1
3.718501483E1,1.760767221E0,-2.298312902E0,-2.573804855E0
3.723581426E1,-1.829487532E-1,-2.105590582E0,-2.521271944E0
3.728661462E1,1.448624253E0,-3.641718626E0,3.428227425E0
3.733741572E1,-5.381258965E0,4.925414085E0,4.170865059E0
3.738821592E1,-3.357369184E0,-4.765372276E0,2.420940399E0
3.743901546E1,-1.558424115E0,4.639385045E-1,7.930324674E-1
3.748981577E1,-3.208475113E-1,-6.337540597E-2,1.294385314E0
3.754061681E1,1.768250108E0,1.475043416E0,-3.158080280E-1
3.759141712E1,1.244753957E0,-8.150229454E-1,5.696150661E-2
3.764221650E1,3.699290991E0,3.230160236E0,-1.158777237E0
3.769301686E1,1.712510347E0,3.551160574E0,-5.636898518E0
3.774381790E1,3.980128050E0,-5.060869455E-1,-3.557116270E0
3.779461816E1,1.533532023E0,-1.078145429E-1,-1.366007209E0
3.784541754E1,-1.495506763E0,1.858655453E0,6.168029904E-1
3.789621785E1,-1.800166845E0,9.972081333E-2,1.453816533E0
3.794701889E1,-1.287207842E0,-1.786728203E-2,2.250514030E0
3.799781910E1,1.120599270E0,-4.277457893E-1,-9.376505762E-2
3.804861853E1,2.617327690E0,-2.651535273E0,-1.718466043E0
3.809941879E1,6.804838181E-1,-7.169209003E0,-2.044811249E0
3.815021983E1,6.988092661E-1,-1.905385256E0,4.507289410E0
3.820102004E1,-5.453491688E0,4.439943314E0,5.427072525E0
3.825181941E1,-1.942341566E0,-8.159239769E0,1.955780268E0
3.830261973E1,-2.248528719E0,4.366641521E0,1.152821541E0
3.835342072E1,-4.553866386E-1,4.712686539E-1,9.970554113E-1
3.840422092E1,2.512567520E0,1.386470556E0,-8.922951221E-1
3.845502030E1,2.670929670E0,-2.015796006E-1,-2.255553454E-1
3.850582051E1,3.763277292E0,2.798444033E0,-1.033095479E0
3.855662150E1,1.295759797E0,2.092915535E0,-5.249315739E0
3.860742170E1,3.872466087E0,-2.322899342E0,-3.221608400E0
3.865822108E1,6.948387623E-2,1.842468023E0,-5.592306852E-1
3.870902129E1,-1.590951681E0,2.703151941E0,5.821374655E-1
3.875982228E1,-1.532310367E0,-5.027272701E-1,1.311183691E0
3.881062243E1,-1.427244663E0,-9.640696645E-1,1.409988165E0
3.886142181E1,1.597518325E0,2.574721098E0,-8.962656260E-1
3.891222202E1,2.536848783E0,-4.246915340E0,-2.555937529E0
3.896302301E1,3.381039500E-1,-5.241069317E0,-1.087002754E0
3.901382316E1,-1.074022174E0,-1.750382781E0,4.929537296E0
3.906462249E1,-7.185243607E0,2.686506271E0,5.113708019E0
3.911542270E1,6.810947061E-1,-5.778767586E0,1.358829737E0
3.916622363E1,-1.938523769E0,3.163119793E0,1.209019423E0
3.921702379E1,2.003578991E-1,-5.638120174E-1,9.306257963E-1
3.926782311E1,7.986828089E-1,1.774816751E0,-1.545443535E-1
3.931862332E1,2.507375240E0,1.037065983E0,8.047912270E-2
3.936942420E1,3.493893623E0,2.000372171E0,-2.639471054E0
3.942022436E1,1.522231340E0,4.592807770E0,-5.576272011E0
3.947102368E1,4.595251083E0,-2.639471054E0,-2.489813328E0
3.952182384E1,1.042105436E0,2.490729690E-1,-3.049654961E-1
3.957262478E1,-1.072189689E0,2.211877823E0,8.535063267E-1
3.962342483E1,-5.919110179E-1,-1.079061627E0,1.022863746E0
3.967422420E1,-1.520246148E0,-3.082335234E0,1.799097896E0
3.972502436E1,9.350544214E-1,8.965710402E-1,-9.570449591E-1
3.977582525E1,8.771766424E-1,-2.780729532E0,-1.382958174E0
3.982662540E1,-1.724879980E0,-6.716265678E-1,9.985825419E-1
3.987742467E1,-2.159345150E0,1.146713018E0,3.887584686E0
3.992822483E1,-5.511522293E0,2.460950851E0,3.408069611E0
3.997902572E1,-3.235810757E0,-5.714476109E-1,1.435491085E0
4.002982582E1,-1.126402378E0,-1.301868200E0,3.451287150E-1
4.008062509E1,-5.102101564E-1,-8.484668136E-1,6.001574174E-2
4.013142525E1,2.482330561E0,4.046863019E-1,-4.784461260E-1
4.018222613E1,2.713230848E0,-8.579349518E-1,-8.008207679E-1
4.023302613E1,3.707842827E0,3.383482933E0,-1.404337883E0
4.028382546E1,2.437280655E0,4.262339592E0,-8.829796910E-1
4.033462561E1,4.749795437E0,3.231382072E-1,-1.612178683E0
4.038542650E1,1.648524046E0,-2.913741469E-1,-1.540556788E0
4.043622655E1,-5.308262706E-1,2.494241953E0,-1.339282542E-1
4.048702577E1,-1.912715435E0,1.122889996E0,1.735875249E0
4.053782592E1,-1.872246861E0,1.651272893E0,5.092939138E-1
4.058862676E1,1.345696568E0,3.022624969E0,-2.126970053E0
4.063942686E1,1.395480514E0,-1.778481841E0,-2.694447279E0
4.069022608E1,2.817533016E-1,-2.830971718E0,1.626838923E0
4.074102618E1,-4.555088043E0,-4.332434237E-1,3.208627939E0
4.079182702E1,-6.521710873E0,-4.834397793E0,3.002161503E0
4.084262712E1,-3.151513815E0,-8.339591980E0,-1.570488334E0
4.089342629E1,-5.273138881E-1,-7.124006152E-1,-7.459971905E-1
4.094422639E1,-5.015056133E-1,-2.890834510E-1,5.317425132E-1
4.099502723E1,2.411319494E0,1.157555580E0,-2.078407854E-1
4.104582723E1,3.754878044E0,2.360313892E0,8.658760041E-2
4.109662650E1,3.483967304E0,-5.380037427E-1,-2.259371281E0
4.114742660E1,2.946879864E0,-4.721849263E-1,-1.367839694E0
4.119822743E1,1.799097896E0,-1.388913989E0,-1.981893897E0
4.124902738E1,-1.527118147E-4,6.803311110E-1,-1.685938388E-1
4.129982665E1,-1.031110168E0,3.623698711E0,1.672347069E0
4.135062670E1,-1.995790720E0,3.003688574E0,6.998782754E-1
4.140142754E1,1.434422135E0,-8.409839869E-1,-1.404948711E0
4.145222759E1,1.457634330E0,-5.566345453E-1,-2.245321751E0
4.150302676E1,-1.001636744E0,-1.043021679E0,1.705180168E0
4.155382681E1,-4.804008484E0,-4.101381302E0,3.818558931E0
4.160462764E1,-4.009754181E0,-2.628170252E0,1.313627005E0
4.165542764E1,-1.212837219E0,1.050809979E0,1.207492352E0
4.170622681E1,-1.584690452E0,1.533532023E0,1.356233597E0
4.175702686E1,-9.403993487E-1,-1.669140160E-1,9.078717232E-1
4.180782764E1,1.339129925E0,-1.400367379E0,-1.639208674E0
4.185862770E1,2.822419643E0,-3.811686933E-1,-1.165191174E0
4.190942681E1,4.192550182E0,1.841551781E0,-1.712357521E0
4.196022691E1,2.491187811E0,2.522493839E0,-3.248791218E0
4.201102770E1,2.941840410E0,-9.706363082E-1,-3.421813726E0
4.206182759E1,1.055544019E0,1.080588818E0,-1.612331390E0
4.211262681E1,-1.359898686E0,1.829487562E0,1.536891699E0
4.216342686E1,-2.107423067E0,-1.017060637E0,2.027402163E0
4.221422764E1,-1.455649018E0,-1.687160134E0,1.598892659E-1
4.226502754E1,3.628890753E0,7.107207775E-1,-1.830403805E0
4.231582676E1,-1.104259133E0,-3.751365662E0,1.829487532E-1
4.236662676E1,-1.411057115E0,-1.185654521E0,2.879534006E0
4.241742754E1,-4.820195675E0,3.463351250E0,2.898317575E0
4.246822754E1,-4.098021507E0,-1.315001488E0,-1.074022174E0
4.251902665E1,-1.645011663E0,-4.912739098E-1,2.644968629E-1
4.256982671E1,-1.011257648E0,-1.281252146E0,9.089407325E-1
4.262062743E1,5.993938446E-1,1.054169655E0,5.888567567E-1
4.267142733E1,3.004146814E0,-1.695101142E0,-1.173743010E0
4.272222650E1,3.745104551E0,4.546230733E-1,-1.665780425E0
4.277302655E1,2.724378824E0,5.641938210E0,-2.898470163E0
4.282382728E1,3.476484537E0,2.702999115E-2,-1.796654463E0
4.287462723E1,2.383220673E0,-2.591519356E-1,-1.002247691E0
4.292542634E1,-4.193466306E-1,2.612899244E-1,-8.199097514E-1
4.297622634E1,-1.921572804E0,8.025006056E-1,1.307518601E0
4.302702707E1,-1.370893955E0,5.746545792E-1,2.391314268E0
4.307782702E1,6.566607952E-1,-1.565296054E0,7.478297353E-1
4.312862613E1,2.000830173E0,-1.709608793E0,-1.453816533E0
4.317942613E1,-1.112200141E0,-4.879142284E0,-1.320499063E0
4.323022686E1,5.665608495E-2,-2.978491306E0,3.386842728E0
4.328102670E1,-7.712557316E0,4.970464230E0,2.773399353E0
4.333182587E1,-2.626185179E0,-2.551967144E0,9.309312105E-1
4.338262587E1,-1.629893184E0,-1.820935726E0,8.661814332E-1
4.343342660E1,-3.680354729E-2,-2.344126403E-1,9.648332596E-1
4.348422645E1,1.991667509E0,1.971662283E0,-5.819846988E-1
4.353502561E1,2.107728481E0,-2.355121613E0,2.191414535E-1
4.358582556E1,4.323271275E0,3.223440886E0,-1.026986957E0
4.363662629E1,2.421245813E0,2.752935886E0,-5.741506100E0
4.368742613E1,4.394893169E0,-1.234675050E0,-1.818034172E0
4.373822530E1,1.292247415E0,-5.911474228E-1,-1.056460381E0
4.378902525E1,-1.280183196E0,6.226060390E-1,-1.079672500E-1
4.383982598E1,-1.806580782E0,3.206948051E-3,1.966470003E0
4.389062587E1,-9.304730892E-1,1.373795509E0,2.022362471E0
4.394142493E1,1.984031916E0,5.923691392E-1,-5.234960914E-1
4.399222488E1,4.987567961E-1,-2.554563284E0,-2.465990305E0
4.404302561E1,1.255138397E0,-4.985277176E0,-4.911212027E-1
4.409382551E1,-1.403116107E0,-1.327829242E0,4.346178055E0
4.414462457E1,-8.508186340E0,9.527690411E-1,3.822529316E0
4.419542452E1,-6.474980712E-2,-2.755684614E0,8.167027831E-1
4.424622520E1,-2.769123316E0,1.598739982E0,1.574764252E0
4.429702504E1,1.166718245E0,4.474456310E-1,6.062659025E-1
4.434782415E1,1.794363856E0,-3.713951409E-1,-3.732276857E-1
4.439862410E1,3.122498512E0,2.117196560E0,-6.623111367E-1
4.444942478E1,3.376916409E0,3.238559484E0,-2.975131512E0
4.450022462E1,3.199312449E0,1.893321037E0,-3.808785439E0
4.455102374E1,3.421660900E0,-1.037829518E0,-1.526354551E0
4.460182368E1,-6.242858768E-1,9.075663090E-1,-3.319954872E-1
4.465262436E1,-2.090777397E0,6.192464232E-1,1.141215444E0
4.470342426E1,-2.003426313E0,7.003363967E-1,2.328855276E0
4.475422327E1,7.763868570E-1,2.231119573E-1,1.357607991E-1
4.480502322E1,3.530391693E0,-2.081156492E0,-1.814979911E0
4.485582389E1,-2.315874577E0,-4.105504513E0,-1.381583810E0
4.490662368E1,1.808718681E0,-3.801302433E0,2.839676142E0
4.495742280E1,-7.440730572E0,3.129981279E0,3.596210480E0
4.500822275E1,-2.183931589E0,-4.415204048E0,1.491841674E0
4.505902337E1,-1.791309595E0,-2.507528067E-1,7.818844914E-1
4.510982327E1,8.536590636E-2,-2.321219631E-2,1.194511771E0
4.516062228E1,1.286444306E0,7.310314775E-1,-3.823903799E-1
4.521142223E1,2.770650387E0,-6.771242023E-1,-2.771719396E-1
4.526222285E1,3.632861376E0,3.556658268E0,-2.063289404E0
4.531302275E1,2.076422453E0,3.420744658E0,-5.275734901E0
4.536382176E1,4.211486340E0,-2.131246090E0,-2.173547268E0
4.541462165E1,2.195995897E-1,-7.345438004E-2,-6.070294380E-1
4.546542233E1,-1.510472536E0,1.253305912E0,6.236750484E-1
4.551622217E1,-2.028318405E0,4.179722369E-1,2.536085129E0
4.556702118E1,-1.147171140E0,1.173895717E0,1.967844486E0
4.561782108E1,3.855667830E0,2.135980129E0,-6.954495907E-1
4.566862170E1,-3.225273490E-1,-4.198505878E0,-1.903247356E0
4.571942160E1,9.486457705E-1,-5.852375031E0,-5.065450668E-1
4.577022061E1,-1.669750929E0,2.432699203E-1,4.650990963E0
4.582102051E1,-8.065474510E0,-1.227192163E0,3.833219290E0
4.587182113E1,7.023216486E-1,-3.280707836E0,3.158080280E-1
4.592262098E1,-2.481566906E0,2.389481783E0,1.565296054E0
4.597341999E1,1.406628489E0,-6.019899845E-1,3.434488773E-1
4.602421988E1,1.003163934E0,1.776038408E0,-2.667875290E-1
4.607502051E1,2.844257593E0,-6.603258848E-1,3.118375242E-1
4.612582035E1,3.984709263E0,1.391204596E0,-2.985516071E0
4.617661931E1,2.199050188E0,2.609081268E0,-5.836645603E0
4.622741921E1,2.478054523E0,-1.051268101E0,-2.191872597E0
4.627821983E1,-6.345176101E-1,7.444701195E-1,-1.320499063E0
4.632901967E1,-1.853615999E0,1.601641536E0,1.265980959E0
4.637981868E1,-1.808260560E0,6.812474132E-1,2.978949308E0
4.643061853E1,-3.718532622E-1,1.003927469E0,1.424343109E0
4.648141915E1,4.172697544E0,8.457180262E-1,-1.815438032E0
4.653221900E1,-4.330907166E-1,-4.059232712E0,-1.716786265E0
4.658301796E1,2.527380586E-1,-6.684959888E0,1.337755442E0
4.663381785E1,-3.368211746E0,4.262186885E-1,4.919764042E0
4.668461842E1,-4.501486301E0,-9.205468297E-1,3.909116983E0
4.673541827E1,-1.067150116E0,-6.566607952E-1,2.110477239E-1
4.678621723E1,-1.496117592E0,4.399627447E-1,1.773289561E0
4.683701712E1,7.435538173E-1,1.148240089E0,3.593308926E-1
4.688781770E1,1.020114899E0,4.486673176E-1,1.817270555E-2
4.693861754E1,3.045989752E0,2.180724740E-1,2.177670449E-1
4.698941650E1,4.084277630E0,2.427048922E0,-3.198854446E0
4.704021639E1,2.635195017E0,2.215084791E0,-5.353312492E0
4.709101696E1,3.208780766E0,-1.837123156E0,-1.570793748E0
4.714181671E1,-3.358132839E-1,1.642568231E0,-3.344388604E-1
4.719261572E1,-1.415791273E0,1.843231559E0,1.454580069E0
4.724341561E1,-1.665016890E0,4.332434237E-1,2.328702450E0
4.729421618E1,-8.463288546E-1,2.457133085E-1,7.556180358E-1
4.734501598E1,2.857390881E0,-1.330883503E0,-1.594311357E0
4.739581493E1,8.206732869E-1,-4.264172077E0,-1.757254839E0
4.744661478E1,5.955760833E-3,-2.836163759E0,8.933641016E-2
4.749741535E1,-2.382915258E0,-2.056264639E0,4.009601593E0
4.754821520E1,-6.584322453E0,4.567610323E-1,4.010212421E0
4.759901415E1,-4.256078303E-1,-1.396702290E0,9.396358132E-1
4.764981400E1,-1.617370844E0,1.673568726E0,1.840177417E0
4.770061457E1,1.091431379E0,5.057815313E-1,3.071034551E-1
4.775141436E1,1.686091185E0,1.019962192E0,-3.625378609E-1
4.780221327E1,2.753546715E0,-1.221694518E-2,2.706053257E-1
4.785301311E1,3.704941273E0,1.543152928E0,-2.719491959E0
4.790381368E1,2.235242844E0,7.259919643E-1,-5.612006664E0
4.795461342E1,2.062067747E0,-8.202151656E-1,-1.731752038E0
4.800541243E1,-6.326850653E-1,1.664100647E0,-2.774773538E-1
4.805621228E1,-1.577207565E0,1.180309653E0,1.007897973E0
4.810701285E1,-1.404185176E0,1.077992678E0,1.819866657E0
4.815781254E1,1.982199401E-1,2.809897438E-2,8.298360109E-1
4.820861155E1,3.247874975E0,-9.165763259E-1,-1.134190679E0
4.825941139E1,-8.483141065E-1,-2.994373322E0,-2.076575279E0
4.831021191E1,1.762905240E0,-5.315898418E0,1.636612535E0
4.836101165E1,-5.703633785E0,1.674332380E0,4.917167664E0
4.841181066E1,-3.623545885E0,3.574983478E-1,3.657295227E0
4.846261046E1,-1.762294292E0,-1.138772011E0,5.755708218E-1
4.851341103E1,-7.936432958E-1,5.969504714E-1,1.724574566E0
4.856421082E1,9.726215601E-1,1.948755503E0,-2.732014358E-1
4.861500973E1,2.082683802E0,-1.777718186E0,-2.719797492E-1
4.866580957E1,3.917668819E0,2.135827541E0,-7.860077024E-1
4.871661009E1,2.062525749E0,2.433615446E0,-5.301238060E0
4.876740988E1,3.468848944E0,-4.054498672E-1,-3.767553091E0
4.881820879E1,1.524980187E0,2.113531530E-1,-1.213753462E0
4.886900858E1,-1.103648305E0,2.017017603E0,3.642176688E-1
4.891980915E1,-1.833305359E0,1.507570982E0,1.409377337E0
4.897060884E1,-1.511083364E0,7.783721089E-1,1.877591729E0
4.902140780E1,2.048934460E0,-4.304946065E-1,-3.391729295E-1
4.907220764E1,1.189930439E0,-2.917559147E0,-2.208976507E0
4.912300816E1,7.482879162E-1,-4.718183994E0,-9.184088707E-1
4.917380796E1,-1.580109119E0,-1.299577594E0,4.405277729E0
4.922460686E1,-7.027186871E0,-1.835595965E-1,4.546841621E0
4.927540665E1,-2.124221325E-1,-2.913435936E0,9.483403563E-1
4.932620717E1,-2.460187435E0,1.936385870E0,1.500088215E0
4.937700686E1,9.452861547E-2,2.577775419E-1,4.671454430E-1
4.942780587E1,1.242310643E0,2.604347229E0,-4.631749392E-1
4.947860566E1,2.712620020E0,-9.058864713E-1,1.768402755E-1
4.952940618E1,4.191939354E0,6.449019909E-1,-2.672151327E0
4.958020587E1,2.462936163E0,2.596559048E0,-4.985124588E0
4.963100483E1,3.173962355E0,-1.766264796E0,-2.005106211E0
4.968180462E1,-3.483356535E-1,1.299577594E0,-4.231644273E-1
4.973260514E1,-1.525285602E0,1.702278614E0,1.257276416E0
4.978340483E1,-1.826127887E0,5.302154422E-1,2.323968410E0
4.983420379E1,-4.036173224E-1,1.096470803E-1,1.365090966E0
4.988500358E1,3.820849657E0,6.626165509E-1,-1.466949701E0
4.993580410E1,2.528907657E-1,-4.933507919E0,-2.382304192E0
4.998660384E1,-7.818844914E-1,-4.574787617E0,2.816463947E0
5.003740275E1,-5.236030102E0,3.010255337E0,4.987262249E0
5.008820254E1,-3.395394564E0,-4.530196190E0,1.913631797E0
5.013900306E1,-1.367534280E0,5.887040496E-1,8.729007244E-1
5.018980270E1,-8.286142945E-1,1.867665499E-1,1.502989650E0
5.024060165E1,1.670056462E0,1.991056681E0,-3.695625961E-1
5.029140145E1,1.942341566E0,-1.065164924E0,1.152974218E-1
5.034220196E1,4.180791378E0,2.865026474E0,-7.230904698E-1
5.039300160E1,2.631835461E0,1.792836666E0,-5.913306713E0
5.044380056E1,3.433267117E0,-1.214822531E0,-3.475262880E0
5.049460035E1,1.020114899E0,4.066715539E-1,-1.055849433E0
5.054540082E1,-1.495659471E0,3.097606421E0,4.410317242E-1
5.059620051E1,-2.168202400E0,1.465728045E0,1.476112366E0
5.064699941E1,-2.303046942E0,2.615953386E-1,1.193137407E0
5.069779920E1,2.831582546E0,1.890572309E0,-9.907942414E-1
5.074859973E1,1.113574505E0,-2.499128819E0,-1.440988660E0
5.079939936E1,-5.302154422E-1,-4.485451221E0,-1.260941505E0
5.085019832E1,-1.944021434E-1,-4.269822121E0,4.159106255E0
5.090099806E1,-8.690524101E0,2.111240864E0,4.546078205E0
5.095179858E1,3.579564989E-1,-3.354315042E0,1.012326598E0
5.100259822E1,-2.017475843E0,3.226800561E-1,9.767447710E-1
5.105339717E1,1.753131598E-1,6.939224601E-1,1.001331329E0
5.110419691E1,1.170536041E0,1.057682037E0,-4.546230733E-1
5.115499743E1,2.463394165E0,2.780882120E-1,1.762294322E-1
5.120579712E1,3.924540997E0,2.506458998E0,-2.262120008E0
5.125659598E1,2.214932203E0,3.660655022E0,-5.562222481E0
5.130739577E1,4.500111580E0,-2.825015783E0,-1.610040665E0
5.135819624E1,5.155550838E-1,-2.913741469E-1,5.969504714E-1
5.140899587E1,-1.012173891E0,1.438239813E0,1.027750492E0
5.145979478E1,-9.991934299E-1,2.327327967E0,1.679524541E0
5.151059457E1,-9.706363082E-1,2.660392523E0,1.524674773E0
5.156139504E1,1.533379316E0,-4.725667000E0,-1.233147860E0
5.161219467E1,-4.576773047E-1,-2.709107637E0,-2.699181318E0
5.166299358E1,1.922641754E0,-3.551618576E0,-4.547757804E-1
5.171379332E1,-2.525242567E0,-9.393303990E-1,5.078278542E0
5.176459384E1,-6.907766342E0,6.458182931E-1,4.484993458E0
5.181539348E1,-3.028275371E-1,-1.868429065E0,4.643966258E-1
5.186619238E1,-2.457438469E0,2.017170429E0,1.474127173E0
5.191699212E1,8.657232523E-1,9.391776323E-1,7.337802649E-1
5.196779259E1,1.952115178E0,1.283848286E0,-3.089359999E-1
5.201859223E1,3.026900768E0,9.268079996E-1,1.536280811E-1
5.206939113E1,3.922250271E0,1.348750710E0,-3.696389437E0
5.212019087E1,2.899691820E0,8.266290426E-1,-5.229463577E0
5.217099134E1,2.346569777E0,-3.619270027E-1,-1.588355541E0
5.222179098E1,-6.047387719E-1,1.615538239E0,3.191677108E-2
5.227258988E1,-1.518871665E0,6.617003083E-1,1.256207347E0
5.232338962E1,-1.933484316E0,-9.266552925E-1,2.106048584E0
5.237419009E1,4.477510452E-1,1.960819662E-1,7.850914598E-1
5.242498978E1,3.044310093E0,-7.127060294E-1,-1.560103893E0
5.247578863E1,-6.641436815E-1,-3.985625744E0,-1.513068676E0
5.252658837E1,-7.687512636E-1,-4.872728348E0,3.455562830E0
5.257738884E1,-7.571451664E0,4.154524803E0,4.643507957E0
5.262818842E1,-1.218945742E0,8.108997345E-2,1.800472260E0
5.267898733E1,-1.876828194E0,-1.928597450E0,8.955020905E-1
5.272978707E1,-4.877615273E-1,6.652126908E-1,1.279572248E0
5.278058754E1,1.776038408E0,8.880192041E-1,-5.405998230E-1
5.283138723E1,2.434379101E0,-5.450284481E-1,-3.562766612E-1
5.288218603E1,4.105504513E0,3.736552715E0,-7.195780873E-1
5.293298577E1,1.535517335E0,4.009601593E0,-5.359268188E0
5.298378624E1,5.436693192E0,-1.703042150E0,-2.133231401E0
5.303458592E1,9.080244303E-1,-1.223221645E-1,-1.010952219E-1
5.308538473E1,-1.369366884E0,2.474236727E0,1.275754452E0
5.313618447E1,-1.242616057E0,4.866925478E-1,5.025745630E-1
5.318698488E1,-1.769319057E0,8.206732869E-1,5.980194807E-1
5.323778452E1,1.414874911E0,1.509861708E0,-9.597937465E-1
5.328858337E1,2.088792086E0,-3.283762217E0,-7.901309133E-1
5.333938311E1,4.491254389E-1,-1.802152157E0,-1.493674278E0
5.339018358E1,-7.218687534E-1,-7.950788021E0,4.056789398E0
5.344098316E1,-5.402791500E0,3.379054308E0,4.240043640E0
5.349178207E1,-2.776453495E0,-4.702455044E0,2.756142855E0
5.354258176E1,-1.278045177E0,1.241852522E0,1.821851879E-1
5.359338223E1,-5.497625470E-2,-8.785510659E-1,1.108382344E0
5.364418181E1,1.582247138E0,3.740828514E0,6.655181050E-1
5.369498072E1,2.111698866E0,-1.276059866E0,1.570030212E0
5.374578040E1,3.577274323E0,8.490777016E-2,-1.695406556E0
5.379658087E1,1.770846248E0,2.506153584E0,-6.709088326E0
5.384738046E1,2.994373322E0,-1.466949701E0,-2.700097561E0
5.389817936E1,5.732801557E-1,1.076007485E0,-8.203678727E-1
5.394897905E1,-1.043632507E0,2.293578863E0,9.254335612E-2
5.399977946E1,-1.553995371E0,4.894413650E-1,1.299424887E0
5.405057915E1,-1.823226333E0,7.847860456E-1,1.542389274E0
5.410137796E1,2.242267609E0,-1.582094431E-1,-1.022100210E0
5.415217764E1,4.382829070E-1,-2.841356039E0,-1.740761995E0
5.420297806E1,-1.096470803E-1,-3.471292257E0,-1.076465607E0
5.425377770E1,-1.060125470E0,-4.350759506E0,4.162466049E0
5.430457655E1,-6.478951454E0,1.757407546E0,5.078736782E0
5.435537624E1,-3.298575059E-2,-9.918632507E-1,1.181989431E0
5.440617670E1,-1.743205309E0,9.498675168E-2,1.180767775E0
5.445697634E1,1.695101149E-2,1.212226391E0,7.626428008E-1
5.450777514E1,1.376697063E0,1.641651988E0,-4.419479966E-1
5.455857483E1,3.303003788E0,-5.835118294E-1,4.947862774E-2
5.460937525E1,3.788321972E0,1.432436824E0,-2.261509180E0
5.466017493E1,2.075200796E0,3.476484537E0,-5.378663063E0
5.471097374E1,3.727390051E0,-1.980824947E0,-2.148044348E0
5.476177342E1,-1.294996142E-1,4.564556181E-1,-5.719057322E-1
5.481257384E1,-1.566059709E0,1.355622768E0,5.471664071E-1
5.486337342E1,-1.576596737E0,9.452861547E-2,1.832389116E0
5.491417228E1,-1.170383334E0,1.899887681E0,1.630656719E0
5.496497197E1,2.536237717E0,4.410317242E-1,-1.350583315E0
5.501577238E1,-4.857762754E-1,-3.377679825E0,-1.878355265E0
5.506657196E1,1.601488829E0,-4.548979759E0,-1.313321590E-1
5.511737082E1,-2.735984802E0,-2.473473310E0,5.208236217E0
5.516817051E1,-5.828246593E0,2.864873707E-1,5.975307941E0
5.521897092E1,-7.177455351E-3,-5.467082858E-1,2.536543310E-1
5.526977051E1,-1.986780763E0,2.288233757E0,1.639666796E0
5.532056936E1,1.001025915E0,5.480827093E-1,6.739172339E-1
5.537136905E1,2.064358234E0,1.098150611E0,-5.218162537E-1
5.542216946E1,2.843952179E0,6.954495907E-1,-3.727695346E-1
5.547296868E1,2.842730522E0,5.114318728E-1,-3.943782568E0
5.552376748E1,2.181335449E0,2.590297699E0,-5.479147434E0
5.557456717E1,1.917449594E0,2.179197669E-1,-1.803526521E0
5.562536753E1,-9.265025854E-1,3.046295166E0,-1.125486046E-1
5.567616711E1,-1.588050127E0,2.467364788E0,1.108382344E0
5.572696597E1,-1.821851969E0,1.792836636E-1,1.975327373E0
5.577776566E1,-7.461498976E-1,1.235438585E-1,7.739434838E-1
5.582856607E1,3.896289349E0,2.198591948E0,-1.852241635E0
5.587936560E1,-2.907632887E-1,-5.200448036E0,-1.838344812E0
5.593016446E1,1.213753462E0,-2.896026850E0,5.453338623E-1
5.598096352E1,-3.644314766E0,-3.823140383E0,4.989552975E0
5.603176394E1,-5.211443424E0,-1.199398637E0,4.861733437E0
5.608256347E1,-1.242157936E0,1.667613029E0,8.377770185E-1
5.613336232E1,-1.441904902E0,1.196802497E0,2.353747129E0
5.618416201E1,1.256665468E0,-1.139230132E-1,8.499939442E-1
5.623496238E1,5.945070982E-1,2.213099718E0,-1.766875684E-1
5.628576305E1,2.856168985E0,2.221956849E-1,2.194468826E-1
5.633656185E1,4.316246510E0,5.729747415E-1,-3.336142302E0
5.638736154E1,2.372988939E0,2.376806736E0,-5.923538685E0
5.643816196E1,2.444152594E0,-9.095515609E-1,-1.544985414E0
5.648896149E1,-6.609367132E-1,2.850060701E0,-6.336013079E-1
5.653976034E1,-1.180920482E0,2.726669550E0,5.450284481E-1
5.659055998E1,-1.947228312E0,1.303089857E0,1.256971002E0
5.664136040E1,-6.519267559E-1,-1.546207070E0,-4.886778072E-2
5.669216003E1,3.940575600E0,1.296065211E0,-2.353747129E0
5.674295878E1,5.282301903E-1,-5.465708733E0,-2.215084791E0
5.679375847E1,-3.344388679E-2,-6.762842655E0,2.388565540E0
5.684455883E1,-7.035585880E0,5.764871120E0,5.632775307E0
5.689535842E1,-2.625574112E0,-2.769276142E0,2.378180981E0
5.694615722E1,-2.204700470E0,4.286620617E-1,1.233911514E0
5.699695691E1,-2.249445021E-1,-2.441861928E-1,1.603015900E0
5.704775727E1,2.525242567E0,1.652799964E0,-3.269560039E-1
5.709855691E1,1.068982720E0,-1.514137626E0,4.301891923E-1
5.714935566E1,3.396157980E0,1.730530262E0,1.163664013E-1
5.720015529E1,2.589992285E0,1.608971715E0,-4.643813610E0
5.725095571E1,1.846133113E0,3.866815805E0,-3.403182745E0
5.730175524E1,1.525591016E0,-4.873034060E-1,-1.277892470E0
5.735255409E1,-1.406170368E0,1.314848781E0,-4.092676565E-2
5.740335373E1,-1.312558055E0,3.542914093E-1,8.564078808E-1
5.745415409E1,-1.196191669E0,1.134648800E0,1.721978426E0
5.750495363E1,3.764346123E0,1.913631797E0,-7.742488980E-1
5.755575248E1,1.094638348E0,-5.456240654E0,-2.298160076E0
5.760655212E1,-4.440859556E-1,-4.346331120E0,-1.540862203E0
5.765735248E1,-3.164646864E0,-1.003316641E-1,5.248552322E0
5.770815212E1,-6.244844437E0,2.295105934E0,4.352439404E0
5.775895086E1,-1.417623758E0,-3.348664761E0,3.071034551E-1
5.780975050E1,-2.467364788E0,1.893626451E0,2.013963461E0
5.786055086E1,5.795413256E-1,6.595623493E-1,1.064401343E-1
5.791135050E1,1.846743941E0,-2.727433145E-1,-6.580352187E-1
5.796214925E1,4.496141434E0,1.987391591E0,-2.339545041E-1
5.801294888E1,2.651077032E0,2.509818792E0,-3.185721159E0
5.806374925E1,3.480913162E0,2.288233757E0,-3.699290991E0
5.811454878E1,3.064162493E0,-1.240630746E0,-1.725948930E0
5.816534758E1,-1.599198103E0,2.916795731E0,3.649812341E-1
5.821614727E1,-1.842773438E0,1.139993668E0,8.281561732E-1
5.826694764E1,-1.623479247E0,-2.638860047E-1,1.553689957E0
5.831774717E1,1.298050404E0,1.576444030E0,-2.041756958E-1
5.836854597E1,3.326979637E0,-1.488176584E0,-2.073979139E0
5.841934560E1,-2.699944973E-1,-4.978710651E0,-1.287207842E0
5.847014597E1,-1.943715930E0,-3.377679825E0,4.871354103E0
5.852094550E1,-8.725341797E0,1.623784781E0,5.308109760E0
5.857174430E1,-3.003841341E-1,-1.222152710E0,1.106549859E0
5.862254394E1,-1.430298805E0,2.860292196E-1,1.121515512E0
5.867334430E1,9.677347541E-1,9.852966070E-1,5.874823332E-1
5.872414383E1,1.312710762E0,-2.348707765E-1,-2.122694254E-2
5.877494264E1,3.603998899E0,9.258917570E-1,2.322746664E-1
5.882574227E1,3.965773106E0,2.755837440E0,-2.187138557E0
5.887654264E1,1.747634053E0,3.341945410E0,-6.173069477E0
5.892734217E1,2.650008202E0,-1.863084197E0,-1.938981891E0
5.897814097E1,-1.036607742E0,1.353790283E0,-2.702999115E-2
5.902894066E1,-2.173241854E0,2.493783951E0,1.181684017E0
5.907974102E1,-1.719687700E0,4.483618736E-1,1.660588264E0
5.913054055E1,-7.278245091E-1,8.553388715E-1,3.570402265E-1
5.918133935E1,3.378290653E0,4.031592011E-1,-2.135369301E0
5.923213904E1,4.961606860E-1,-5.579478741E0,-2.576706409E0
5.928293941E1,8.386932611E-1,-2.373141527E0,1.338519096E0
5.933373904E1,-4.726125240E0,-3.234436214E-1,4.886472702E0
5.938453779E1,-5.767925262E0,-1.985406280E0,3.816115618E0
5.943533748E1,-1.324164152E0,-4.508052766E-1,5.430431962E-1
5.948613790E1,-1.031568289E0,9.703308940E-1,1.971814990E0
5.953693743E1,1.662878990E0,1.883089423E0,3.649812192E-2
5.958773628E1,1.756033182E0,-1.078450799E0,2.244863659E-1
5.963853597E1,3.984251261E0,2.115669489E0,-2.938175201E-1
5.968933639E1,3.047822475E0,7.882983685E-1,-5.014903069E0
5.974013597E1,2.986584902E0,1.040272832E0,-4.789042473E0
5.979093488E1,1.652799964E0,-9.779664874E-1,-1.369977713E0
5.984173456E1,-1.610804200E0,2.907785654E0,4.888305068E-1
5.989253498E1,-1.642262816E0,1.364480019E0,1.752215385E0
5.994333467E1,-2.102689028E0,4.799732268E-1,1.832236409E0
5.999413347E1,7.915053368E-1,6.942279339E-1,-6.597150564E-1
6.004493321E1,3.309723139E0,-9.471186996E-1,-1.858044624E0
6.009573368E1,2.667875290E-1,-6.586308002E0,-1.970745921E0
6.014653331E1,-8.831323981E-1,-4.441623211E0,4.957178116E0
6.019733222E1,-7.243885040E0,3.477095366E0,6.099004269E0
6.024813201E1,-1.389677543E-2,-4.479801178E0,1.930735469E0
6.029893248E1,-2.294953108E0,3.139449596E0,1.015838981E0
6.034973212E1,6.339067221E-1,4.683671296E-1,9.495620728E-1
6.040053107E1,8.929060102E-1,3.995857239E0,-2.977880239E-1
6.045133081E1,2.161330223E0,-2.947796106E0,1.860029846E-1
6.050213133E1,4.508358002E0,1.853768706E0,-2.185764313E0
6.055293102E1,2.519592285E0,2.622214556E0,-6.934032440E0
6.060372998E1,3.169991732E0,-1.304769754E0,-2.495921850E0
6.065452977E1,-2.432699203E-1,2.762098551E0,-3.329117596E-1
6.070533029E1,-1.486954927E0,2.310835123E0,9.061918855E-1
6.075613008E1,-1.389982939E0,-4.289674759E-1,1.021947503E0
6.080692899E1,-1.202605486E0,-1.082115889E0,4.167505503E-1
6.085772878E1,2.573194027E0,2.938022614E0,-1.749771953E0
6.090852935E1,1.752368093E0,-5.387214661E0,-1.654785275E0
6.095932915E1,-2.108950168E-1,-5.656751156E0,1.588813663E0
6.101012805E1,-2.957569599E0,-1.279266834E0,5.048805237E0
6.106092790E1,-5.634455204E0,-1.827044129E0,5.163797379E0
6.111172847E1,-1.543916464E-1,-4.604261220E-1,3.833066523E-1
6.116252821E1,-1.570793748E0,8.441908956E-1,1.130831003E0
6.121332722E1,7.945595980E-1,2.103299856E0,1.142284349E-1
6.126412712E1,1.431673288E0,-6.752916574E-1,6.536065787E-2
6.131492769E1,3.907589912E0,9.362761378E-1,-2.965663373E-1
6.136572753E1,3.707995653E0,2.370698214E0,-3.802676916E0
6.141652649E1,2.813562393E0,1.438239813E0,-6.343343258E0
6.146732639E1,1.744427085E0,-4.181249440E-1,-1.499477267E0
6.151812701E1,-1.362800241E0,2.961387396E0,7.446228266E-1
6.156892685E1,-1.594158649E0,7.461498976E-1,1.463437319E0
6.161972581E1,-1.490925431E0,-8.782456517E-1,9.848384857E-1
6.167052571E1,3.362714052E-1,9.874345660E-1,-9.281824231E-1
6.172132639E1,3.012546062E0,7.122479081E-1,-1.353637576E0
6.177212623E1,3.471139669E-1,-4.214082718E0,-1.189472318E0
6.182292529E1,-6.847597957E-1,-7.416602135E0,3.629654408E0
6.187372519E1,-4.260507107E0,2.115211248E0,4.837146759E0
6.192452587E1,-3.947142363E0,-8.600729704E-1,3.601402760E0
6.197532576E1,-1.902025700E0,-1.099066973E0,4.671454430E-1
6.202612482E1,-2.925958335E-1,1.082726717E0,1.165191174E0
6.207692477E1,1.182294846E0,3.317816973E0,-6.520794332E-2
6.212772550E1,2.305490255E0,-2.958486080E0,8.816053271E-1
6.217852540E1,4.725208759E0,4.773771465E-1,-1.088682532E0
6.222932451E1,2.298465490E0,3.645383835E0,-5.699357510E0
6.228012451E1,3.891402483E0,-1.586370349E0,-2.500961304E0
6.233092524E1,9.962918758E-1,3.539859951E-1,-5.937435627E-1
6.238172519E1,-1.029124975E0,3.115320921E0,3.842229247E-1
6.243252430E1,-1.527729034E0,1.568350315E0,1.566059709E0
6.248332430E1,-1.856364846E0,9.158127308E-1,1.058445573E0
6.253412508E1,2.145906448E0,-1.409377337E0,-1.597365618E0
6.258492508E1,5.958815217E-1,-3.765415192E0,-2.571056128E0
6.263572425E1,1.820783019E0,-4.924955845E0,-7.956285477E-1
6.268652430E1,-9.118422270E-1,-3.488854170E0,4.697110176E0
6.273732508E1,-8.045164108E0,-1.110978484E0,5.915139198E0
6.278812514E1,1.276365399E0,-1.229635477E0,9.852966070E-1
6.283892435E1,-1.568197608E0,1.892404795E0,1.312405348E0
6.288972441E1,6.193991303E-1,1.584232330E0,9.799517393E-1
6.294052524E1,8.411366940E-1,5.276193023E-1,5.731274486E-1
6.299132534E1,3.464114904E0,1.395327806E0,-5.509842038E-1
6.304212456E1,3.546884537E0,-4.695888162E-1,-4.007310867E0
6.309292467E1,2.374057770E0,1.819713950E0,-5.701648235E0
6.314372555E1,1.958528996E0,3.017585576E-1,-2.048170805E0
6.319452566E1,-7.617265582E-1,4.695735455E0,-4.648547769E-1
6.324532493E1,-1.776343822E0,2.316332817E0,9.552124143E-1
6.329612508E1,-2.549981833E0,-4.185830951E-1,1.499629974E0
6.334692597E1,-5.610632300E-1,-1.121973753E0,-1.728697717E-1
6.339772613E1,3.507637739E0,3.169380903E0,-1.206575990E0
6.344852540E1,1.732820988E0,-7.037876606E0,-1.341878772E0
6.349932560E1,5.725166202E-1,-4.258827209E0,2.738886356E0
6.355012654E1,-6.107098103E0,1.494285107E0,4.864329338E0
6.360092670E1,-3.417690516E0,-5.926440239E0,3.112419605E0
6.365172602E1,-1.976396322E0,2.072146654E0,8.858812451E-1
6.370252628E1,-9.214630723E-1,3.909422457E-2,1.585148692E0
6.375332722E1,1.039051175E0,2.510276794E0,-2.231119573E-1
6.380412743E1,2.321525097E0,-4.315635860E-1,4.462239146E-1
6.385492675E1,4.434903622E0,1.996248841E0,-9.211576581E-1
6.390572701E1,2.297396660E0,1.963721275E0,-6.837671280E0
6.395652800E1,3.449912548E0,-2.048170805E0,-3.826958179E0
6.400732821E1,2.247917950E-1,1.574153423E0,-7.429429889E-1
6.405812758E1,-1.550330400E0,4.567763329E0,7.539382577E-1
6.410892790E1,-1.552773714E0,7.040014863E-1,1.563310862E0
6.415972888E1,-2.030456305E0,-5.806103349E-1,8.489249945E-1
6.421052915E1,2.641456366E0,2.339850426E0,-1.546818018E0
6.426132857E1,1.227650285E0,-3.436321259E0,-7.128587365E-1
6.431212888E1,-2.330382317E-1,-6.994353771E0,-1.056765795E0
6.436292993E1,-8.980981708E-1,-3.921944857E0,4.988331318E0
6.441373019E1,-7.489292622E0,1.229482770E0,5.670189857E0
6.446452962E1,4.138490260E-1,-3.100507975E0,2.284568697E-1
6.451532993E1,-2.038244486E0,1.868887186E0,1.070204377E0
6.456613102E1,4.914266169E-1,1.623632073E0,3.504736125E-1
6.461693128E1,1.928292036E0,-1.791309565E-1,6.444438547E-2
6.466773076E1,3.548259020E0,7.821899056E-1,4.269822240E-1
6.471853107E1,3.412956238E0,-1.221694518E-2,-3.660655022E0
6.476933217E1,2.858001709E0,1.914089918E0,-6.542021275E0
6.482013248E1,1.770082593E0,-9.536852837E-1,-1.812842011E0
6.487093196E1,-9.576557875E-1,2.951003075E0,2.790044844E-1
6.492173232E1,-1.542389274E0,1.924626946E0,1.799708724E0
6.497253342E1,-1.016602516E0,-2.108950168E-1,2.161024809E0
6.502333373E1,-3.930802047E-1,3.851391971E-1,8.197570443E-1
6.507413326E1,2.651229858E0,8.904625773E-1,-1.678608298E0
6.512493362E1,2.536543310E-1,-5.098742008E0,-2.618244171E0
6.517573477E1,7.531746626E-1,-5.855276585E0,1.775885701E0
6.522653508E1,-4.319453716E0,2.990250111E0,5.540537357E0
6.527733456E1,-4.224619865E0,-3.548869848E0,3.167853832E0
6.532813498E1,-1.390135646E0,2.560977042E-1,7.685985565E-1
6.537893613E1,-1.848881960E0,1.291025639E0,1.809635043E0
6.542973649E1,1.211310148E0,2.616258860E0,-3.122956753E-1
6.548053597E1,1.055544019E0,8.562551737E-1,-6.474980712E-2
6.553133638E1,3.335226059E0,1.083490372E0,2.573194206E-1
6.558213753E1,3.809396267E0,1.986933470E0,-4.833176136E0
6.563293790E1,3.684478045E0,9.376505762E-2,-3.910491467E0
6.568373743E1,2.334963560E0,-2.321219593E-1,-9.289459586E-1
6.573453790E1,-1.068219185E0,2.895263195E0,7.314895988E-1
6.578533904E1,-1.083032131E0,1.327829242E0,1.332410574E0
6.583613941E1,-1.568503022E0,2.019308329E0,1.988155127E0
6.588693894E1,-3.771981969E-2,-1.441294074E0,2.034121305E-1
6.593773941E1,2.681924820E0,-4.040907383E0,-2.082225561E0
6.598854055E1,-4.718795121E-1,-3.565668106E0,-2.503557444E0
6.603934097E1,1.889045089E-1,-5.986608505E0,3.598959446E0
6.609014050E1,-5.174181938E0,3.614383221E0,5.452880859E0
6.614094097E1,-2.545400620E0,-2.718270302E0,2.827153921E0
6.619174217E1,-2.054432154E0,6.925480962E-1,4.993676245E-1
6.624254258E1,-4.362976551E-1,8.220477104E-1,1.345238328E0
6.629334217E1,1.718618751E0,2.763014793E0,-1.850867122E-1
6.634414264E1,2.060540438E0,-2.051072359E0,2.350234836E-1
6.639494383E1,4.341138840E0,1.619661450E0,-4.179722369E-1
6.644574425E1,2.871592999E0,6.917845011E-1,-5.939878941E0
6.649654383E1,3.166479588E0,-5.572454333E-1,-4.687642097E0
6.654734435E1,3.313846514E-2,1.324011445E0,-1.134037971E0
6.659814555E1,-1.543305635E0,3.853377104E0,1.212684512E0
6.664894597E1,-1.753131628E0,1.107160687E0,1.663184404E0
6.669974560E1,-2.159345150E0,-1.360967636E0,7.533273697E-1
6.675054607E1,1.771457076E0,2.468891859E0,-1.526659966E0
6.680134732E1,1.866443753E0,-1.966775417E0,-1.317292094E0
6.685214779E1,9.443698525E-1,-5.812364578E0,-1.263232112E0
6.690294743E1,-8.351809382E-1,-4.786904335E0,4.798510551E0
6.695374795E1,-8.591414452E0,3.808327198E0,5.426003456E0
6.700454920E1,-5.222744122E-2,-3.669664860E0,9.455915689E-1
6.705534967E1,-2.489660740E0,2.516690731E0,1.482984424E0
6.710614930E1,9.732323885E-1,7.591304183E-1,1.452289373E-1
6.715694982E1,1.880951405E0,1.580872655E0,-7.385143638E-1
6.720775107E1,2.837232828E0,-1.169772506E0,3.336753249E-1
6.725855154E1,4.113445282E0,2.416358948E0,-1.654785275E0
6.730935123E1,2.724684238E0,1.163816690E0,-7.028866768E0
6.736015175E1,2.909618139E0,-2.711245537E0,-2.337559700E0
6.741095305E1,-1.045006990E0,2.951461315E0,3.333698809E-1
6.746175352E1,-1.738013148E0,2.682077646E0,1.403268814E0
6.751255321E1,-1.601183414E0,-7.895200700E-2,1.791462302E0
6.756335378E1,-8.251019120E-1,-1.921725512E0,7.030851841E-1
6.761415508E1,2.634889603E0,4.877004623E0,-1.347529054E0
6.766495555E1,4.967715442E-1,-5.108515739E0,-7.669187188E-1
6.771575524E1,3.393256664E-1,-5.839547157E0,-9.158127308E-1
6.776655586E1,-2.831429720E0,-1.983115673E0,5.351633072E0
6.781735717E1,-5.699968338E0,-3.927747905E-1,4.283719063E0
6.786815769E1,-1.264148355E0,-8.017370105E-2,-2.368560284E-1
6.791895738E1,-1.034011722E0,1.663031727E-1,1.516581059E0
6.796975800E1,1.038898468E0,1.729308605E0,4.152234197E-1
6.802055930E1,1.671278119E0,-4.793623984E-1,4.611896873E-1
6.807135988E1,4.518131733E0,2.060082406E-1,-1.714953631E-1
6.812215956E1,3.482745647E0,1.699835181E0,-4.593113422E0
6.817296019E1,4.230880737E0,-1.213295341E0,-4.034493446E0
6.822376154E1,1.540404081E0,-7.543963939E-2,-9.695672989E-1
6.827456212E1,-1.295148849E0,4.167200089E0,3.869717419E-1
6.832536185E1,-2.008007765E0,2.231425047E0,1.710525036E0
6.837616248E1,-2.098412991E0,-1.453816444E-1,1.504822254E0
6.842696383E1,-4.970769584E-1,-1.042563558E0,-7.676823139E-1
6.847776441E1,2.319692373E0,-1.625159144E0,-2.139797926E0
6.852856420E1,1.527118087E-1,-2.211725235E0,-2.172783613E0
6.857936482E1,1.294690728E0,-4.557378769E0,2.551508904E0
6.863016623E1,-4.635108948E0,1.527118147E-3,4.549284935E0
6.868096685E1,-4.140322685E0,-2.419871330E0,4.115583420E0
6.873176659E1,-1.646386027E0,2.034121305E-1,8.852704167E-1
6.878256727E1,-6.972821355E-1,7.386670709E-1,1.375169873E0
6.883336868E1,1.919740200E0,1.924321532E0,-3.918585181E-1
6.888416930E1,1.091125965E0,-8.843541145E-1,1.980672181E-1
6.893496909E1,3.479080677E0,2.117196560E0,-4.127800465E-1
6.898576977E1,3.052861929E0,5.822901726E-1,-5.743796825E0
6.903657123E1,2.998343706E0,-3.721587062E-1,-4.734066486E0
6.908737185E1,8.577822447E-1,5.395308137E-1,-1.427397370E0
6.913817165E1,-1.696780920E0,3.281013250E0,4.676035643E-1
6.918897238E1,-1.653258085E0,4.062134326E-1,1.605459332E0
6.923977383E1,-1.661504507E0,1.261094213E0,2.520813942E0
6.929057446E1,1.233453274E0,5.923691392E-1,2.191414535E-1
6.934137430E1,3.212903976E0,8.887827396E-2,-1.462215662E0
6.939217503E1,-2.625116110E-1,-3.170449972E0,-1.836206913E0
6.944297649E1,-8.877137899E-1,-6.694885731E0,3.022014141E0
6.949377717E1,-5.655682087E0,-8.092198968E-1,5.516103268E0
6.954457701E1,-1.895917177E0,6.865923405E-1,3.111197710E0
6.959537774E1,-2.076727867E0,-7.605048269E-2,1.048366666E0
6.964617925E1,-6.632274389E-1,9.306257963E-1,1.004843712E0
6.969697993E1,1.136175871E0,2.082989216E0,-6.865923405E-1
6.974777977E1,2.758433580E0,-1.397160411E0,-3.756710589E-1
6.979858050E1,3.998606205E0,2.431019306E0,-1.729461312E0
6.984938201E1,2.440334797E0,3.221302986E0,-5.900937080E0
6.990018269E1,4.003951073E0,-1.858502746E0,-2.771414042E0
6.995098258E1,7.863131166E-1,1.136328578E0,-7.837170362E-1
7.000178331E1,-1.659672022E0,2.575790167E0,5.334223509E-1
7.005258482E1,-1.598434567E0,1.693574041E-1,1.869039893E0
7.010338555E1,-1.624090195E0,7.284353375E-1,1.700751424E0
7.015418540E1,7.721109390E-1,4.271349311E-1,-8.733588457E-1
7.020498618E1,2.163315535E0,-2.110630035E0,-1.569266558E0
7.025578769E1,1.259872466E-1,-4.189496040E0,-2.017170429E0
7.030658842E1,-2.893888950E-1,-7.594816685E0,4.227826595E0
7.035738831E1,-5.453644276E0,9.515473247E-1,6.028146267E0
7.040818909E1,-6.001574174E-2,-9.255862832E-1,2.151556730E0
7.045899060E1,-1.789324284E0,2.102841735E-1,9.097042680E-1
7.050979128E1,-3.442124426E-1,1.322331548E0,1.500699043E0
7.056059118E1,8.058602214E-1,1.752673507E0,5.192201585E-3
7.061139196E1,3.022777557E0,-1.436407328E0,-7.605048269E-2
7.066219347E1,4.098327160E0,5.929799676E-1,-1.988307834E0
7.071299420E1,2.434226274E0,2.583120346E0,-7.544116497E0
7.076379409E1,2.585563660E0,-2.048476219E0,-3.058817625E0
7.081459488E1,-2.617480457E-1,3.017585516E0,-6.862868667E-1
7.086539644E1,-1.913326383E0,4.427878857E0,1.152974248E0
7.091619717E1,-1.869498014E0,-2.593046725E-1,2.245474577E0
7.096699701E1,-1.343253136E0,-1.037829518E0,1.944326878E0
7.101779784E1,3.042171955E0,3.512066364E0,-1.303853512E0
7.106859935E1,1.249029875E0,-5.154940128E0,-1.018893242E0
7.111940008E1,-3.660502136E-1,-2.046491146E0,-9.373451471E-1
7.117019998E1,-2.521119356E0,-7.258545399E0,4.966951847E0
7.122100076E1,-6.056550503E0,9.972081780E-1,5.237862587E0
7.127180227E1,-5.422796607E-1,6.000047326E-1,1.076771021E0
7.132260300E1,-1.270104170E0,-9.139801860E-1,1.266897202E0
7.137340290E1,1.458397806E-1,1.964484811E0,5.095993280E-1
7.142420368E1,1.264606595E0,-1.001789495E-1,-2.226538211E-1
7.147500524E1,3.539859772E0,8.669449687E-1,-3.833066523E-1
7.152580597E1,3.430670977E0,1.979450583E0,-3.722961426E0
7.157660586E1,3.367448330E0,9.124531150E-1,-5.548020363E0
7.162740665E1,2.350692987E0,-9.000834227E-1,-1.738013148E0
7.167820816E1,-7.931851745E-1,2.829138994E0,6.139014959E-1
7.172900888E1,-1.731752038E0,2.057638884E0,1.512457848E0
7.177980883E1,-1.631420374E0,-6.760551929E-1,2.075048208E0
7.183060962E1,-6.830799580E-1,6.719320081E-3,4.367557764E-1
7.188141112E1,3.546121120E0,-1.468629479E0,-2.478818178E0
7.193221185E1,2.324273884E-1,-2.918780804E0,-2.561740637E0
7.198301175E1,-9.252808690E-1,-6.044486523E0,2.373294353E0
7.203381258E1,-2.074437380E0,8.797727823E-1,5.766856194E0
7.208461409E1,-5.451200962E0,-6.206207871E-1,4.279595852E0
7.213541482E1,-5.784723759E-1,-1.094943762E0,3.626905680E-1
7.218621472E1,-1.352721214E0,6.186355352E-1,1.537349820E0
7.223701550E1,1.111436605E0,2.730029106E0,-7.437065244E-2
7.228781706E1,1.083795786E0,-6.841489077E-1,-2.367033064E-1
7.233861779E1,3.503819942E0,1.819408536E0,-6.988092661E-1
7.238941769E1,3.325605154E0,1.353332043E0,-4.685198307E0
7.244021847E1,3.408833027E0,1.271783948E0,-4.987109661E0
7.249102003E1,2.117654800E0,-1.344016671E0,-2.121778011E0
7.254182076E1,-1.215127945E0,1.610346079E0,3.848337829E-1
7.259262066E1,-1.578734756E0,1.552773714E0,1.711899400E0
7.264342144E1,-1.281099439E0,7.640172243E-1,2.321372271E0
7.269422295E1,4.982986450E-1,3.045073450E-1,3.306210935E-1
7.274502373E1,3.107838154E0,1.200925708E0,-1.665016890E0
7.279582363E1,-5.544965863E-1,-3.995246410E0,-1.584995866E0
7.284662441E1,6.045860648E-1,-5.637814999E0,2.032747030E0
7.289742597E1,-4.993829250E0,1.071884274E0,5.014903069E0
7.294822670E1,-3.511913538E0,-2.347791433E0,3.629654408E0
7.299902659E1,-1.375017166E0,-5.920637250E-1,1.037065983E0
7.304982738E1,-1.971204162E0,1.424953938E0,1.941578031E0
7.310062894E1,1.862320542E0,1.085017443E0,-3.457395434E-1
7.315142967E1,1.240325332E0,5.877877474E-1,-3.042019308E-1
7.320222956E1,3.058512211E0,-1.011868477E0,6.656708121E-1
7.325303034E1,3.396005392E0,9.498675168E-2,-3.341792583E0
7.330383191E1,2.538833857E0,3.633777618E0,-6.153675079E0
7.335463264E1,2.403073072E0,-2.428575993E0,-2.332673073E0
7.340543258E1,-7.763868570E-1,2.539292097E0,8.551861346E-2
7.345623336E1,-1.025154471E0,2.555174112E0,9.271134138E-1
7.350703488E1,-9.750649333E-1,-4.672981501E-1,1.806733489E0
7.355783566E1,-8.286142945E-1,2.635805905E-1,1.093569279E0
7.360863555E1,3.178085566E0,3.625225782E0,-1.339129925E0
7.365943633E1,1.007897966E-2,-4.759110928E0,-1.350277901E0
7.371023790E1,3.054236295E-4,-4.731164932E0,2.887780368E-1
7.376103862E1,-3.513593435E0,-2.931914091E0,5.590321541E0
7.381183852E1,-5.203502178E0,2.102078199E0,3.864525080E0
7.386263935E1,-1.311794519E0,-1.608208179E0,8.857285231E-2
7.391344086E1,-1.489245653E0,4.928010404E-1,1.803984642E0
7.396424159E1,1.720145941E0,1.506807446E0,1.269035190E-1
7.401504154E1,9.193251133E-1,1.327065676E-1,2.144073844E-1
7.406584232E1,3.350344419E0,-6.844543815E-1,2.353289127E-1
7.411664383E1,3.457395554E0,1.958376288E0,-4.080154419E0
7.416744462E1,3.570707560E0,-7.330167107E-3,-5.918804646E0
7.421824451E1,1.803373814E0,-7.223268598E-2,-1.755422354E0
7.426904529E1,-1.302784443E0,3.385620832E0,-3.032856584E-1
7.431984680E1,-1.861557007E0,1.900956631E0,1.109604001E0
7.437064753E1,-1.926764965E0,6.145123243E-1,1.789018869E0
7.442144743E1,1.980672181E-1,-1.140146375E0,-3.257342875E-1
7.447224821E1,2.871745586E0,5.114013195E0,-1.680288076E0
7.452304977E1,5.573981255E-2,-7.428666115E0,-1.446028233E0
7.457385050E1,1.523605824E0,-4.513092041E0,1.878508091E0
7.462465040E1,-5.563596725E0,1.175422788E0,4.952444077E0
7.467545118E1,-3.990665197E0,-4.023651123E0,2.559755325E0
7.472625264E1,-1.908286810E0,-1.428619027E0,2.936648130E-1
7.477705336E1,-9.744541049E-1,1.262621284E0,1.305685997E0
7.482785326E1,5.612159371E-1,3.354315042E0,1.298050433E-1
7.487865404E1,2.110324621E0,-1.684411287E0,6.135960817E-1
7.492945550E1,4.852723122E0,1.998692274E0,-1.138466597E0
7.498025623E1,2.679328680E0,1.951809645E0,-6.337540150E0
7.503105607E1,4.556462288E0,-1.897596955E0,-2.981850863E0
7.508185685E1,6.731536984E-1,9.788827598E-2,-9.214630723E-1
7.513265831E1,-1.437628984E0,1.533837438E0,1.182142138E0
7.518345904E1,-1.364327312E0,-6.933116168E-2,2.005106211E0
7.523425888E1,-1.283542752E0,4.204156399E-1,3.050418615E0
7.528505962E1,9.674293399E-1,-6.116108298E-1,1.430909634E-1
7.533586107E1,1.233300567E0,-3.762666464E0,-2.604041815E0
7.538666175E1,-3.156553209E-1,-2.753699541E0,-1.905690789E0
7.543746159E1,-1.306754947E0,-2.050766945E0,4.471249104E0
7.548826232E1,-7.673921585E0,4.014182568E0,5.063160419E0
7.553906378E1,-4.692834020E-1,-1.455801725E0,6.245913506E-1
7.558986446E1,-1.813605547E0,1.340809762E-1,1.965859175E0
7.564066425E1,8.539644480E-1,6.821636558E-1,2.625116110E-1
7.569146498E1,1.474738002E0,-8.725953102E-1,-4.689779878E-1
7.574226639E1,3.603998899E0,8.298360109E-1,-4.508052766E-1
7.579306706E1,3.702192545E0,1.619661450E0,-3.299491405E0
7.584386685E1,3.069201946E0,2.223942041E0,-5.389657974E0
7.589466753E1,2.854947329E0,-2.631377220E0,-2.572430611E0
7.594546894E1,-1.083184958E0,3.046447992E0,2.151709497E-1
7.599626956E1,-1.405406833E0,2.798902035E0,1.484511495E0
7.604706935E1,-1.524827480E0,2.122694254E-2,1.998844981E0
7.609787003E1,-1.556133330E-1,-1.644553542E0,3.176405653E-2
7.614867144E1,2.671998739E0,1.939287305E0,-2.130787849E0
7.619947206E1,-7.453863621E-1,-6.229115009E0,-1.848271132E0
7.625027180E1,1.291942000E-1,-3.127996206E0,3.270781755E0
7.630107248E1,-8.630966187E0,5.536414146E0,4.896399021E0
7.635187388E1,-1.501615286E0,-3.506568670E0,5.135698318E-1
7.640267446E1,-2.638249397E0,-2.799207568E-1,1.442515850E0
7.645347420E1,-1.638597846E-1,-9.506310225E-1,1.604848504E0
7.650427482E1,2.149571419E0,1.265828252E0,-3.616215885E-1
7.655507623E1,2.176601410E0,-2.757669926E0,4.932591692E-2
7.660587680E1,4.292271137E0,1.930582762E0,-1.165191174E0
7.665667654E1,2.536085129E0,2.341224909E0,-6.334333420E0
7.670747717E1,3.626447439E0,-2.095511436E0,-3.403640985E0
7.675827847E1,1.375933439E-1,1.962652206E0,-8.270871639E-1
7.680907904E1,-1.510625243E0,3.876436710E0,6.349757314E-1
7.685987873E1,-1.812231064E0,1.061194420E0,1.988002419E0
7.691067935E1,-1.265064716E0,-4.877615273E-1,1.481762767E0
7.696148071E1,2.913588762E0,3.370502472E0,-1.660740972E0
7.701228123E1,1.739998460E0,-3.992344856E0,-1.379903913E0
7.706308092E1,5.844281316E-1,-3.053167343E0,-1.367686987E0
7.711388149E1,-3.043699265E0,-6.090605259E0,5.822137833E0
7.716468284E1,-5.860163212E0,-3.852919042E-1,4.906936169E0
7.721548337E1,-3.329117596E-1,-2.312515020E0,7.618792653E-1
7.726628305E1,-2.189582109E0,7.194253802E-1,1.220930934E0
7.731708363E1,-3.005368412E-1,8.979454637E-1,1.525285602E0
7.736788488E1,1.758018374E0,7.849387527E-1,-4.596625641E-2
7.741868540E1,2.545247793E0,-2.909159958E-1,1.591257155E-1
7.746948508E1,3.797942877E0,1.839108348E0,-1.781383276E0
7.752028560E1,2.181641102E0,3.429907322E0,-6.541716099E0
7.757108691E1,3.608122110E0,-2.924583912E0,-3.414636135E0
7.762188743E1,-1.537808031E-1,2.158276081E0,-2.635805905E-1
7.767268706E1,-1.544221878E0,2.795237064E0,1.066233873E0
7.772348758E1,-1.516122937E0,6.042806506E-1,1.958987117E0
7.777428883E1,-1.283695459E0,-3.771981969E-2,1.631267548E0
7.782508935E1,3.704635859E0,3.975241184E0,-1.226123214E0
7.787588899E1,1.617981672E0,-4.838979244E0,-1.491688967E0
7.792668951E1,-1.036607742E0,-4.577383995E0,-7.769976854E-1
7.797749076E1,-3.035605431E0,-2.939244270E0,5.112791538E0
7.802829123E1,-7.733020782E0,1.231162667E0,4.385425091E0
7.807909087E1,-1.869192570E-1,-3.006437540E0,3.280249834E-1
7.812989139E1,-1.856975675E0,1.202758312E0,2.084516287E0
7.818069258E1,9.446752667E-1,1.050962687E0,2.220429778E-1
7.823149305E1,1.756033182E0,-8.970292211E-1,-7.078192830E-1
7.828229269E1,3.500002146E0,3.003841400E0,-5.361711979E-1
7.833309316E1,2.496685505E0,2.670013428E0,-4.494003296E0
7.838389441E1,4.377942085E0,7.751652002E-1,-3.629196167E0
7.843469488E1,2.823488712E0,-5.256340504E-1,-1.901872993E0
7.848549446E1,-1.286444306E0,2.929012537E0,4.190412164E-1
7.853629493E1,-1.855754018E0,1.190541267E0,1.194664478E0
7.858709618E1,-1.904469013E0,3.619270027E-2,1.803679228E0
7.863789659E1,-3.377985358E-1,-1.000567794E0,6.688777357E-2
7.868869618E1,2.680397749E0,2.113837004E0,-1.476875901E0
7.873949665E1,1.705790907E-1,-6.858592987E0,-2.481872320E0
7.879029790E1,2.159955978E0,-4.083819389E0,3.048891306E0
7.884109831E1,-7.602757931E0,3.417385101E0,4.604719162E0
7.889189790E1,-2.231119633E0,-4.422839642E0,2.498823404E0
7.894269836E1,-2.333131075E0,1.623326540E-1,8.846595287E-1
7.899349956E1,-6.453601122E-1,1.223068953E0,1.310420036E0
7.904429998E1,9.506310225E-1,1.485427856E0,-3.665083647E-2
7.909509956E1,2.698112249E0,-4.665345848E-1,4.321744293E-2
7.914590003E1,4.107947826E0,2.452857256E0,-1.316528559E0
7.919670123E1,1.938371062E0,3.798095465E0,-5.667899132E0
7.924750159E1,4.565930367E0,-2.023584366E0,-2.413915634E0
7.929830118E1,9.943066239E-1,7.895200700E-2,-4.581354558E-1
7.934910165E1,-1.606528282E0,1.468934894E0,5.236487985E-1
7.939990279E1,-1.710066915E0,2.057028115E-1,1.761836171E0
7.945070321E1,-1.140757203E0,6.022953987E-1,2.062678576E0
7.950150274E1,1.068066478E0,3.106158376E-1,-5.157077909E-1
7.955230321E1,2.194621563E0,-2.532114506E0,-1.845522285E0
7.960310441E1,2.524326444E-1,-4.656488419E0,-2.263494492E0
7.965390477E1,9.819369763E-2,-5.514881611E0,4.047473907E0
7.970470435E1,-6.165281296E0,4.006546974E0,4.958705425E0
7.975550477E1,-1.050657272E0,-4.851196289E0,2.270061016E0
7.980630597E1,-1.840177417E0,2.870218515E0,1.221541762E0
7.985710633E1,-1.609582454E-1,-6.632274389E-1,1.464811683E0
7.990790586E1,1.067608237E0,1.827807665E0,-6.517740488E-1
7.995870628E1,2.376348495E0,-6.384881139E-1,2.657185495E-2
8.000950748E1,3.932329178E0,1.433353066E0,-2.008618593E0
8.006030784E1,2.085585356E0,3.491908312E0,-6.606465816E0
8.011110738E1,4.087331772E0,-3.131814003E0,-2.493631124E0
8.016190784E1,5.683933496E-1,1.627907991E0,-2.747285664E-1
8.021270899E1,-1.300646544E0,1.960514307E0,7.689039707E-1
8.026350935E1,-1.736486077E0,-2.228065431E-1,1.617981672E0
8.031430888E1,-1.314848781E0,9.597937465E-1,2.217070103E0
8.036510930E1,2.416969776E0,7.162184268E-2,-4.065188468E-1
8.041591045E1,1.538877010E0,-2.997274876E0,-1.870414257E0
8.046671081E1,-6.103891134E-1,-4.753460884E0,-1.582094431E0
8.051751034E1,-9.617789984E-1,-4.667789459E0,4.558600426E0
8.056831076E1,-6.720694065E0,3.211682081E0,5.786098003E0
8.061911191E1,9.697200358E-2,-6.853706241E-1,9.217684865E-1
8.066991227E1,-1.341878772E0,-6.529957056E-1,1.732210159E0
8.072071180E1,2.994678617E-1,8.142594099E-1,3.440597057E-1
8.077151222E1,9.029849768E-1,6.783458591E-1,-4.245388508E-1
8.082231336E1,3.547648191E0,-3.303156495E-1,-3.710896969E-1
8.087311373E1,4.332892418E0,1.244906664E0,-2.414068460E0
8.092391326E1,1.753589749E0,2.505542755E0,-6.751083851E0
8.097471368E1,2.881061077E0,-2.861361265E0,-2.547233105E0
8.102551482E1,-8.852704167E-1,1.841551781E0,-1.359135211E-1
8.107631514E1,-1.865527511E0,3.220997572E0,1.269340634E0
8.112711467E1,-1.212684512E0,7.040014863E-2,1.988460541E0
8.117791508E1,-7.232431769E-1,-2.060082406E-1,1.471225619E0
8.122871623E1,1.706707239E0,3.367906332E0,-1.200620294E0
8.127951654E1,1.524063945E0,-3.763735294E0,-1.412584305E0
8.133031607E1,2.400629669E-1,-7.345591068E0,-1.545443535E0
8.138111649E1,-1.195428133E0,-2.040077209E0,5.256646156E0
8.143191764E1,-8.375632286E0,2.586174488E0,5.329642296E0
8.148271795E1,9.014578462E-1,-3.402877331E0,4.355340898E-1
8.153351748E1,-1.877591729E0,1.430146098E0,1.765195847E0
8.158431790E1,9.275715351E-1,5.943543911E-1,7.459971905E-1
8.163511899E1,3.932329118E-1,1.225970507E0,2.041756958E-1
8.168591935E1,2.638860226E0,-5.314370990E-2,1.724116355E-1
8.173671883E1,4.395351410E0,6.911736727E-1,-3.111350536E0
8.178751925E1,2.298923731E0,1.975021958E0,-6.420615673E0
8.183832040E1,3.020181656E0,-1.512915969E0,-1.789018869E0
8.188912071E1,-4.869979918E-1,2.866553545E0,1.420219894E-2
8.193992019E1,-1.459772229E0,2.016101360E0,7.889092565E-1
8.199072060E1,-1.634627223E0,9.914051294E-1,1.252084136E0
8.204152175E1,-1.139077425E0,-5.375456065E-2,3.092414141E-1
8.209232206E1,3.484272718E0,4.686267376E0,-2.026180267E0
8.214312154E1,1.466033421E-2,-7.065975666E0,-2.113837004E0
8.219392196E1,1.869345307E0,-6.045402527E0,5.697677732E-1
8.224472310E1,-2.221651554E0,-2.490118742E0,5.570621490E0
8.229552342E1,-6.645712852E0,-5.215108395E-1,5.952095509E0
8.234632290E1,5.005893111E-1,-1.243226886E0,1.947075576E-1
8.239712331E1,-2.189734697E0,2.272351742E0,1.710525036E0
8.244792441E1,4.599680007E-1,1.786117435E0,4.062134326E-1
8.249872477E1,1.900498509E0,-5.018110275E-1,-7.456917763E-1
8.254952425E1,3.757016182E0,1.061194420E0,-1.140299082E0
8.260032462E1,3.228022337E0,1.204743505E0,-4.108253002E0
8.265112571E1,2.758891582E0,2.666806459E0,-5.364460468E0
8.270192607E1,2.223178625E0,-9.358180165E-1,-1.983573794E0
8.275272555E1,-1.468629479E0,3.426547766E0,1.354553849E-1
8.280352592E1,-1.941272616E0,2.341682911E0,1.436407328E0
8.285432706E1,-1.694184899E0,2.695363462E-1,2.471640825E0
8.290512738E1,-3.909422457E-1,-3.268032894E-2,1.221541762E0
8.295592685E1,4.156815529E0,-7.143858671E-1,-1.903552771E0
8.300672722E1,6.788040400E-1,-6.179178238E0,-2.239671469E0
8.305752837E1,2.619007528E-1,-6.823774815E0,3.136089802E0
8.310832868E1,-5.327504158E0,3.240697384E0,5.746240139E0
8.315912816E1,-3.086000443E0,-2.879381180E0,3.500765562E0
8.320992852E1,-1.751604557E0,9.651386738E-1,1.237882018E0
8.326072967E1,-1.449387789E0,2.504473627E-1,1.789018869E0
8.331152998E1,1.200773001E0,2.761793137E0,-3.968980014E-1
8.336232946E1,1.978839636E0,-1.517191887E0,-2.082989216E-1
8.341312982E1,4.275472641E0,2.554105043E0,-3.617742956E-1
8.346393092E1,2.755990028E0,4.040754735E-1,-5.844739437E0
8.351473123E1,3.759612083E0,-1.386623263E0,-4.800801277E0
8.356553071E1,1.204896197E-1,1.520856977E0,-1.196344376E0
8.361633112E1,-1.735264301E0,4.659389973E0,5.974085927E-1
8.366713222E1,-1.207645059E0,1.497950196E0,1.485885978E0
8.371793253E1,-1.703958392E0,-3.793361485E-1,1.490620017E0
8.376873201E1,1.131747246E0,1.081963181E0,-1.220167398E0
8.381953238E1,3.165715933E0,6.016845703E-1,-1.142131686E0
8.387033347E1,1.493826985E0,-6.367319107E0,-1.509403586E0
8.392113373E1,-1.950129867E0,-6.920594215E0,4.973670959E0
8.397193331E1,-4.666414738E0,3.132882833E0,5.997603893E0
8.402273368E1,-2.256164312E0,-5.407678127E0,2.588312626E0
8.407353477E1,-1.662726283E0,2.032136202E0,5.790832043E-1
8.412433514E1,-7.644753456E-1,7.287407517E-1,1.818645000E0
8.417513462E1,2.472709656E0,1.150530815E0,-8.675557971E-1
8.422593498E1,2.173852682E0,-1.887670755E0,-2.693836391E-1
8.427673612E1,3.457242727E0,2.570445299E0,-3.964398801E-1
8.432753649E1,2.090930223E0,1.180767775E0,-6.659456730E0
8.437833597E1,3.298117161E0,-3.431434393E0,-4.488963604E0
8.442913638E1,-5.647283196E-1,2.552119732E0,-4.324798584E-1
8.447993753E1,-1.842468023E0,4.923123360E0,1.002858520E0
8.453073790E1,-1.435491085E0,2.675969124E0,1.862473249E0
8.458153743E1,-1.376086116E0,1.524980187E0,7.098045349E-1
8.463233784E1,1.056002140E0,-2.832804024E-1,-1.855143070E0
8.468313899E1,2.293120623E0,1.339282632E0,-1.301715493E0
8.473393935E1,4.404208660E-1,-4.386646748E0,-1.725643516E0
8.478473894E1,-1.058598280E0,-7.844347954E0,3.712271452E0
8.483553935E1,-5.066367149E0,1.761378050E0,5.426003456E0
8.488634055E1,-2.587243557E0,-3.782366276E0,3.297811747E0
8.493714086E1,-2.234632015E0,7.973083854E-1,7.516475320E-1
8.498794050E1,-4.743228853E-1,7.120952010E-1,1.892710209E0
8.503874097E1,1.042410851E0,2.654894829E0,-1.345391124E-1
8.508954217E1,2.838301897E0,-2.151709557E0,-2.411319613E-1
8.514034258E1,4.273181915E0,1.167329073E0,-1.753437042E0
8.519114217E1,2.627864838E0,2.408876181E0,-7.035585880E0
8.524194264E1,3.537721872E0,-2.543720722E0,-3.197785378E0
8.529274389E1,-1.728697717E-1,2.532878160E0,-8.791618943E-1
8.534354430E1,-1.613858461E0,3.845436096E0,7.488987446E-1
8.539434389E1,-1.859113574E0,7.695148587E-1,1.982657433E0
8.544514441E1,-1.742441773E0,-6.190937161E-1,7.168292403E-1
8.549594566E1,2.272962570E0,6.110916138E0,-1.930888176E0
8.554674612E1,2.492104053E0,-5.648809910E0,-1.210241079E0
8.559754571E1,1.885990947E-1,-4.562876225E0,-2.075964451E0
8.564834628E1,-1.727781415E0,-5.818472862E0,5.879251957E0
8.569914753E1,-7.042458057E0,6.261184216E-1,5.982180119E0
8.574994800E1,3.246653080E-1,-3.507484913E0,5.799994469E-1
8.580074764E1,-2.619923830E0,2.478818178E0,1.388608575E0
8.585154821E1,5.829010010E-1,9.510892034E-1,5.344913341E-3
8.590234946E1,2.157054424E0,-1.036149621E0,-1.053864241E0
8.595314998E1,3.600944519E0,2.010909081E0,-7.844805717E-1
8.600394962E1,2.323052168E0,1.506654739E0,-3.328964949E0
8.605475019E1,3.307126999E0,2.061914921E0,-4.476288795E0
8.610555149E1,2.856474400E0,-1.641346574E0,-2.397881031E0
8.615635201E1,-1.727170587E0,3.447469234E0,6.285618544E-1
8.620715170E1,-1.806428075E0,1.759698272E0,1.189014196E0
8.625795227E1,-1.958070874E0,-1.214364409E0,1.318208337E0
8.630875363E1,-1.115865231E0,3.536805511E-1,-2.681619525E-1
8.635955415E1,2.129260778E0,6.649683475E0,-1.663031697E0
8.641035388E1,2.380319118E0,-7.572978973E0,-1.377002478E0
8.646115446E1,9.243646264E-1,-5.323228359E0,1.290872931E0
8.651195581E1,-3.242071867E0,3.516952991E-1,5.974086285E0
8.656275638E1,-6.229420185E0,-4.764608383E0,4.168726921E0
8.661355612E1,-1.074938416E0,-3.901786804E-1,9.468132257E-2
8.666435675E1,-9.297095537E-1,1.004538298E0,8.657232523E-1
8.671515810E1,4.940227270E-1,1.966775417E0,-3.272614181E-1
8.676595868E1,2.645274162E0,-3.165715933E-1,-6.245913506E-1
8.681675842E1,4.503166199E0,1.602710485E0,-1.044854283E0
8.686755909E1,1.927833915E0,1.732820988E0,-5.954997063E0
8.691836045E1,4.694361210E0,-1.575833201E0,-3.673330069E0
8.696916107E1,1.327829242E0,-7.449282408E-1,-8.197570443E-1
8.701996081E1,-1.764585018E0,2.227454424E0,1.613094926E0
8.707076149E1,-1.397160411E0,3.750602305E-1,1.731904745E0
8.712156290E1,-1.617676258E0,-9.590302110E-1,1.910424829E0
8.717236347E1,2.953446507E-1,2.236006498E0,-6.986565590E-1
8.722316326E1,2.441251040E0,-1.444653749E0,-1.752368093E0
8.727396394E1,5.300627351E-1,-5.979736328E0,-2.891292810E0
8.732476534E1,9.823951125E-1,-5.652627945E0,4.205683231E0
8.737556602E1,-2.930387020E0,3.098828077E0,5.252828121E0
8.742636581E1,-3.621102571E0,-7.452489376E0,3.905604601E0
8.747716649E1,-4.213318825E-1,1.002247691E0,-2.605263591E-1
8.752796795E1,-1.105175376E0,3.443651497E-1,5.842754245E-1
8.757876857E1,1.403574347E0,2.547385693E0,-3.955236077E-1
8.762956842E1,2.942604065E0,-1.572473526E0,-2.571666837E-1
8.768036915E1,4.160327911E0,2.861819267E-1,-2.268533945E0
8.773117060E1,2.039924383E0,1.582094431E0,-8.441603661E0
8.778197128E1,2.961234808E0,-2.084668875E0,-3.106616497E0
8.783277113E1,-2.814478874E-1,3.480607748E0,-2.855710872E-2
8.788357185E1,-1.567586780E0,4.633582115E0,1.829182148E0
8.793437331E1,-1.599350810E0,6.229115129E-1,1.280183196E0
8.798517399E1,-2.135827541E0,-3.134868145E0,8.116632700E-1
8.803597383E1,2.275406122E0,2.378180981E0,-1.180309653E0
8.808677462E1,8.797727823E-1,-4.140933514E0,-5.241069198E-1
8.813757607E1,1.184127450E0,-6.540799618E0,-1.016755223E0
8.818837680E1,-2.336490750E-1,-1.929361105E0,4.869979858E0
8.823917670E1,-5.251148224E0,3.809854269E0,4.538595200E0
8.828997748E1,-1.970898628E0,-1.089843178E1,2.355274200E0
8.834077894E1,-1.801235914E0,3.920875788E0,3.816268146E-1
8.839157967E1,-5.871769190E-1,-8.632798791E-1,2.677038014E-1
8.844237956E1,1.306754947E0,2.316027403E0,-1.416249394E0
8.849318034E1,2.824099541E0,-4.219427407E-1,-1.426939249E0
8.854398191E1,3.785420418E0,-7.835643291E-1,-4.744297981E0
8.859478264E1,3.359659910E0,2.968412161E0,-6.025855541E0
8.864558253E1,3.410360336E0,1.540862173E-1,-2.175837994E0
8.869638336E1,2.777827978E-1,5.133865833E0,1.786728203E-2
8.874718493E1,-5.248705149E-1,3.523519754E0,2.122694254E0
8.879798566E1,-9.460496902E-1,2.878006935E0,2.466448545E0
8.884878560E1,7.773031294E-2,-5.677519798E0,-1.700140595E0
8.889958644E1,-4.984513521E-1,-4.850585461E0,-2.786074400E0
8.895038800E1,2.035037756E0,-7.678502560E0,1.070204377E0
8.900118878E1,-6.826218367E-1,-4.539206028E0,5.140127182E0
8.905198873E1,-7.503189564E0,3.795193911E0,5.286730289E0
8.910278956E1,2.727433145E-1,-7.270762444E0,1.533226609E0
8.915359112E1,-1.171299577E0,8.727480173E-1,9.112313986E-1
8.920439196E1,6.960604787E-1,6.562026739E-1,-1.221694518E-2
8.925519191E1,2.293578863E0,8.139539510E-2,-8.423583508E-1
8.930599274E1,4.519505978E0,-1.606375575E0,-8.583931327E-1
8.935679435E1,3.749380589E0,1.553995371E0,-4.848905563E0
8.940759519E1,3.748616934E0,1.897902489E0,-5.007420540E0
8.945839514E1,2.532419920E0,1.012479365E-1,-1.045006990E0
8.950919602E1,-1.457176089E0,4.126425743E0,8.600729704E-1
8.955999764E1,-1.887212634E0,1.672805190E0,1.304922462E0
8.961079847E1,-2.180266619E0,1.077839971E0,9.138274789E-1
8.966159847E1,1.070967913E0,4.098785222E-1,-9.243646264E-1
8.971239935E1,2.165911674E0,-2.772635698E0,-1.889655948E0
8.976320097E1,8.674030900E-1,-1.785201073E0,-1.281862974E0
8.981400180E1,-1.170077920E0,-2.830666304E0,4.309985638E0
8.986480185E1,-1.025475121E1,2.204853296E0,3.505347013E0
8.991560274E1,-2.988570333E-1,-4.765524864E0,1.032484531E0
8.996640441E1,-2.725753069E0,1.757865667E0,1.775274873E0
9.001720524E1,1.805664539E0,1.101052165E0,1.849340051E-1
9.006800524E1,7.043069005E-1,8.991671801E-1,3.216110766E-1
9.011880618E1,2.731861591E0,-1.376086116E0,-1.517955512E-1
9.016960784E1,3.876894951E0,-6.108472347E-1,-3.419828415E0
9.022040873E1,2.956653357E0,7.959339619E-1,-7.154090405E0
9.027120873E1,1.926764965E0,-1.144422293E0,-1.829792976E0
9.032200967E1,-9.797990322E-1,3.963787794E0,5.790832043E-1
9.037281133E1,-1.713273883E0,1.521620512E0,1.545138121E0
9.042361222E1,-1.361731291E0,-3.972034156E-1,2.000983000E0
9.047441227E1,6.186355352E-1,-1.722283840E0,4.340069890E-1
9.052521321E1,3.225731611E0,3.129065037E-1,-1.926459551E0
9.057601493E1,-6.520794630E-1,-5.726234913E0,-2.175685167E0
9.062681581E1,5.650337040E-2,-6.267751217E0,3.682645321E0
9.067761586E1,-5.041933060E0,4.727041721E0,6.018067360E0
9.072841685E1,-2.073368311E0,-4.229811668E0,2.950392246E0
9.077921852E1,-1.986017108E0,8.947384953E-1,5.882459283E-1
9.083001946E1,-2.498365343E-1,4.515688419E-1,1.132205367E0
9.088081951E1,1.331799746E0,8.710681796E-1,-6.824691296E-1
9.093162050E1,2.976658583E0,-8.616000414E-1,-3.323009014E-1
9.098242217E1,4.237142086E0,2.015490532E0,-7.256865501E-1
9.103322310E1,2.534863472E0,4.854708612E-1,-6.548435211E0
9.108402321E1,3.412650824E0,-1.178629756E0,-4.722002029E0
9.113482420E1,2.577775419E-1,2.394521236E-1,-1.189472318E0
9.118562592E1,-2.199355602E0,3.452966928E0,1.068066478E0
9.123642685E1,-1.847507477E0,1.118155956E0,2.159497738E0
9.128722696E1,-1.639819503E0,-3.843756318E-1,1.952420592E0
9.133802795E1,2.563420534E0,3.926831722E0,-1.166107416E0
9.138882967E1,1.902331114E0,-4.548521519E0,-1.195275426E0
9.143963060E1,-5.879405141E-1,-5.617351532E0,-2.306406498E0
9.149043076E1,2.104368806E-1,-3.343625069E0,5.256493568E0
9.154123175E1,-8.878817558E0,3.957221270E0,5.541759014E0
9.159203352E1,1.006829023E0,-6.212927341E0,9.261971712E-1
9.164283446E1,-2.762403965E0,3.150139332E0,1.346612811E0
9.169363462E1,6.762079000E-1,3.723114133E-1,7.740961909E-1
9.174443560E1,1.718618751E0,1.934400558E0,-8.506047726E-2
9.179523738E1,3.264062405E0,-2.270061016E0,-1.191152167E-2
9.184603837E1,4.147653103E0,6.867450476E-1,-2.706511497E0
9.189683847E1,2.140561581E0,2.491798639E0,-7.186007023E0
9.194763951E1,2.897248507E0,-3.175336838E0,-2.876021624E0
9.199844128E1,-1.461299300E0,2.640081882E0,-8.994726092E-2
9.204924227E1,-1.939287305E0,3.222982883E0,1.400214672E0
9.210004243E1,-1.659977436E0,1.527118087E-1,2.062983990E0
9.215084347E1,-1.434574842E0,2.560977042E-1,9.955283403E-1
9.220164529E1,3.574372768E0,5.511674881E0,-1.634627223E0
9.225244628E1,1.978076100E0,-8.313783646E0,-1.290567517E0
9.230324644E1,1.861557066E-1,-5.495029449E0,1.262621284E0
9.235404748E1,-3.166479588E0,3.191829681E0,5.325366497E0
9.240484930E1,-6.046013355E0,-1.946006656E0,4.073129654E0
9.245565029E1,-1.428771734E0,-9.546015263E-1,2.803788781E-1
9.250645050E1,-1.399298310E0,1.070662498E0,1.484511495E0
9.255725154E1,7.453863621E-1,2.227301836E0,-2.542651594E-1
9.260805336E1,1.997928619E0,-9.303203821E-1,-4.118637741E-1
9.265885441E1,3.791070700E0,3.457548141E0,-8.715263009E-1
9.270965456E1,2.369323730E0,8.067765236E-1,-5.919720650E0
9.276045566E1,4.126425743E0,-1.196802497E0,-4.283108234E0
9.281125748E1,8.593093753E-1,1.331188917E0,-8.394568563E-1
9.286205852E1,-1.586523056E0,2.621756554E0,8.225058317E-1
9.291285873E1,-1.629129648E0,6.481089592E-1,1.508792758E0
9.296365982E1,-2.153542042E0,-7.488987446E-1,1.902483821E0
9.301446165E1,2.165300846E0,3.474193811E0,-4.463766217E-1
9.306526269E1,1.569419265E0,-3.677605867E0,-1.183363795E0
9.311606290E1,5.685460567E-1,-6.056550503E0,-2.665584803E0
9.316686404E1,3.306210935E-1,-3.900259733E0,5.290853500E0
9.321766586E1,-8.130376816E0,4.796678066E0,5.372401714E0
9.326846691E1,4.685198367E-1,-6.693969727E0,1.636001706E0
9.331926717E1,-2.456064224E0,2.430866718E0,1.048213840E0
9.337006826E1,5.812211633E-1,4.990622103E-1,9.323056340E-1
9.342087014E1,1.292247415E0,1.945243120E0,-1.780619770E-1
9.347167118E1,3.062482834E0,-1.298203111E0,6.872031838E-3
9.352247144E1,4.519659042E0,3.487937748E-1,-2.710023880E0
9.357327258E1,2.125595808E0,2.906258583E0,-7.480741024E0
9.362407446E1,2.870829344E0,-2.690324068E0,-2.305948496E0
9.367487555E1,-9.717052579E-1,2.780576706E0,2.786990702E-1
9.372567576E1,-1.862473249E0,3.574830770E0,1.220625520E0
9.377647691E1,-1.889197826E0,3.651339412E-1,1.526965380E0
9.382727878E1,-1.788713455E0,4.610369802E-1,8.800781965E-1
9.387807988E1,3.320260286E0,3.880254507E0,-1.746564984E0
9.392888019E1,1.755575061E0,-7.142025948E0,-1.696017385E0
9.397968133E1,1.052184463E0,-7.064448357E0,9.445225596E-1
9.403048321E1,-2.553799629E0,1.159082651E0,5.737230301E0
9.408128430E1,-6.845612526E0,-2.040077209E0,5.199837208E0
9.413208462E1,-4.624113739E-1,-1.913478971E-1,1.481304597E-2
9.418288576E1,-1.484817028E0,1.633100152E0,1.407086611E0
9.423368764E1,1.254985690E0,2.411624908E0,-5.757235289E-1
9.428448878E1,2.469197273E0,-2.131704330E0,-1.021489382E0
9.433528904E1,3.937826872E0,2.746369362E0,-1.342336893E0
9.438609024E1,1.771915197E0,2.678259850E0,-5.406914711E0
9.443689212E1,3.572387457E0,-9.689564705E-1,-3.700665474E0
9.448769326E1,7.461498976E-1,4.895940721E-1,-8.971819282E-1
9.453849352E1,-2.145601034E0,2.752783060E0,9.764393568E-1
9.458929472E1,-2.071535826E0,-7.959339619E-1,1.419609070E0
9.464009659E1,-1.517191887E0,-1.123195410E0,2.565253019E0
9.469089774E1,2.855710983E0,4.858068466E0,-1.120904684E-1
9.474169800E1,2.378486633E0,-5.684086323E0,-1.520398855E0
9.479249920E1,7.188144922E-1,-1.386623263E0,-2.563115120E0
9.484330113E1,-2.763320208E0,-1.109298587E0,4.963897705E0
9.489410222E1,-1.033920097E1,1.327676535E0,3.620949745E0
9.494490253E1,-2.183778882E-1,-4.294561863E0,4.317162931E-1
9.499570368E1,-1.864763975E0,4.010212123E-1,1.603626728E0
9.504650560E1,1.548803210E0,7.757759839E-2,4.138490260E-1
9.509730670E1,8.829796910E-1,-1.655396074E-1,-1.650814712E-1
9.514810701E1,3.103714943E0,-3.665083647E-2,-5.344913341E-3
9.519890816E1,3.597126722E0,1.787339091E0,-2.005411625E0
9.524971008E1,2.307780981E0,6.478188038E0,-5.506482601E0
9.530051118E1,3.667374134E0,-2.229134321E0,-1.881409526E0
9.535131149E1,3.771981895E-1,9.402466416E-1,-6.108472496E-2
9.540211264E1,-1.334548593E0,1.245212078E0,8.806890249E-1
9.545291456E1,-1.430298805E0,5.031854510E-1,1.820783019E0
9.550371566E1,-4.986040890E-1,5.966450572E-1,1.386317849E0
9.555451592E1,4.055567741E0,-3.044462681E0,-1.788408041E0
9.560531712E1,-2.217375487E-1,-3.752129316E0,-2.062067747E0
9.565611899E1,2.406738251E-1,-5.467693806E0,2.923056841E0
9.570692014E1,-5.786708832E0,2.090013981E0,5.496556282E0
9.575772040E1,-2.410403252E0,-2.522646427E0,3.156553268E0
9.580852154E1,-2.679481506E0,2.983988822E-1,5.282301903E-1
9.585932347E1,-4.399627447E-1,1.234216928E0,1.075702071E0
9.591012456E1,1.989376783E0,1.328440070E0,-2.513636351E-1
9.596092482E1,3.120971441E0,-2.198897362E0,-4.185830951E-1
9.601172597E1,4.314872265E0,3.322856426E0,-1.397465825E0
9.606252784E1,2.276016951E0,1.059972763E0,-6.584628105E0
9.611332899E1,3.216263533E0,-2.766527176E0,-3.831233978E0
9.616412925E1,-1.385554314E0,3.080197334E0,-1.653869003E-1
9.621493040E1,-2.305948496E0,3.749533176E0,1.178018928E0
9.626573227E1,-2.069245100E0,-5.906893015E-1,1.664406061E0
9.631653337E1,-1.613094926E0,-8.122741580E-1,1.491536260E0
9.636733362E1,2.541735411E0,8.769018173E0,-1.984490037E0
9.641813477E1,2.161177635E0,-7.805100918E0,-1.043021679E0
9.646893665E1,1.860029936E0,-4.146736622E0,-1.946312070E0
9.651973774E1,-2.314652920E0,-2.217070103E0,6.326086998E0
9.657053800E1,-9.168970108E0,-8.551861346E-2,4.766288280E0
9.662133915E1,1.801999472E-2,-2.222109556E0,2.767138183E-1
9.667214102E1,-2.743773222E0,2.470418930E0,2.313584089E0
9.672294206E1,2.055653811E0,-2.266243398E-1,-2.848075330E-1
9.677374232E1,1.208408594E0,-9.440644383E-1,-5.974085927E-1
9.682454347E1,3.233367205E0,1.050809979E0,-4.023956358E-1
9.687534529E1,2.726211309E0,2.867011547E0,-1.951351523E0
9.692614639E1,3.151819229E0,2.318470716E0,-6.420462608E0
9.697694665E1,3.238101244E0,-2.984141588E0,-2.784547329E0
9.702774779E1,-1.448318839E0,3.234436274E0,1.667613089E-1
9.707854962E1,-1.463131905E0,1.460535765E0,1.207645059E0
9.712935071E1,-1.716480851E0,-1.211462855E0,1.660588264E0
9.718015092E1,-8.121214509E-1,-6.398624927E-2,1.432436854E-1
9.723095206E1,2.189429283E0,4.457352638E0,-1.883852959E0
9.728175388E1,2.431172132E0,-7.911693573E0,-2.569834471E0
9.733255498E1,6.103891134E-1,-7.421488762E0,3.080044508E0
9.738335519E1,-1.905079842E0,2.713688850E0,6.159173012E0
9.743415633E1,-4.951222420E0,-2.503404856E0,5.431500912E0
9.748495816E1,-1.139993668E0,-2.764083818E-2,-4.230117425E-2
9.753575925E1,-1.408002973E-1,1.028972149E0,7.130114436E-1
9.758655946E1,1.341267824E0,1.071426034E0,-4.062134326E-1
9.763736055E1,3.213514805E0,1.464506239E-1,-8.014315963E-1
9.768816238E1,4.138031960E0,2.403531313E0,-1.802304864E0
9.773896347E1,1.975632787E0,1.191457629E0,-6.935559750E0
9.778976368E1,2.918628216E0,-2.416053534E0,-3.818253517E0
9.784056477E1,-1.540862203E0,3.382414103E0,3.542914242E-2
9.789136659E1,-2.232646704E0,4.290132999E0,1.761988878E0
9.794216764E1,-2.263036489E0,1.562241912E-1,1.420372605E0
9.799296784E1,-1.886449099E0,-9.345962852E-2,2.394521236E-1
9.804376894E1,2.601598501E0,7.300693512E0,-1.915158868E0
9.809457081E1,2.056264639E0,-8.441756248E0,-1.724879980E0
9.814537185E1,1.400214672E0,-6.501247406E0,9.379559755E-1
9.819617206E1,-1.811772943E0,2.347027779E0,5.774033546E0
9.824697316E1,-1.013395596E1,-2.532267332E0,4.200033188E0
9.829777498E1,9.665130973E-1,-1.510625243E0,6.459710002E-2
9.834857602E1,-1.431367874E0,1.584232330E0,1.207492352E0
9.839937618E1,1.725032687E0,2.165911674E0,-4.920374751E-1
9.845017727E1,1.984490037E0,-1.618439794E0,-4.081986845E-1
9.850097909E1,4.015709877E0,1.772373319E0,-1.868581772E0
9.855178014E1,2.042062283E0,2.111851692E0,-7.384379864E0
9.860258034E1,3.456021070E0,-2.877396107E0,-3.472666740E0
9.865338138E1,-6.357392669E-1,3.909575224E0,-2.473931462E-1
9.870418321E1,-1.710066915E0,3.895525694E0,9.909469485E-1
9.875498425E1,-1.425412059E0,3.269560039E-1,1.518413544E0
9.880578441E1,-1.376086116E0,-2.765000105E0,1.119377613E0
9.885658550E1,3.101882458E0,6.112596035E0,-1.390899181E0
9.890738732E1,1.304311633E0,-8.698923111E0,-1.276823521E0
9.895818831E1,2.086654186E0,-8.798491478E0,3.402419090E-1
9.900898852E1,1.641651988E-1,4.532486796E-1,7.357960701E0
9.905978962E1,-8.215131760E0,-2.318928957E0,5.762580395E0
9.911059138E1,7.970029712E-1,-3.492519259E-1,-2.170034945E-1
9.916139243E1,-2.219666243E0,2.422467470E0,6.748335361E-1
9.921219258E1,7.783721089E-1,2.329924107E0,-4.550812021E-2
9.926299368E1,2.872661829E0,-6.103891134E-1,-4.741701782E-1
9.931379545E1,4.092676640E0,1.221541762E0,-1.150988936E0
9.936459649E1,2.748049021E0,7.915053368E-1,-5.618114948E0
9.941539665E1,3.245126009E0,2.218902707E-1,-5.234502792E0
9.946619769E1,6.500942111E-1,-1.652341783E-1,-1.567281365E0
9.951699951E1,-2.411014080E0,3.676537037E0,1.173590302E0
9.956780050E1,-1.852852464E0,1.019045949E0,2.601140261E0
9.961860066E1,-1.330119848E0,-9.765920639E-1,2.141477823E0
9.966940170E1,1.375475287E0,1.510625243E0,-9.052756429E-1
9.972020352E1,1.917907715E0,-2.870981991E-1,-1.061499834E0
9.977100451E1,1.241241574E0,-6.649072647E0,-2.268839359E0
9.982180467E1,3.214583695E-1,-4.765677452E0,4.118179321E0
9.987260576E1,-8.617985725E0,5.609257698E0,5.512133121E0
9.992340753E1,-1.730072141E0,-5.062549591E0,2.188360214E0
9.997420852E1,-1.823226333E0,1.344322085E0,6.261184216E-1
1.000250087E2,1.284306407E0,9.607100487E-1,-2.670929730E-1
1.000758097E2,2.092304468E0,9.926267713E-2,-7.455390692E-1
1.001266115E2,3.793819666E0,-9.791881442E-1,-9.330692142E-2
1.001774125E2,3.122956514E0,1.530935884E0,-2.535016060E0
1.002282126E2,2.735373974E0,2.184084415E0,-6.818124294E0
1.002790137E2,2.305948496E0,-2.512872934E0,-2.472251654E0
1.003298154E2,-1.874843001E0,4.467278481E0,6.638382673E-1
1.003806164E2,-1.822004676E0,1.861709714E0,1.656006932E0
1.004314166E2,-1.873468518E0,-2.000677586E0,2.093678951E0
1.004822176E2,5.859552622E-1,1.256665468E0,3.275668323E-1
1.005330194E2,2.663752079E0,1.942494273E0,-1.443126678E0
1.005838204E2,1.413347840E0,-6.927618980E0,-1.803679228E0
1.006346205E2,6.287145615E-1,-1.752673507E0,3.330186605E0
1.006854215E2,-8.227807045E0,2.961234808E0,4.331670761E0
1.007362233E2,-2.815242290E0,-4.446051598E0,2.291746140E0
1.007870243E2,-2.149724245E0,3.836120665E-1,7.498149872E-1
1.008378245E2,1.057376623E0,8.887827396E-1,6.983511448E-1
1.008886254E2,1.199704051E0,1.837275863E0,-3.054236295E-4
1.009394272E2,2.471793413E0,-1.117086887E0,5.696150661E-2
1.009902282E2,3.725099325E0,2.480192661E0,-2.963067293E0
1.010410283E2,2.378028393E0,1.619203329E0,-6.978319168E0
1.010918294E2,2.628933907E0,-2.044963837E0,-2.384442329E0
1.011426311E2,-1.205507040E0,3.497406006E0,3.254288733E-1
1.011934321E2,-1.799250603E0,1.570641041E0,1.042258143E0
1.012442322E2,-1.975021958E0,-2.046185493E0,1.586523056E0
1.012950332E2,4.169032723E-2,1.213295341E0,5.441122055E-1
1.013458350E2,3.003841400E0,2.213710546E0,-1.088835239E0
1.013966359E2,1.058598280E0,-8.597370148E0,-2.416969776E0
1.014474361E2,1.385859728E0,-3.912323952E0,3.509928465E0
1.014982371E2,-3.204351902E0,3.448843718E0,4.746893883E0
1.015490388E2,-8.334247589E0,-7.269693375E0,4.178653240E0
1.015998398E2,9.112313986E-1,-1.237118363E0,4.475983381E-1
1.016506399E2,-1.058292866E0,2.073215485E0,1.332105160E0
1.017014409E2,1.622715712E0,2.882740974E0,-5.957288146E-1
1.017522426E2,3.410818338E0,-2.104063272E0,-8.991671801E-1
1.018030436E2,3.993261337E0,-1.100441337E0,-2.484773874E0
1.018538437E2,2.462783337E0,3.699749231E0,-8.166569710E0
1.019046447E2,2.950697660E0,-2.372836113E0,-2.327480793E0
1.019554464E2,-6.041279435E-1,3.187859058E0,-1.285833418E-1
1.020062474E2,-1.434269309E0,1.820172071E0,1.234980464E0
1.020570475E2,-1.030346632E0,-1.269646049E0,2.093068123E0
1.021078485E2,-4.445441067E-1,-6.820109487E-1,1.578123927E0
1.021586502E2,2.860445023E0,3.639427900E0,-1.199245930E0
1.022094512E2,1.332563281E0,-7.269387722E0,-7.678350210E-1
1.022602513E2,1.388150454E-1,-4.677562714E0,-2.961082160E-1
1.023110523E2,-2.670471430E0,-1.667918444E0,6.025855541E0
1.023618540E2,-4.675271988E0,1.338366389E0,5.281690598E0
1.024126550E2,-1.456717968E0,-1.527881742E0,1.681357026E-1
1.024634551E2,-1.524369359E0,2.940618753E0,1.172521353E0
1.025142561E2,1.064554095E0,2.392841339E0,2.214321308E-2
1.025650578E2,2.882282734E0,-4.040754735E-1,-5.115845799E-2
1.026158587E2,4.395351410E0,3.564293683E-1,2.116585821E-1
1.026666588E2,2.784852743E0,2.358175755E0,-3.077448606E0
1.027174598E2,3.206337214E0,7.056813240E-1,-5.271306515E0
1.027682615E2,1.427550077E0,-2.032899618E0,-1.552621007E0
1.028190624E2,-1.987697005E0,2.630155563E0,7.020162344E-1
1.028698625E2,-1.840635538E0,1.095401883E0,1.542236567E0
1.029206635E2,-2.073062897E0,-1.269951463E0,1.624090195E0
1.029714652E2,8.721371889E-1,2.426896095E0,-4.121691883E-1
1.030222662E2,2.098260403E0,-2.081920147E0,-1.445111871E0
1.030730662E2,2.103299856E0,-5.973017216E0,-2.429797649E0
1.031238672E2,7.276718020E-1,-4.200949192E0,2.720713615E0
1.031746689E2,-5.592612267E0,6.479714870E0,5.600094795E0
1.032254699E2,-4.670080185E0,-3.018654346E0,2.632446289E0
1.032762700E2,-1.623326540E0,-2.585411072E-1,9.706363082E-1
1.033270709E2,-9.454388618E-1,1.028055906E0,1.675554037E0
1.033778726E2,2.296327591E0,1.595533013E0,-8.860339522E-1
1.034286735E2,2.209129095E0,-1.436865449E0,-1.817270666E-1
1.034794736E2,4.092218399E0,2.062067747E0,-1.671125412E0
1.035302740E2,2.470266342E0,3.448385477E0,-6.852331638E0
1.035810757E2,4.054346085E0,-3.182667017E0,-3.774730682E0
1.036318766E2,1.899735034E-1,1.242157936E0,-5.493044257E-1
1.036826767E2,-1.904927135E0,3.393714666E0,1.096318126E0
1.037334777E2,-1.892557502E0,6.893411279E-1,2.146669865E0
1.037842794E2,-2.337712526E0,1.230704546E0,2.985668659E0
1.038350803E2,3.607969284E0,1.621799469E-1,-3.855973184E-1
1.038858803E2,1.491536260E0,-2.463394165E0,-2.253873587E0
1.039366813E2,8.228112459E-1,-2.135674715E0,-1.217571259E0
1.039874837E2,-3.532529593E0,-6.060979366E0,4.791485786E0
1.040382846E2,-6.802700520E0,8.528954983E-1,5.456698418E0
1.040890846E2,-5.361711979E-1,-2.379250079E-1,1.519177079E0
1.041398856E2,-1.872094154E0,1.273616552E0,1.442821264E0
1.041906873E2,5.267030597E-1,1.028208613E0,9.709417224E-1
1.042414882E2,1.429229856E0,6.688777357E-2,-6.152759194E-1
1.042922880E2,3.290634155E0,2.490729690E-1,-9.797990322E-1
1.043430890E2,3.308196068E0,8.400676847E-1,-2.813867807E0
