Time window,Time (s)_acc,Time (s)_gyro,Time (s)_mag,Time (s)_lin_acc,Time (s)_prox,Acceleration x (m/s^2),Acceleration y (m/s^2),Acceleration z (m/s^2),Gyroscope x (rad/s),Gyroscope y (rad/s),Gyroscope z (rad/s),Magnetic field x (µT),Magnetic field y (µT),Magnetic field z (µT),Linear Acceleration x (m/s^2),Linear Acceleration y (m/s^2),Linear Acceleration z (m/s^2),Distance (cm)
0.03,,0.050233960999999994,,,,,,,-0.36131614450000005,0.37139514090000003,-0.26785650850000003,,,,,,,
0.06,0.074774169,,,,,1.5975081919999998,6.884748936,7.79820919,,,,,,,,,,
0.09,,0.101033076,0.096071826,0.108557346,,,,,-0.08353336155,0.1009425074,-0.2370087355,13.55420017,-48.21439743,-25.31499863,-0.8635733128,-0.2975873947,-0.8192048073,
0.12,0.124774169,,0.146071826,,,0.35712876920000003,6.580860615,5.150251865,,,,13.79819965,-48.01919937,-25.19299889,,,,
0.15,0.17477416899999998,0.15183286699999998,,0.158557346,,0.6780661345000001,6.157031536,5.593223095,-0.3503209054,-0.9481876493000001,-0.1409530044,,,,-0.08999872207999998,-0.2463288307,-1.255064964,
0.18,,0.20263187800000002,0.196071826,0.208557346,,,,,-0.6462764143999999,-1.188097954,-0.2386885732,13.46879959,-47.84840012,-25.44919968,0.2902002335,0.31483459469999997,0.4438166618,
0.21,0.224774169,,,,,2.643769979,6.080461502,7.903493404,,,,,,,,,,
0.24,,0.253430159,0.24607182600000002,0.258557346,,,,,-0.6398624778,-0.5236487985,-0.2348707765,13.27359962,-47.44580078,-25.97379875,-0.41793131829999997,-0.4083957672,1.198934555,
0.27,0.274774169,,0.29607182600000004,,,0.8647062778,5.694917679,7.4437723160000004,,,,13.04179955,-47.03099823,-26.7057991,,,,
0.3,0.324774169,0.304229274,,0.308557346,,-0.5835496187,3.4396824839999995,9.447761536,-0.8394568563,-0.273812294,0.054823540149999996,,,,-1.372716904,-1.449603081,2.079062462,
0.32999999999999996,,0.355029117,0.346071826,0.358557346,,,,,-0.7962393761,-1.169161677,0.4104893506,12.78559971,-46.50639725,-27.42560005,-0.5735239387,-1.712581158,-0.18972969059999997,
0.36,0.374774169,,,,,1.762612939,4.940879822,7.922635555,,,,,,,,,,
0.39,,0.405829011,0.39607270899999997,0.408557346,0.39817682299999996,,,,-0.3341334462,-2.599766016,0.565339148,12.17560005,-45.96960068,-28.18199921,1.625590324,0.3110146523,0.06327295303,5.0
0.42,0.424774169,,0.446072709,,,4.9683971410000005,6.137889385,7.651947497999999,,,,11.15079975,-45.40839767,-28.76759911,,,,
0.44999999999999996,0.47477416899999997,0.456627344,,0.45855734600000003,,5.114359379,5.726024627999999,8.571390152000001,0.173480615,-0.7693621516,-0.2719797492,,,,0.9749035835,2.195037842,0.16464900970000002,
0.48,,0.5074264589999999,0.496072709,0.508557346,,,,,0.2316638231,0.4182776511,-0.4375193417,9.881999968999999,-44.61539841,-29.54839897,-0.6631157397999999,-1.795904398,0.4249696732,
0.51,0.524774169,,,,,2.8256244660000003,2.35274291,6.519544601000001,,,,,,,,,,
0.54,,0.558226354,0.5460727089999999,0.5585573460000001,,,,,-1.047450304,0.037872530519999996,-0.2183778882,8.68639946,-43.90779877,-30.37800026,-1.186651707,-3.971520185,-4.095020293999999,
0.57,0.574774169,,0.596072709,,,0.7067800164,0.14297115800000001,3.46959281,,,,7.710399627999999,-43.01720047,-31.3906002,,,,
0.6,0.6247741689999999,0.609025365,,0.608557346,,0.7881359458,-2.270190477,4.2690944669999995,-2.973757267,-0.6942279339,0.5563291311,,,,-3.580373287,-5.221341133,-4.104115486,
0.63,,0.659823698,0.646072709,0.658557346,,,,,-3.594683409,-1.18412745,1.1810731890000001,6.514800072000001,-41.56539917,-32.8667984,0.5764124393,-5.412735939,-2.6964840889999997,
0.6599999999999999,0.6747741690000001,,,,,5.001896858,-3.5676984789999997,5.375176907,,,,,,,,,,
0.69,,0.710622865,0.6960727090000001,0.708557346,,,,,-3.597584963,-1.365549088,1.3663126230000002,4.892199993,-39.16199875,-34.63579941,2.249816656,-2.162793159,0.9381895065000001,
0.72,0.724774169,,0.7460727090000001,,,5.839683533,-3.064906597,8.037490845,,,,2.732800007,-35.66059875,-36.57559967,,,,
0.75,0.7747741690000001,0.761422761,,0.7585573459999999,,9.957731247,-3.397808075,8.173882484,-3.349122763,-1.526507258,2.118571043,,,,2.9330606460000004,-1.185655117,0.3517842293,
0.78,,,0.796072709,0.808557346,,,,,,,,0.329400003,-31.06119919,-38.32019806,6.913252831,0.8036651611,3.805088997,
0.8099999999999999,0.8247741690000001,0.8122217709999999,,,,12.19621658,-4.245465755,9.191430092000001,-3.182056189,-1.3382136820000001,1.707012653,,,,,,,
0.84,,0.8630201040000001,0.8460727090000001,0.8585573459999999,,,,,-3.411581993,-1.460993886,1.171604991,-2.122799873,-25.229599,-39.84519958,7.397838116,0.7293243408,4.51744175,
0.87,0.874774169,,0.896072709,,,13.0698967,-3.431307554,10.80987549,,,,-4.904399872,-18.22679901,-41.15060043,,,,
0.8999999999999999,0.9247741690000001,0.9138192190000001,,0.9085573459999999,,12.2297163,-4.396213531,10.01515961,-2.646801233,-1.1572501659999999,0.18355959649999998,,,,6.30092144,1.8005805019999999,6.2325029370000005,
0.9299999999999999,,,0.9460727090000001,0.958557346,,,,,,,,-8.234999657000001,-10.4066,-42.01679993,5.777706622999999,4.317422866999999,7.412639617999999,
0.96,0.974774169,0.964619219,,,,11.75085258,-1.5975081919999998,10.26640511,-1.404185176,-1.5260491369999998,-0.4709632397,,,,,,,
0.99,,1.015418282,0.9960727090000001,1.008557346,,,,,-0.2556395829,-2.015643358,-0.9220739603,-12.10239983,-2.4644000530000003,-41.9557991,2.67361927,2.919904709,5.694828032999999,
1.02,1.024774169,,1.0460727090000002,,,8.830113411000001,-2.7562325,8.059026718,,,,-16.18939972,4.697000027,-40.72359848,,,,
1.05,1.0747741690000001,1.066216615,,1.058557346,,5.720042706,-5.205286503,3.8671004769999997,0.033443886789999995,-1.965859175,-0.3339807391,,,,-2.067969799,1.147946358,2.509523869,
1.08,,,1.096072709,1.108557346,,,,,,,,-20.2519989,10.68719959,-38.47879791,-1.999951363,-0.5564732552,2.311381817,
1.1099999999999999,1.1247741690000002,1.117015782,,,,6.632306099,-5.846862316,3.84795785,-0.09636115283,-1.176186442,-0.5030327439,,,,,,,
1.14,,1.167815729,1.146072709,1.158557346,,,,,-0.467145443,-1.152210593,-0.6780404448999999,-23.99740028,15.28660011,-35.4776001,0.08526992798000001,-0.8147044182,1.817312002,
1.17,1.174774169,,1.196072709,,,8.449356079,-6.433403015,3.1271200180000003,,,,-27.37679863,18.51959991,-32.09819794,,,,
1.2,1.224774169,1.2186147920000001,,1.2085573459999999,,10.06301594,-3.4983067510000003,3.237488985,-0.7007945179999999,-1.057682037,-0.20096874239999998,,,,0.1103725433,-0.2942652702,0.3350791335,
1.23,,,1.2460727090000001,1.258557346,,,,,,,,-30.35359955,20.39839935,-28.4625988,3.748641014,2.169935942,2.02275753,
1.26,1.274774169,1.2694131770000001,,,,9.236893654,-5.181358337,-1.3737792969999998,0.38895699380000004,-1.609887958,-0.5013529062,,,,,,,
1.29,,,1.2960727090000002,1.308557346,,,,,,,,-33.1230011,21.03279877,-24.81480026,-1.6838626859999999,-0.1292624474,-0.4846455753,
1.3199999999999998,1.3247741690000001,1.3202123959999998,1.346072709,,,7.034300327,-4.211966038,-0.6481558084000001,-0.45263782140000003,0.2739650011,-0.08735115825999999,-35.56299973,20.8375988,-21.47200012,,,,
1.3499999999999999,1.3747741690000002,1.371012708,,1.358557346,,11.60489082,-3.840779543,-1.15094769,-0.5375455618,-0.1009425074,-0.3807105422,,,,1.3077116009999998,0.3869624138,-3.293422461,
1.38,,,1.396073125,1.408557346,1.381970364,,,,,,,-37.52719879,20.26420021,-18.71479988,-0.4435367584,3.131368399,3.06759119,0.0
1.41,1.424774169,1.421811823,,,,6.792625427000001,-3.201596737,3.7256248,0.9483403562999999,-0.6760551929,-0.4321744442,,,,,,,
1.44,,,1.446073125,1.4585573459999999,,,,,,,,-39.17419815,19.55660057,-16.31139946,-1.465954781,1.169557571,2.1109561919999997,
1.47,1.474774169,1.472610208,1.496073125,,,8.533104897000001,-3.1872396469999997,-0.26291137929999997,0.09926267712999999,0.7944068313,-0.5022691488000001,-40.24779892,18.78800011,-14.59119987,,,,
1.5,1.524774169,1.5234094269999998,,1.508557346,,8.494819641,-2.0715861319999997,-0.05443671346,-0.2658712566,0.5309789777,0.11346487699999999,,,,0.920750618,1.6356990340000002,-1.448365211,
1.53,,,1.546073125,1.558557346,,,,,,,,-41.00419998,18.16580009,-13.43219948,-2.33249855,2.488668442,0.7920058966,
1.56,1.5747741690000001,1.574209375,,,,5.250750065,-2.91655159,-0.123828575,-0.4314108789,0.7463026643,0.7073611020999999,,,,,,,
1.5899999999999999,,,1.596073125,1.608557346,,,,,,,,-41.35799789,17.81200027,-12.87099934,-3.5672903060000003,0.31252098079999996,-2.046510458,
1.6199999999999999,1.6247741690000002,1.625008489,1.646073125,,,7.553842068,-4.0154557230000005,0.0077766734180000005,-0.3184041381,0.7304205894,2.366880417,-41.29700089,18.06819916,-12.90759945,,,,
1.65,1.674774169,1.675806875,,1.658557346,,12.82582855,-8.930612564,1.733899117,0.04107947648,0.0387887992,0.7233958840000001,,,,4.190707207,-2.9699344639999996,-0.1946309209,
1.68,,,1.696073125,1.7085573459999999,,,,,,,,-40.85779953,18.83679962,-13.45660019,1.207263947,-1.4397835730000001,0.3749640584,
1.71,1.724774169,1.726606093,,,,8.921041489,-7.472486019,2.0832512380000003,0.2182251811,-0.5399889946,-0.36498123409999994,,,,,,,
1.74,,,1.746073125,1.758557346,,,,,,,,-40.43079758,19.58099937,-13.99339962,0.09433746338,-1.218074322,0.1700775623,
1.77,1.774774169,1.7774060409999999,1.796073125,,,9.16750145,-6.706483841,0.1776670814,0.04046862945,-1.1378557679999999,0.5720584393,-40.10139847,20.38619995,-14.51799965,,,,
1.7999999999999998,1.8247741690000001,1.8282051559999999,,1.808557346,,6.75912571,-3.9412779810000003,0.5153541564999999,-0.2409792393,-1.604237556,2.454842329,,,,-0.19326591489999997,1.419118881,0.1144961864,
1.8299999999999998,,,1.846073125,1.858557346,,,,,,,,-39.61339951,21.9843998,-14.82299995,-0.17257356640000002,2.131654739,1.257034421,
1.8599999999999999,1.8747741690000002,1.8790035409999999,,,,6.902695179,-4.5158543589999995,1.300499082,-0.1404948682,-0.2727433145,2.68971324,,,,,,,
1.89,,,1.896073125,1.908557346,,,,,,,,-38.99119949,24.48539925,-14.65219975,1.7783360480000001,0.3320527077,1.386919856,
1.92,1.924774169,1.929802812,1.946073125,,,8.114061356,-7.1159553529999995,-0.32273194190000004,-0.5445703268,0.04672981426,0.7798992395000001,-38.08839798,27.37679863,-14.32279968,,,,
1.95,1.974774169,,,1.9585573459999999,,5.9784674639999995,-6.93619442,0.7067800164,,,,,,,1.240612984,1.498821735,0.7740681767,
1.98,,1.98060276,1.996073125,2.008557346,,,,,-0.06749862432,-1.283237338,0.5630484819,-37.30759811,30.29259872,-13.46879959,-0.2808327675,-1.384476662,0.7863135337999999,
2.01,2.024774169,2.0314019269999997,,,,6.091228962000001,-8.657531738,0.7187440990999999,-0.2776300907,-1.838192105,0.6265766025,,,,,,,
2.04,,,2.046073125,2.0585573459999997,,,,,,,,-36.80739975,32.72039795,-11.96819973,3.631450653,2.307675362,6.276313305,
2.07,2.074774169,2.082200312,2.096073125,,,7.0989065170000005,-5.945266724,2.468794823,0.6369609833,-0.1676775664,0.4115583301,-36.40480042,34.81879807,-10.17479992,,,,
2.1,2.124774169,,,2.108557346,,11.01326561,-7.025028229,1.3770694730000002,,,,,,,0.6482853889,3.039525032,0.6121960878,
2.13,,2.132999583,2.146073125,2.158557346,,,,,1.555369854,-1.186112642,1.260635972,-35.7826004,37.19779968,-8.491199493,9.598152161,-3.58827877,7.30461216,
2.16,2.174774169,2.183799531,,,,10.65912724,-13.82184124,1.690828323,2.013963461,1.94631207,-1.494590521,,,,,,,
2.19,,,2.196073125,2.208557346,,,,,,,,-35.01399994,39.36940002,-7.490799904,-10.22877407,-9.493679047,-4.267232418,
2.2199999999999998,2.2247741690000002,2.234598698,2.246073125,,,4.858027935,-14.09462261,-4.083950043,0.7695148587,1.2977449890000001,-0.6354338527000001,-34.28199768,40.56499863,-7.5883998870000005,,,,
2.25,2.274774169,,,2.258557346,,6.696912289,-9.864411354,-0.8279166222,,,,,,,1.64342308,-2.033638,-1.8265054230000002,
2.28,,2.285397135,2.296073125,2.3085573459999997,,,,,0.2640387416,2.003273487,-0.6878139973,-33.72079849,40.82119751,-8.369199753,-3.090068579,-2.017717361,-1.7395932669999998,
2.31,2.324774169,2.336196406,,,,1.5664014819999998,-9.926624298,2.222334146,0.36925718189999995,1.21802938,-0.5445703268,,,,,,,
2.34,,,2.346073125,2.358557346,,,,,,,,-33.30599976,40.44300079,-9.723400116,-3.73068285,-1.759532928,-1.44354248,
2.37,2.374774169,2.386996354,2.396073125,,,1.7889339919999998,-9.045467377000001,1.571187139,1.5654487609999999,-0.08490777016,-0.1598892659,-32.90340042,39.63779831,-11.62659931,,,,
2.4,2.424774169,,,2.408557346,,3.230310678,-6.356832504,-0.2102692872,,,,,,,-3.4764447210000005,1.007449627,-2.620168686,
2.4299999999999997,,2.43779552,2.446073125,2.458557346,,,,,1.271020412,-1.057987452,-0.1678302884,-32.46419907,38.43000031,-14.13980007,-1.7901678090000002,1.255692482,-1.5489965680000002,
2.46,2.4747741690000002,2.488593958,,,,4.850849628,-5.4209399220000005,1.688435435,0.8571714162999999,-0.7959339619,0.020157959309999997,,,,,,,
2.4899999999999998,,,2.496073125,2.508557346,,,,,,,,-32.29339981,36.9416008,-16.73839951,-0.34444570539999997,1.797885895,-0.3768200874,
2.52,2.524774169,2.539393229,2.546073125,,,3.335594654,-4.546961308,0.20638094839999999,-0.023059483619999998,-0.08047912269999999,0.5367820263,-32.35440063,35.22140121,-19.37360001,,,,
2.55,2.574774169,,,2.5585573459999997,,5.485546112000001,-3.694817305,3.6418759819999997,,,,,,,-2.324924469,3.9197149280000003,-0.4627869129,
2.58,,2.590193229,2.596073125,2.608557346,,,,,-0.9355126023,0.5980194807,0.7363763452,-32.28120041,33.92819977,-21.27680016,4.023683071000001,1.83127594,3.892693758,
2.61,2.624774169,,,,,10.60169983,-5.612365723,8.659924507000001,,,,,,,,,,
2.6399999999999997,,2.6409925,2.646073125,2.658557346,,,,,-0.6533011197999999,0.1232384369,-0.46042612200000005,-32.08599854,33.28160095,-22.39920044,6.269881725,3.301984787,4.407248497,
2.67,2.674774169,2.691790885,2.696073125,,,12.00209904,-7.230811119,5.933003902,0.2075353563,-0.7233958840000001,-2.011672735,-32.20800018,32.61059952,-22.92379951,,,,
2.6999999999999997,2.724774169,,,2.708557346,,-2.123031855,-13.01964664,-12.08016491,,,,,,,4.540259838,-8.551074982000001,-4.628614902,
2.73,,2.7425901560000003,2.746073125,2.7585573460000004,,,,,-0.8008207679000001,1.095249176,-0.1220167428,-32.67160034,31.73219872,-23.00919914,-7.900135993999999,-1.56014204,6.688129425,
2.76,2.7747741689999996,,,,,6.61555624,-7.338488102,-2.479861498,,,,,,,,,,
2.79,,2.793390156,2.796073125,2.808557346,,,,,-0.5607577562,1.256971002,1.7884080409999998,-33.09859848,31.3906002,-22.71640015,2.413600445,-3.3496155739999995,-2.327777147,
2.82,2.824774169,2.844189375,2.846073125,,,6.081657887,-10.63998508,-4.962415218,-0.43263256549999995,1.6176762580000001,2.7660691739999996,-32.62279892,31.87859917,-22.86279869,,,,
2.85,2.8747741689999997,,,2.8585573460000004,,4.659423828,-8.887541771,-1.567597985,,,,,,,-2.607969522,-2.798239708,-8.168916702,
2.88,,2.8949878119999997,2.896073125,2.9085573460000003,,,,,-2.974826097,-2.2883865830000003,0.8060129285,-31.62240028,33.20840073,-22.8871994,0.6186518669,0.3706874847,4.149344921,
2.9099999999999997,2.924774169,,,,,5.607579707999999,-8.267500877,9.947860718,,,,,,,,,,
2.94,,2.945787031,2.946073125,2.958557346,,,,,-1.365701795,-1.8956117630000002,0.8086090684,-30.78059959,35.12379837,-21.89900017,0.3142418861,1.498672485,7.861184597,
2.9699999999999998,2.974774169,2.996587135,2.996073125,,,3.900599957,-6.570092678,2.511865616,-0.5708367825,-1.447708011,1.3470709319999998,-30.19499969,37.05139923,-20.32519913,,,,
3.0,3.0247741689999996,,,3.0085573460000004,,1.674078584,-4.231108665,-0.6912266612000001,,,,,,,-3.174207211,1.4288396840000002,1.028808832,
3.03,,3.047386354,3.046073125,3.058557346,,,,,-0.8402203918000001,-1.0263761279999999,1.418234587,-29.54839897,39.05220032,-18.33659935,-1.6362028119999998,1.244437218,2.1085720059999997,
3.06,3.074774169,,,,,6.411867142,-10.03430176,-0.9523434043000001,,,,,,,,,,
3.09,,3.0981847910000004,3.096073125,3.1085573460000004,,,,,-1.359135151,0.2634278834,1.149461865,-28.32839966,41.52880096,-16.16499901,0.7353434563,0.1255102158,3.207529783,
3.12,3.1247741689999997,3.1489841139999997,3.146073125,,,1.554437399,-10.20419216,0.994217813,-1.51597023,0.4046863019,1.041800022,-26.65699959,44.5788002,-13.56639957,,,,
3.15,3.174774169,,,3.1585573460000003,,5.755934715,-8.578568459,9.289535522000001,,,,,,,3.848920345,-0.7327470779,4.118112564,
3.1799999999999997,,3.199784166,3.196073125,3.208557346,,,,,2.2280654909999997,-1.916380525,1.185959935,-24.74160004,47.51899719,-10.79699993,4.142852783,-0.9980783462999999,5.520046234,
3.21,3.224774169,,,,,5.126323223,-13.94626808,1.523031592,,,,,,,,,,
3.2399999999999998,,3.2505833330000002,3.246073125,3.2585573460000004,,,,,2.9166429039999997,-2.679176092,0.3651339412,-23.39959908,49.91019821,-8.076399803,2.6348083019999997,-0.7576789856,-1.18216002,
3.27,3.2747741689999996,,3.296073125,,,0.6302096844,-9.476474762,-1.727917075,,,,-22.36260033,51.59379959,-6.063399792,,,,
3.3,3.324774169,3.3013818230000003,,3.308557346,,2.696412086,-17.92762566,1.2646067140000001,0.18523943420000002,3.38470459,-1.101815701,,,,3.560101271,-2.7490568160000004,-2.9854300019999997,
3.33,,3.352179998,3.346073125,3.3585573460000004,,,,,3.8052730560000003,1.7239636180000002,-1.051573515,-21.03279877,52.49659729,-5.831599712,3.821735382,-9.457262039,2.132095814,
3.36,3.3747741689999997,,,,3.3646529160000003,3.223132133,-16.39292908,6.0218372339999995,,,,,,,,,,5.0
3.3899999999999997,,3.402980051,3.396071978,3.4085573460000003,,,,,3.466405392,0.2742704153,-2.651840687,-19.70299911,52.45999908,-7.454199791000001,-2.744611263,-5.07324028,-4.923754692,
3.42,3.424774169,,3.446071978,,,-0.08315058798,-15.23181152,-1.9411773680000002,,,,-19.0564003,51.16679764,-10.22359943,,,,
3.4499999999999997,3.474774169,3.4537792689999995,,3.458557346,,1.4823536869999998,-11.78674507,-2.86032033,0.5775560737,-2.6886441710000004,-3.1504447460000002,,,,4.69098711,-1.915277481,-5.911556721,
3.48,,3.5045777589999996,3.4960719780000002,3.5085573460000004,,,,,-0.9329164623999999,-2.6422197819999997,-0.3153499067,-19.6420002,49.19039917,-12.78559971,-7.130912781,6.058496475,-3.803235054,
3.51,3.5247741689999996,,,,,-2.8507490160000004,1.016949654,-3.030509949,,,,,,,,,,
3.54,,3.5553770819999997,3.546071978,3.558557346,,,,,-1.269951463,-0.6694886088,0.7632536292000001,-21.09379959,47.11639786,-14.83519936,-5.286647797,10.1385231,-1.1202685829999999,
3.57,3.574774169,,3.5960719780000003,,,-1.05523479,0.6696912646000001,1.322034478,,,,-22.75300026,45.22539902,-16.82379913,,,,
3.5999999999999996,3.6247741689999997,3.6061771339999997,,3.6085573460000004,,10.58255768,-0.8554341196999999,-0.6577271223,-0.7197307944,0.9542961121,0.7232431769,,,,1.3443412780000001,7.218127251,8.372073174,
3.63,,3.656976457,3.646071978,3.6585573460000003,,,,,-0.007482878863999999,-2.7672908310000004,-0.7950177193000001,-24.53419876,43.51739883,-18.1779995,-3.443818092,4.2365722660000005,-0.040534019469999995,
3.6599999999999997,3.674774169,,,,,-4.50269413,-2.4711875919999997,3.864707708,,,,,,,,,,
3.69,,3.707774894,3.696071978,3.708557346,,,,,-1.929513812,2.8966376780000003,0.07437065244,-26.73019981,41.72399902,-18.43420029,1.3475375180000002,-4.669187546,-5.516317367999999,
3.7199999999999998,3.724774169,,3.7460719780000002,,,14.04676628,-19.68006897,-7.373183727000001,,,,-28.7432003,40.21120071,-18.44639969,,,,
3.75,3.7747741689999996,3.758574217,,3.7585573460000004,,6.320940018,-13.01007557,3.1247272489999998,1.790087938,4.26096487,-1.69830811,,,,0.5424461365,-18.18138313,-2.509512424,
3.78,,3.8093743210000004,3.796071978,3.808557346,,,,,-1.668376565,8.723967552000001,0.23303823170000001,-30.30480003,38.83259964,-18.4951992,0.9151248931999999,-7.132012844,-1.231791258,
3.81,3.824774169,,,,,5.150251865,-17.35783386,1.015753269,,,,,,,,,,
3.84,,3.86017354,3.8460719780000003,3.8585573460000004,,,,,-3.531155348,4.046710491,0.06413896382,-29.48740005,38.74720001,-19.16619873,4.806619167,-7.39157486,-10.96197128,
3.8699999999999997,3.8747741689999997,,3.896071978,,,5.272285461,-17.01296806,0.517746985,,,,-27.10840034,39.78419876,-20.17879868,,,,
3.9,3.924774169,3.91097203,,3.9085573460000003,,1.9133608340000001,-7.817351341,2.918944597,-3.735025644,-1.9730366469999998,-0.23303823170000001,,,,-1.9892607930000001,-2.102882385,3.115934372,
3.9299999999999997,,,3.946071978,3.958557346,,,,,,,,-24.60739899,41.43119812,-20.69120026,-3.0823941230000003,6.482684612000001,7.502526283,
3.96,3.974774169,3.961771405,,,,-1.040877819,-0.9463613629000001,11.23370457,-2.304879427,-6.865312576,-0.4207210541,,,,,,,
3.9899999999999998,,4.012571509,3.9960719780000002,4.008557346,,,,,1.158471823,-5.70134306,0.04627167806,-23.00919914,43.00500107,-20.09339905,-2.12377286,10.97555828,10.2419138,
4.02,4.024774169,,4.0460719780000005,,,1.025324464,-1.111466169,0.47946184869999997,,,,-21.95999908,44.3225975,-18.82460022,,,,
4.05,4.0747741689999994,4.063370728,,4.058557346000001,,-0.06400800496,-2.12183547,3.062513828,0.9190196990999999,-0.9662076234999999,0.7296570539,,,,-2.382491112,8.329652786,1.7445368769999998,
4.08,,,4.096071978,4.108557346,,,,,,,,-28.04780006,35.75819778,-22.42359924,1.911492825,1.526426315,3.5468413830000003,
4.109999999999999,4.124774169,4.114169269,,,,4.276273251,-15.94995785,-2.261815548,2.479276419,-0.03023693897,1.310725451,,,,,,,
4.14,,4.164968592,4.146071978,4.158557346,,,,,2.861208677,-2.697348833,-1.27010417,-26.33979988,37.31979752,-22.05760002,7.204064369,-14.03539753,-1.610212803,
4.17,4.174774169,,4.196071978,,,7.1183481220000004,-21.56411743,2.277369022,,,,-25.43700027,38.93019867,-20.95960045,,,,
4.2,4.224774169,4.2157686960000005,,4.208557346,,-0.1668993831,-20.0033989,2.985943556,2.3212196830000003,-0.5076140761,-3.2942993639999996,,,,0.8631424904,-8.990215302000001,2.299259186,
4.2299999999999995,,,4.246071978,4.258557346,,,,,,,,-27.14499855,39.44260025,-18.88559914,1.685954571,-5.763694762999999,-5.912746906000001,
4.26,4.274774169,4.266567967,,,,10.73569775,-13.50568962,1.841576099,1.154195905,-3.0893599989999996,-2.193552494,,,,,,,
4.29,,4.317366509,4.2960719780000005,4.308557346000001,,,,,0.2838912606,0.4633276463,-1.196497083,-29.88999939,39.3205986,-16.07959938,1.55369854,-2.6478004459999998,5.719799042000001,
4.32,4.3247741689999994,,4.346071978,,,5.01864624,-4.872684002,3.163012505,,,,-32.78139877,37.44179916,-15.20119953,,,,
4.35,4.374774169,4.368165884,,4.358557346,,1.338784218,-1.185643673,0.5560321807999999,0.12140589210000001,1.021183848,-0.011147962879999999,,,,-3.3780746460000004,7.650673866,-3.542396545,
4.38,,,4.396071978,4.408557346,,,,,,,,-34.70899963,35.18479919,-16.03079987,-8.708280562999999,6.818321227999999,-1.2024142740000001,
4.41,4.424774169,4.418965988,,,,-1.457528114,1.4288141730000001,-0.2533400953,-1.308587551,3.0986754889999997,1.973647475,,,,,,,
4.4399999999999995,,4.469765259,4.446071978,4.458557346,,,,,0.07207997887999999,1.1120474340000002,1.035080671,-35.52639771,33.47679901,-18.14139938,-2.3642416,11.28590393,-3.922539234,
4.47,4.474774169,,4.496071978,,,5.942574978,2.982354403,14.86780357,,,,-36.06319809,32.04940033,-20.31299973,,,,
4.5,4.524774169,4.520563801000001,,4.508557346,,4.115953922,-8.257929802,-7.031010151,0.2544178963,0.4895940721,-1.6792191269999999,,,,3.382525921,3.366597652,-5.120697975,
4.53,,,4.5460719780000005,4.558557346000001,,,,,,,,-37.03919983,30.19499969,-22.20400047,-8.716851234,-4.92047596,-5.041779995,
4.56,4.5747741689999994,4.571363176,,,,1.72911346,-15.82074547,-3.710370541,-1.39410615,-4.9400744439999995,1.27010417,,,,,,,
4.59,,,4.596071978,4.608557346,,,,,,,,-38.10059738,29.18239975,-22.33819962,6.213314056000001,-10.95654392,1.8770741219999998,
4.62,4.624774169,4.6221633319999995,4.646071978,,,13.91994667,-17.3745842,14.4009037,-0.5795413256,2.21875,0.9101623893,-38.22259903,29.36540031,-21.82579994,,,,
4.6499999999999995,4.674774169,4.672962603,,4.658557346,,11.22173977,-8.887541771,-3.262613773,-2.9140467639999996,4.849516392,-3.908048153,,,,15.61174965,20.52165985,0.19587767120000002,
4.68,,,4.696071978,4.708557346,,,,,,,,-37.30759811,29.96319962,-22.54559898,0.2900633812,-9.434206963,-8.510255814,
4.71,4.724774169,4.723761144,,,,4.566103935,-21.46122551,-8.970093727,-3.2002286910000004,-3.380275965,-1.6434845919999999,,,,,,,
4.74,,,4.746071978,4.758557346,,,,,,,,-36.92939758,30.73180008,-22.27719879,-1.0968208309999998,-29.77435112,2.927605629,
4.77,4.774774169,4.774560571,4.7960719780000005,,,-1.890928149,-25.81377029,29.28755188,-6.714433193,1.778329134,1.521009684,-37.10020065,31.76879883,-19.78839874,,,,
4.8,4.8247741689999994,4.825360676,,4.808557346000001,,3.826422453,1.919342875,11.35334492,1.0981506109999999,-3.448385477,1.802762985,,,,-5.527842999,3.0669569969999997,15.31497002,
4.83,,,4.846071978,4.858557346,,,,,,,,-37.52719879,32.74480057,-16.55539894,2.592339993,5.60330677,2.6163001059999997,
4.859999999999999,4.874774169,4.876159998,,,,5.284249783,-0.2928216755,1.027717352,3.6469109060000005,-1.294538021,0.6303943992000001,,,,,,,
4.89,,,4.896071978,4.908557346,,,,,,,,-36.20959854,34.78219986,-12.44399929,-0.1511719227,15.03474712,-0.912959218,
4.92,4.924774169,4.92695854,4.946071978,,,6.802196502999999,12.01765251,-3.7558343410000004,-0.9226847887,3.885446787,1.7389293909999999,-36.11199951,36.30719757,-9.625800133,,,,
4.95,4.974774169,4.977757967,,4.958557346,,6.466902256,-3.302095175,5.976074696,3.376610994,-1.63844502,-0.369104445,,,,1.23096323,9.586888313,3.0175414089999997,
4.9799999999999995,,,4.996071978,5.008557346,,,,,,,,-35.35559845,37.47840118,-8.430199623,7.483984947000001,-7.797789573999999,6.125341892000001,
5.01,5.024774169,5.028558175,,,5.03979578,13.91276836,-28.35644341,4.764708042,3.633472204,3.8419239519999997,-3.600639105,,,,,,,0.0
5.04,,,5.04607203,5.058557346000001,,,,,,,,-34.92860031,37.35639954,-9.101200104,5.594629287999999,-39.95909119,-4.445853233,
5.069999999999999,5.0747741689999994,5.079357498,5.09607203,,,8.523533821000001,-40.64029694,7.338488102,4.705967426,-2.036412001,-2.3688657280000003,-34.90419769,36.34379959,-10.29679966,,,,
5.1,5.124774169,,,5.108557346,,4.793421745,-8.200502396000001,-4.304089546,,,,,,,-0.35637331009999995,-10.80187511,-3.134500265,
5.13,,5.130156092,5.14607203,5.158557346,,,,,2.121778011,-1.949060917,-0.8756495714,-35.01399994,34.47719955,-11.8949995,-0.0225071907,5.921891689,-4.198550224,
5.16,5.174774169,5.1809554669999995,,,,8.466105461,1.7135601040000001,-0.890130043,-0.6293253899,1.150530815,0.6479562521,,,,,,,
5.1899999999999995,,,5.19607203,5.208557346,,,,,,,,-34.70899963,32.40319824,-15.40859985,-2.708968163,7.7784795760000005,-7.8973379139999995,
5.22,5.224774169,5.231755623,5.24607203,,,-0.2796611488,1.3974083659999998,-5.793322562999999,-1.208408594,-0.048104222860000004,1.1705360409999999,-34.67239761,30.23159981,-19.21500015,,,,
5.25,5.274774169,,,5.258557346,,-2.175673962,4.8068814280000005,-6.454041004,,,,,,,-9.131957053999999,10.41018772,-8.394120216000001,
5.279999999999999,,5.282554946,5.29607203,5.308557346000001,,,,,-2.437127829,-0.7235485911,1.099525094,-34.86759949,28.92619896,-22.41139984,-5.406190872000001,9.027590752,-2.728512764,
5.31,5.3247741689999994,5.33335354,,,,2.301297188,3.030210733,35.59832001,1.528950691,5.235266209,-0.7907418012999999,,,,,,,
5.34,,,5.34607203,5.358557346,,,,,,,,-35.30680084,26.9863987,-25.10759926,6.912899017000001,-0.5337347984,5.511363983,
5.37,5.374774169,5.384152967,5.39607203,,,3.8599219319999998,-3.94367075,-11.80708408,1.591257095,-6.708935261000001,-2.755532026,-36.12419891,24.13159943,-27.76719856,,,,
5.3999999999999995,5.424774169,,,5.408557346,,-3.473181963,-27.24557686,-6.037390708999999,,,,,,,-11.91353226,-9.324342728,-13.43034077,
5.43,,5.434953175,5.44607203,5.458557346,,,,,0.6117635369,-4.290896416,1.915006161,-38.02740097,21.95999908,-26.79119873,-4.356075764,-12.72341061,3.125962734,
5.46,5.474774169,5.48575255,,,5.48966203,8.396714211,-16.63729668,-4.739882468999999,-1.421746969,2.479734421,5.498847007999999,,,,,,,5.0
5.49,,,5.496072082,5.508557346,,,,,,,,-39.0277977,22.25279999,-25.14419937,11.95464325,-12.23643589,-5.745981692999999,
5.52,5.524774169,5.536551144,5.546072082,,,19.32323837,-23.74756813,-8.761918068,-7.113010882999999,1.665322304,2.4986708159999997,-38.30799866,24.91239929,-23.24099922,,,,
5.55,5.5747741689999994,,,5.558557346000001,,18.87308884,-12.66790199,39.46482468,,,,,,,18.40533829,-12.07607746,-5.65700388,
5.58,,5.587350623,5.596072082,5.608557346,,,,,-0.5259394646,-1.831320047,0.02137965336,-37.49060059,28.04780006,-19.91040039,4.336853027,2.152826309,-1.528721333,
5.609999999999999,5.624774169,5.63815078,,,,0.7737790346,-5.1311092380000005,-0.1671984792,-1.572168112,-0.9152019024,-0.7046123147,,,,,,,
5.64,,,5.646072082000001,5.658557346,,,,,,,,-37.07579803,30.63419914,-15.94539928,-7.666946887999999,11.85460472,11.99424458,
5.67,5.674774169,5.688950155,5.696072082000001,,,0.7666005492,5.239982605,8.008777618,-0.003054236295,2.120403528,-0.24785128239999998,-36.92939758,31.58580017,-12.05359936,,,,
5.7,5.724774169,,,5.708557346,,6.720840454,0.3658027649,10.25204849,,,,,,,3.174326181,10.82638264,7.3130273820000005,
5.7299999999999995,,5.739748747999999,5.746072082,5.758557346,,,,,2.366880417,1.4252593519999999,-1.150378108,-37.12459946,33.22060013,-8.527799606,-6.311134338,2.821138859,4.040136337,
5.76,5.774774169,,,,,-0.7127620578,-7.633104324,-0.5907281041,,,,,,,,,,
5.79,,5.790548227,5.796072082,5.808557346000001,,,,,3.65607357,2.257538795,-0.6174138784000001,-37.07579803,35.36779785,-6.0145998,2.377830029,-3.720582962,0.01184725761,
5.819999999999999,5.8247741689999994,5.841348384,5.846072082,,,10.95823002,-17.71466446,-0.8015955687,0.9868237376000001,6.060521126,-0.7844805717000001,-35.39220047,37.30759811,-7.075999737,,,,
5.85,5.874774169,,,5.858557346,,14.14247894,-39.10829163,2.389831543,,,,,,,9.682851791000001,-21.75783539,-3.867806911,
5.88,,5.892147758999999,5.896072082000001,5.908557346,,,,,2.546927691,3.605831385,-0.09223793447,-31.86639977,36.6609993,-9.333000183,2.997451305,-15.9310379,-0.2426309586,
5.91,5.924774169,,,,,4.546961308,-17.04646873,0.1250249892,,,,,,,,,,
5.9399999999999995,,5.942946405,5.946072082000001,5.958557346,,,,,3.369280815,-2.507833481,-1.20443809,-30.75619888,34.6114006,-12.68799973,-1.361684322,-0.1939277649,-6.084562302,
5.97,5.974774169,5.993745884,5.996072082,,,2.0715861319999997,-2.002194405,-0.028115665539999994,1.1057862040000002,-0.031000498680000002,-0.721257925,-30.13399887,31.50039864,-17.65340042,,,,
6.0,6.024774169,,,6.008557346,,-2.024926186,-0.2398804724,-5.046164036,,,,,,,-5.9827103610000005,5.467148304,-13.4669981,
6.029999999999999,,6.044546092,6.046072082,6.058557346000001,,,,,-1.4012836219999998,-3.375236511,1.201231122,-29.53619957,28.47480011,-22.86279869,-7.524077892,10.2026968,-7.463466167000001,
6.06,6.0747741689999994,,,,,-2.6808586119999998,0.6816553473,-2.853141785,,,,,,,,,,
6.09,,6.095345518999999,6.096072082,6.108557346,,,,,-1.544679999,-2.923973083,2.585716486,-29.37759972,26.48620033,-27.81599998,-3.340564728,11.84505463,-0.9441764355,
6.12,6.124774169,6.146144112999999,6.146072082000001,,,7.824530125,6.027819157000001,4.582853794,0.07956285775000001,3.359049082,0.7287407517,-28.99939919,25.16860008,-31.26859856,,,,
6.1499999999999995,6.174774169,,,6.158557346,,9.818648338,-7.45573616,4.453640938,,,,,,,10.03415871,2.220821381,4.44823885,
6.18,,6.19694354,6.196072082000001,6.208557346,,,,,1.39410615,0.3177932799,-2.1572070119999998,-28.25519943,23.92420006,-34.07460022,-3.995952368,-10.24764252,-6.3253364560000005,
6.21,6.224774169,,,,,1.9899311069999999,-22.70848465,-3.456432343,,,,,,,,,,
6.24,,6.2477438,6.246072082,6.258557346,,,,,-0.4046863019,2.301825285,1.555369854,-28.07219887,22.70419884,-35.62400055,0.04025602341,-8.353981017999999,-6.563832282999999,
6.27,6.274774169,6.298543175,6.296072082,,,5.248357296,-10.23769188,-5.022235394,-4.823402882,5.579173565,1.235591292,-27.77939987,22.50899887,-36.05099869,,,,
6.3,6.3247741689999994,,,6.308557346000001,,6.308976173,-16.72583008,-2.319243431,,,,,,,3.075190783,-6.090420722999999,-7.248426437000001,
6.33,,6.349341821,6.346072082,6.358557346,,,,,-7.60031414,1.402657986,-0.7769976854,-26.74239922,24.48539925,-34.79439926,2.554229736,-16.30335617,1.715900183,
6.359999999999999,6.374774169,,,,,2.117049932,-21.07837486,33.26651764,,,,,,,,,,
6.39,,6.4001413,6.396072082000001,6.408557346,,,,,-2.10100913,-1.3058387040000001,-1.3766970630000002,-25.31499863,28.03559875,-31.76879883,-2.836128235,-1.467723846,5.910943031,
6.42,6.424774169,,6.446072082000001,,,1.410568953,-8.037490845,5.827719687999999,,,,-24.19260025,31.6955986,-28.32839966,,,,
6.45,6.474774169,6.4509415610000005,,6.458557346,,-4.191627026,-0.7378866673000001,2.8423740860000004,-0.9358180165000001,-0.9617789984,-0.9182561636,,,,-6.2547597889999995,8.186549187,5.816812037999999,
6.4799999999999995,,6.501740936,6.496072082,6.508557346,,,,,1.296065211,-0.5748072863,-0.02672456764,-22.37479973,34.39179993,-25.03439903,-4.158717632,9.861227989,11.10198402,
6.51,6.524774169,,,,,2.270190477,-1.8463617559999999,7.680661678,,,,,,,,,,
6.54,,6.5525395820000005,6.546072082,6.558557346000001,,,,,3.2367269989999996,0.4308000207,0.7114843726000001,-21.06939888,36.36819839,-23.24099922,-5.268057823,3.339081287,4.499528408,
6.569999999999999,6.5747741689999994,,6.596072082,,,-5.541777134,-6.088836193,1.200000525,,,,-19.77619934,38.4178009,-21.78919983,,,,
6.6,6.624774169,6.603339113,,6.608557346,,2.3084757330000003,-20.36710739,0.517746985,4.127494812,0.19302773480000002,2.270061016,,,,-4.2486410139999995,-5.423253058999999,-2.443037987,
6.63,,6.654139321000001,6.646072082000001,6.658557346,,,,,3.5054996010000004,-0.8663341403,1.911493778,-17.53139877,40.40639877,-21.38660049,4.407724857,-21.56008911,-4.619688988,
6.66,6.674774169,,,,,7.750352382999999,-21.91137695,2.0808584690000003,,,,,,,,,,
6.6899999999999995,,6.704938747999999,6.696072082000001,6.708557346,,,,,3.270628929,-1.673874259,-1.602099657,-16.07959938,41.58979797,-21.00839996,1.9203467369999998,-9.174513817000001,6.602704048,
6.72,6.724774169,,6.746072082,,,0.4627120793,-21.7295208,9.498010635,,,,-16.29920006,40.1867981,-22.41139984,,,,
6.75,6.774774169,6.755737394,,6.758557346,,1.5975081919999998,-10.2592268,1.049252748,2.049239874,-3.9275951389999997,-1.166718245,,,,-0.34495162960000003,-6.733141422,-2.7677946089999996,
6.779999999999999,,6.806536925,6.796072082,6.808557346000001,,,,,-0.1415638477,-0.7337802648999999,-0.27717193960000003,-17.3118,37.20999908,-25.31499863,1.498500824,4.997168541000001,-8.996530533,
6.81,6.8247741689999994,,,,,5.023432255,0.7821539044,-1.0145567659999999,,,,,,,,,,
6.84,,6.8573371860000005,6.846072082,6.858557346,,,,,-1.0466867690000001,-0.8840487003,0.8273926376999999,-18.01939964,34.28199768,-28.70660019,-3.4744832519999997,9.629372597,-6.004030704,
6.87,6.874774169,,6.896072082000001,,,-0.07597211747999999,1.11984098,-2.685644388,,,,-18.01939964,31.82979965,-31.85419846,,,,
6.8999999999999995,6.924774169,6.908136665,,6.908557346,,4.218845367,4.955236435,0.7761718631,-1.7401511669999998,-1.94371593,1.3994510169999999,,,,-2.059710979,14.14340401,-8.531962395,
6.93,,6.9589352589999995,6.946072082000001,6.958557346,,,,,0.08674030751,3.447927237,-0.8501466513,-18.71479988,30.04859924,-34.13560104,6.703218937000001,2.8163285260000004,14.27165413,
6.96,6.974774169,,,,,10.41236782,-5.842076302000001,8.18345356,,,,,,,,,,
6.989999999999999,,7.00973479,6.996072082,7.008557346,,,,,0.8368607162999999,1.101357579,-2.777369738,-19.38579941,28.32839966,-35.88019943,-3.305508614,0.642305851,-7.758816242000001,
7.02,7.024774169,,7.046072082,,,-3.4037902360000003,-14.68116379,2.55254364,,,,-21.00839996,26.42519951,-36.6731987,,,,
7.05,7.0747741689999994,7.06053505,,7.058557346000001,,-3.30089879,-15.32273865,-3.55244422,0.5654918551,-2.903357029,0.3385621011,,,,-9.263478279,-15.48796463,-11.50605965,
7.08,,,7.096072082,7.108557346,,,,,,,,-23.26539993,25.30279922,-36.16080093,-0.2135343552,-5.08133316,-4.453612804,
7.109999999999999,7.124774169,7.111334477000001,,,,7.391129971,-17.63779449,1.5278172490000002,-2.8865587710000002,0.4292729199,3.678064108,,,,,,,
7.14,,7.162133175,7.146072082000001,7.158557346,,,,,-5.9911899570000005,3.468848944,2.28594327,-24.66839981,26.47399902,-34.57479858,9.423732758,-10.98982048,-4.804534912,
7.17,7.174774169,,7.196072082000001,,,13.19432354,-21.7917347,-0.7537391186,,,,-23.96080017,29.15799904,-32.07379913,,,,
7.199999999999999,7.224774169,7.212932707,,7.208557346,,6.665805817000001,-12.79950714,14.73859119,-4.476593971000001,0.48531815409999995,-0.4136963189,,,,8.652572632,-13.28759384,28.01536942,
7.2299999999999995,,,7.246072082,7.258557346,,,,,,,,-23.18000031,32.19580078,-28.48699951,-1.400082111,-0.39336395259999996,2.881974697,
7.26,7.274774169,7.263733019,,,,-3.18843627,-7.381558895,1.266999602,-1.255138397,-0.3122956753,-1.8586554530000001,,,,,,,
7.29,,7.314532497999999,7.296072082,7.308557346000001,,,,,-0.37124243380000005,-0.23563432690000002,-0.2415900975,-22.78960037,34.64799881,-24.85140038,-6.755505562000001,13.41216278,11.93293571,
7.319999999999999,7.3247741689999994,,7.346072082,,,-0.9044869542,2.261815548,3.9388852119999997,,,,-22.61879921,36.45359802,-22.02099991,,,,
7.35,7.374774169,7.365331144,,7.358557346,,3.665804386,-1.499402523,4.692923546,1.183363795,1.882936716,0.26327517629999997,,,,0.7506935596,9.065126419,2.320733786,
7.38,,,7.396072082000001,7.408557346,,,,,,,,-22.81399918,38.85699844,-18.83679962,-7.074683189,4.008677959,9.893868446,
7.41,7.424774169,7.416130675,,,,-7.112366198999999,-5.226821899,0.7833502889,2.5455532069999998,2.440181971,0.4007157981,,,,,,,
7.4399999999999995,,7.466930988,7.446072082000001,7.458557346,,,,,3.4325034619999997,1.757560253,2.20836544,-22.14299965,41.33359909,-16.33580017,-5.875466347000001,-5.6332435610000005,-3.357301712,
7.47,7.474774169,,7.496072082,,,-1.098305583,-21.51626205,-0.6337988972999999,,,,-20.20319939,43.37099838,-15.57940006,,,,
7.5,7.524774169,7.517730415,,7.508557346,,7.407879829,-39.06043625,4.664209366000001,2.383526087,0.9920159578,2.33389473,,,,-0.06216382980000001,-24.30095863,-2.549653769,
7.529999999999999,,,7.546072082,7.558557346000001,,,,,,,,-17.23859978,43.37099838,-16.17720032,9.42804718,-10.491539,5.554031372000001,
7.56,7.5747741689999994,7.568529165,,,,6.732804775,-20.83640099,1.197607756,4.351370335,-5.074613571,-0.4504998624,,,,,,,
7.59,,7.619328696,7.596072082,7.608557346,,,,,1.744579792,-3.021555901,-0.7886037827,-16.34799957,41.80939865,-18.73920059,1.006888628,-6.2613897320000005,-2.822859049,
7.62,7.624774169,,7.646072082000001,,,1.1952148679999999,-10.85055351,-0.7250252366,,,,-16.36019897,39.10099792,-22.64319992,,,,
7.6499999999999995,7.674774169,7.670129009,,7.658557346,,-0.8518448472,5.393422127000001,-2.020140409,0.3527642787,0.06291726977,-0.5021164417,,,,-4.239686012,8.65025425,-6.810867786,
7.68,,,7.696072082000001,7.708557346,,,,,,,,-16.1283989,36.36819839,-26.96199989,-5.343019962,14.5376358,-10.75121593,
7.71,7.724774169,7.720928436,,,,-1.584347725,7.038188934,-6.418148518,-1.798639774,-1.8039846419999999,0.3358132839,,,,,,,
7.739999999999999,,,7.746072082,7.758557346,,,,,,,,-15.7013998,34.52600098,-30.32919884,-3.54502058,10.12092495,-8.177728652999999,
7.77,7.774774169,7.771727186000001,7.796072082,,,0.1920240223,-2.7514469619999997,-2.5875384809999997,-3.229549408,0.2397575527,1.226123214,-15.72579956,33.01319885,-32.96440125,,,,
7.8,7.8247741689999994,7.8225267689999995,,7.808557346000001,,9.667901039,-7.068099022,15.74656773,1.4383926390000001,1.080130696,-1.216655016,,,,0.22660017010000003,2.248297691,12.10141373,
7.83,,,7.846072082,7.858557346,,,,,,,,-15.95759964,31.71999931,-34.81879807,-4.645670414,5.254347801000001,-5.772287369,
7.859999999999999,7.874774169,7.873327082,,,,-2.2259233,-5.9213385579999995,-1.462313771,1.569266558,-0.3229855001,-1.090515018,,,,,,,
7.89,,,7.896072082000001,7.908557346,,,,,,,,-17.28739929,29.97539902,-35.83139801,-4.957172871,-16.97043991,-5.089240074,
7.92,7.924774169,7.924126612999999,7.946072082000001,,,3.237488985,-39.5871582,-4.35912466,0.42331716420000004,1.060430884,1.792683959,-18.62940025,29.0359993,-36.05099869,,,,
7.949999999999999,7.974774169,7.974925311,,7.958557346,,7.489235878,-17.1233387,0.48424747590000006,-5.015513897,1.550788522,2.099176645,,,,7.403604507000001,-10.71993828,-9.084629059,
7.9799999999999995,,,7.996072082,8.008557346,,,,,,,,-19.3491993,29.6093998,-35.16040039,2.741170883,-11.22381687,1.708759308,
8.01,8.024774169,8.025724842,,,,4.005884171,-21.18605232,-0.1719841212,-7.410799026,2.683757544,0.045813545580000004,,,,,,,
8.04,,,8.046072082,8.058557346,,,,,,,,-18.55620003,32.13479996,-32.31779861,-0.2831619978,-8.413454056,20.58640671,
8.07,8.074774169,8.076525207000001,8.096072082000001,,,0.5823532343,-11.0063858,16.3211441,-1.5468180180000002,-4.2933397289999995,-0.8690829277,-18.01939964,35.14820099,-28.26739883,,,,
8.1,8.124774169,8.127324686,,8.108557346,,6.179763793999999,-2.57916379,3.8886358739999998,-0.5372401475999999,-3.8915550710000004,-0.34329617020000003,,,,2.521985054,4.669148445,6.453090668,
8.129999999999999,,,8.146072082,8.158557346,,,,,,,,-17.51919937,38.10059738,-24.49759865,-1.500102162,7.567563057,4.268296718999999,
8.16,8.174774168999999,8.178123436,,,,1.154536963,-1.262213945,1.0612168309999999,-0.9982771277,0.765697062,-0.5819846988,,,,,,,
8.19,,,8.196072082,8.208557346000001,,,,,,,,-17.27519989,39.79639816,-20.60579872,0.7935172319,11.1514492,10.60159111,
8.219999999999999,8.224774169,8.228923019,8.246072082000001,,,6.36640358,3.28414917,15.13609886,2.1530838009999997,3.640954971,-1.443126678,-17.43379974,41.3701973,-17.16539955,,,,
8.25,8.274774169,8.279723332,,8.258557346,,-5.419743061,-5.442475319,-1.4312070609999998,3.941491842,2.441861868,0.5016583204,,,,-6.755161285,6.69913578,3.9078664780000003,
8.28,,,8.296072082,8.308557346,,,,,,,,-17.06780052,43.34659958,-14.87179947,-4.75628376,-9.284015656000001,-0.7009658812999999,
8.31,8.324774169,8.330522862999999,,,,4.285844326,-13.46261883,2.9691936969999997,2.8715929989999998,5.458378315,0.983158648,,,,,,,
8.34,,,8.346072082000001,8.358557346,,,,,,,,-15.65259933,44.66419983,-13.52979946,0.04468631744,-33.62091064,-6.66547966,
8.37,8.374774169,8.381321612999999,8.396072082,,,9.897611617999999,-41.97878265,5.562116146,4.05098629,-5.821221828,-0.027946261689999998,-15.12799931,44.55439758,-13.89579964,,,,
8.4,8.424774168999999,,,8.408557346,,8.396714211,-16.22782326,6.464509487000001,,,,,,,9.601880074,-14.820858,6.716813564,
8.43,,8.432121248,8.446072082,8.458557346000001,,,,,2.682993889,-1.875148416,-1.241852522,-16.17720032,42.28519821,-16.39679909,-1.7144453530000001,-1.003696442,-6.424104691,
8.459999999999999,8.474774169,8.482921561,,,,1.982752681,-5.724828242999999,-1.742274046,0.3245126009,2.077033281,-0.3211529553,,,,,,,
8.49,,,8.496072082000001,8.508557346,,,,,,,,-16.73839951,39.2961998,-20.39839935,-1.545874357,6.08150816,-8.956453323,
8.52,8.524774169,8.533721092,8.546072082,,,0.5488536954,0.8347960114,-3.746263027,-0.9869764447,2.067412615,0.6603258848,-15.3963995,36.30719757,-25.08320045,,,,
8.549999999999999,8.574774169,,,8.558557346,,-0.2820539773,7.342077255,-6.427719593,,,,,,,-3.1564047339999997,12.50687599,-8.176646233,
8.58,,8.584519894,8.596072082000001,8.608557346,,,,,-2.17079854,-0.180199936,0.5636593103,-14.34719944,34.0135994,-30.26819992,1.262803555,11.80479717,-11.55179882,
8.61,8.624774169,8.635319477000001,,,,2.387438774,0.3753740489,-3.61465764,-0.06230641901,-2.45010829,-1.03828764,,,,,,,
8.64,,,8.646072082,8.658557346,,,,,,,,-13.56639957,32.30559921,-34.12339783,1.8595790859999999,1.125989914,49.44118881,
8.67,8.674774168999999,8.686119842,8.696072082,,,1.257428288,-8.916254997000001,8.595317841,2.0790185930000002,0.1922641695,-1.631878495,-13.32240009,30.39019966,-36.81959915,,,,
8.7,8.724774169,,,8.708557346000001,,-4.284946918,-9.442975043999999,1.934896231,,,,,,,-6.954202175,6.246525288,-11.38395691,
8.73,,8.736919373,8.746072082000001,8.758557346,,,,,-0.35933089259999995,-3.414636135,-0.3573456407,-14.55459976,28.65779877,-37.92979813,-5.539406776,-23.26013374,-10.11776924,
8.76,8.774774169,8.787718175,,,,0.5799604058,-29.99612617,2.176870346,-2.9288599489999996,-1.8775917290000002,4.2875370980000005,,,,,,,
8.79,,,8.796072082,8.808557346,,,,,,,,-16.39679909,28.1697998,-37.18560028,4.463633537,-5.025875092,-4.755571365,
8.82,8.824774169,8.838517811000001,8.846072082000001,,,8.600103378,-18.54527283,-0.6146563292,-6.469635962999999,1.166870952,2.713841677,-16.64080048,29.90219879,-34.85540009,,,,
8.85,8.874774169,,,8.858557346,,18.69123459,-30.66910744,15.02602863,,,,,,,12.92707539,-20.77586365,-7.265892029,
8.879999999999999,,8.889318227,8.896072082,8.908557346,,,,,-2.879075766,-3.486105204,-0.7247702479000001,-16.71399879,32.70819855,-30.5121994,5.798388957999999,0.799908638,8.215317726,
8.91,8.924774168999999,,,,,2.040180445,-5.217250824,3.055335522,,,,,,,,,,
8.94,,8.940117759,8.946072082,8.958557346000001,,,,,-2.071688414,-1.758782029,-0.05635065958,-17.76319885,35.23360062,-25.04660034,-3.293446779,7.840670586,5.867520332000001,
8.969999999999999,8.974774169,8.990916561,8.996072082000001,,,0.994217813,4.330410957,10.04148006,-1.509250879,3.248027563,0.21150586010000003,-19.26379967,37.30759811,-18.88559914,,,,
9.0,9.024774169,,,9.008557346,,6.093621731,-2.179263115,6.80698204,,,,,,,5.730066299,10.3608284,15.92086983,
9.03,,9.041716248,9.046072082,9.058557346,,,,,3.31903863,1.022558331,-1.223068953,-20.44719887,38.85699844,-13.95679951,-5.321350098,5.993138312999999,6.856915951,
9.06,9.074774169,,,,,-6.812964439,-2.059622049,1.5376876590000002,,,,,,,,,,
9.09,,9.092516612999999,9.096072082000001,9.108557346,,,,,3.481981993,2.109866381,0.1756185889,-21.52079964,40.7602005,-9.821000098999999,-7.551440239,0.5702915192,3.6128776069999997,
9.12,9.124774169,9.143316248,9.146072082,,,2.430509567,-12.51924801,-0.9020941256999999,3.5842990880000003,3.29765892,1.7044165130000002,-21.26459885,43.05379868,-7.5883998870000005,,,,
9.15,9.174774168999999,,,9.158557346,,9.184251785,-30.95145988,-0.1310070455,,,,,,,6.946489811,-9.144148827,-1.527501225,
9.18,,9.194114998,9.196072082,9.208557346000001,,,,,2.876632452,2.664057493,-0.01740914769,-19.75180054,44.12739944,-7.490799904,8.507325172,-34.7243042,13.52401924,
9.209999999999999,9.224774169,,,,,6.153442383,-27.08256531,14.01326656,,,,,,,,,,
9.24,,9.244914686,9.246072082000001,9.258557346,,,,,5.006198883,-2.8098974230000002,-1.455801725,-18.71479988,42.88299942,-9.796599387999999,-3.787970543,-12.08885956,-5.421576022999999,
9.27,9.274774169,9.295715102,9.296072082,,,1.5472589730000001,-13.54636765,-2.08235383,0.48867779969999997,2.3256483080000003,-0.5839699507,-18.12919998,40.11359787,-14.43260002,,,,
9.299999999999999,9.324774169,,,9.308557346,,3.342773199,-1.4587244990000001,-2.513360977,,,,,,,1.72676897,3.6293282510000004,-6.563264847,
9.33,,9.346514686,9.346072082000001,9.358557346,,,,,-1.591257095,3.5997228619999997,0.5205945969,-17.44599915,37.34420013,-21.04500008,-1.46934092,9.375817299,-8.659272194,
9.36,9.374774169,,,,,-1.565205097,2.946461916,-2.872284412,,,,,,,,,,
9.389999999999999,,9.39731354,9.396072082,9.408557346,,,,,-2.314194918,0.1954711229,0.9356653093999999,-15.06699944,35.209198,-27.47439957,-1.259705305,14.70813942,-9.538715363,
9.42,9.424774168999999,9.448113227,9.446072082,,,2.320439816,6.8273210529999995,-7.976474285,-1.706707239,-2.656574726,-0.9388722181,-12.4684,33.74520111,-32.89120102,,,,
9.45,9.474774169,,,9.458557346000001,,0.06281159073,-1.015753269,-2.869891644,,,,,,,0.4656009674,10.48534584,-10.61268902,
9.48,,9.498913696,9.496072082000001,9.508557346,,,,,4.60166502,-2.163468361,-1.637986898,-10.77260017,32.48859787,-36.74639893,-0.00957775116,-10.7610178,11.06918716,
9.51,9.524774169,,,,,-2.362314224,-3.203989506,-15.13250923,,,,,,,,,,
9.54,,9.54971328,9.546072082,9.558557346,,,,,0.7640172243000001,-2.5702924730000003,-1.5184135440000002,-11.11419964,30.03639984,-39.13759995,-8.782722473,5.002849578999999,-8.673886299,
9.57,9.574774169,,9.596072082000001,,,-6.406184196,-11.72453213,-12.67866993,,,,-12.33419991,27.8526001,-40.40639877,,,,
9.6,9.624774169,9.600512186,,9.608557346,,3.390629768,-25.29183578,-5.556134224,-1.297897696,-3.283762217,2.2723517419999997,,,,-7.724603653,-22.58386612,-15.54077721,
9.629999999999999,,9.651311873,9.646072082,9.658557346,,,,,-6.932199955,-1.677539229,3.8549044130000003,-13.87139988,27.95019913,-39.25959778,15.09181023,-20.33086014,-2.791532516,
9.66,9.674774168999999,,,,,23.84567451,-36.42205048,-5.12273407,,,,,,,,,,
9.69,,9.702112342000001,9.696072082,9.708557346000001,,,,,-3.546273708,-4.374735355,1.171910524,-14.87179947,30.29259872,-35.5141983,30.30693054,-8.833239555,36.88156891,
9.719999999999999,9.724774169,,9.746072082000001,,,14.4323101,-14.45145226,2.3994028569999997,,,,-16.75059891,32.30559921,-29.38979912,,,,
9.75,9.774774169,9.75291203,,9.758557346,,-3.375076294,-1.896611094,2.1744775769999998,-2.317859888,0.34864106770000003,0.057877779010000005,,,,-0.662273407,2.442054749,5.16428566,
9.78,,9.803710884,9.796072082,9.808557346,,,,,-1.108535051,0.5919110179,0.4923428893,-19.21500015,34.42839813,-23.4727993,-3.108188629,13.34795666,14.69875908,
9.81,9.824774169,,,,,4.259523392,1.43359983,7.719245911000001,,,,,,,,,,
9.84,,9.854510623,9.846072082000001,9.858557346,,,,,1.9838792090000001,-0.1750077456,-0.6064186096,-21.61839867,35.98999786,-17.92179871,3.872636318,7.611729622,4.97671032,
9.87,9.874774169,,9.896072082,,,3.845565081,0.06879365444,2.863909483,,,,-23.02140045,37.46619797,-13.37119961,,,,
9.9,9.924774168999999,9.905311092,,9.908557346,,-1.1078768970000001,0.04965107143,4.108775616,2.802872658,0.8229639529999999,-0.6430694460999999,,,,-2.177539587,10.77332783,6.787423134,
9.93,,9.956110727,9.946072082,9.958557346000001,,,,,3.572082043,4.016320705,-0.5978667736,-24.18039894,40.25999832,-9.406199455,3.226256132,3.8323974610000002,1.140251875,
9.959999999999999,9.974774169,,,,,10.95583725,-10.92473125,0.2087737769,,,,,,,,,,
9.99,,10.00690963,9.996072082000001,10.00855735,,,,,1.7039583919999999,4.85577774,-3.541692495,-23.96080017,42.46820068,-7.344399929,15.50438118,-14.13985252,-0.5007967949000001,
10.02,10.02477417,,10.04607208,,,17.84866142,-38.44039536,1.748256087,,,,-23.63139915,42.56579971,-7.600599766,,,,
10.049999999999999,10.07477417,10.05770942,,10.05855735,,3.050549746,-28.02114868,6.845267296,4.394740582,-1.545138121,-3.007048368,,,,2.761371613,-35.37017822,3.736332417,
10.08,,10.10850989,10.09607208,10.10855735,,,,,1.023932695,0.1392731816,-0.7719582319,-24.10719872,39.99160004,-10.52859974,-3.570985556,-4.062739372,-6.729879379,
10.11,10.12477417,,,,,2.99551487,-4.336392879,-1.270588875,,,,,,,,,,
10.139999999999999,,10.15930963,10.14607208,10.15855735,,,,,-1.301715493,1.3518049719999998,0.22815145550000002,-24.70499992,37.31979752,-15.46959972,-3.008841991,8.947250366,-5.855640888,
10.17,10.17477417,,10.19607208,,,-0.1597209126,0.9475577474,-2.79571414,,,,-24.90019989,34.45280075,-20.63019943,,,,
10.2,10.22477417,10.21010854,,10.20855735,,-3.911367655,-0.36939200759999996,-3.198007345,-1.338977218,-1.037982225,1.295454383,,,,-8.25370121,7.105031967,-7.849315643,
10.23,,,10.24607208,10.25855735,,,,,,,,-25.2173996,32.17139816,-25.49799919,-4.672058582,9.712604523,-7.78038311,
10.26,10.27477417,10.26090828,,,,0.2231307179,2.515454769,-4.227519512,-0.9732323884999999,-0.2564031482,1.83742857,,,,,,,
10.29,,10.3117088,10.29607208,10.30855735,,,,,2.44170928,0.667656064,-0.37597647310000004,-25.27840042,30.36579895,-29.48740005,-3.9385986330000002,9.867492676,-2.925387621,
10.32,10.32477417,,10.34607208,,,11.16431236,-4.695316315,24.73879433,,,,-24.99779892,28.1697998,-33.04980087,,,,
10.35,10.37477417,10.36250849,,10.35855735,,-2.2354946140000003,-2.7801609039999997,-2.00099802,0.3837648034,-4.950917243999999,-2.188207626,,,,-3.524944782,5.070455551,-15.53307152,
10.379999999999999,,,10.39607208,10.40855735,,,,,,,,-26.32759857,25.93719864,-34.0257988,-11.64458656,-21.44680595,-8.532644272,
10.41,10.42477417,10.41330745,,,,-1.780559182,-44.39912415,-14.46461296,1.105022669,-1.798181653,0.3707842827,,,,,,,
10.44,,10.46410729,10.44607208,10.45855735,,,,,-4.9281630519999995,-0.6131379604,4.22034359,-28.02339935,24.49759865,-33.46459961,3.686644554,-19.06643486,-6.7050933839999995,
10.469999999999999,10.47477417,,10.49607208,,,12.23689461,-23.83849525,-2.9970104689999997,,,,-28.57239914,26.08359909,-30.96360016,,,,
10.5,10.52477417,10.51490781,,10.50855735,,36.6134758,-16.55594063,57.22913742,-4.331365108,-3.2807078360000004,2.6344316009999997,,,,21.64199638,-18.93735886,-8.808038712,
10.53,,,10.54607208,10.55855735,,,,,,,,-30.36579895,29.46299934,-26.96199989,10.28476334,1.7936816219999998,-1.668096066,
10.559999999999999,10.57477417,10.5657076,,,,2.96201539,-6.460022926000001,9.021539687999999,-1.9664700030000002,-0.5948125124,0.6383354068,,,,,,,
10.59,,10.61650651,10.59607208,10.60855735,,,,,-1.068524599,0.020157959309999997,0.9596410394,-30.81719971,32.03720093,-21.97220039,-6.143177509,8.873750687000001,6.918779373,
10.62,10.62477417,,10.64607208,,,-5.101198673,2.414956331,8.073383331,,,,-31.06119919,34.09899902,-17.16539955,,,,
10.65,10.67477417,10.66730635,,10.65855735,,4.6211385730000005,-0.5105685592,0.2566302419,1.20810318,0.7340856791,0.00763559062,,,,2.7188453669999997,8.63418293,4.605710983,
10.68,,,10.69607208,10.70855735,,,,,,,,-31.32959938,35.80699921,-12.88319969,2.811379433,13.41609573,9.563692093,
10.709999999999999,10.72477417,10.71810687,,,,5.308177948,5.156233788,7.53469944,1.9912093880000001,-0.3454341292,-0.15912571550000001,,,,,,,
10.74,,10.76890661,10.74607208,10.75855735,,,,,3.3607289789999997,3.295979023,-1.079519868,-31.56139946,36.97819901,-8.637599945,1.226834774,9.516614914,3.538997412,
10.77,10.77477417,,10.79607208,,,4.642673969,-3.905385733,2.9213373660000004,,,,-30.792799,39.39379883,-6.417200089,,,,
10.799999999999999,10.82477417,10.81970562,,10.80855735,,17.82234192,-21.60748672,4.005884171,2.191414595,2.97833848,-3.8932349680000002,,,,9.746623993,-4.092693328999999,-1.99039948,
10.83,,,10.84607208,10.85855735,,,,,,,,-29.71920013,41.01639938,-6.099999905,8.364431381000001,-51.41566849,-1.617870331,
10.86,10.87477417,10.87050547,,,,8.935398102,-47.93751144,8.626424789,4.147653103000001,-0.22830416260000003,-3.6169793610000003,,,,,,,
10.889999999999999,,,10.89607208,10.90855735,,,,,,,,-29.73139954,39.46699905,-7.868999958,-3.364472389,-14.79002571,-4.036730288999999,
10.92,10.92477417,10.92130604,10.94607208,,,4.261916161,-11.68863964,-3.882653952,1.659977436,0.1395785958,-1.236202121,-30.02419853,35.98999786,-11.33379936,,,,
10.95,10.97477417,10.97210578,,10.95855735,,4.556532383,5.283053398,-3.001796007,-0.1430909634,-1.6847167019999998,0.2754921019,,,,-1.959644318,6.513669491,-7.056624413,
10.98,,,10.99607208,11.00855735,,,,,,,,-30.792799,32.73260117,-15.40859985,-12.27207375,10.25310326,-5.179228306000001,
11.01,11.02477417,11.02290484,,,,-7.701299667000001,-2.459223509,-0.9116654395999999,-1.405406833,-1.524369359,0.5928272605,,,,,,,
11.04,,,11.04607208,11.05855735,,,,,,,,-32.13479996,29.48740005,-19.0564003,-9.731131554,6.367073536,-5.360076427,
11.07,11.07477417,11.07370469,11.09607208,,,0.1944168359,0.2745763958,-1.292423368,-1.62699163,-0.1140757278,3.0577485560000004,-33.34259796,27.2670002,-21.9843998,,,,
11.1,11.12477417,11.12450531,,11.10855735,,9.3807621,-0.8650053740000001,14.03719521,-0.033443886789999995,1.99838686,-0.1721062213,,,,-2.753361225,9.969626427,5.335794449,
11.129999999999999,,,11.14607208,11.15855735,,,,,,,,-34.11119843,25.29059982,-24.71719933,7.420911312,1.9304041859999999,5.189023972,
11.16,11.17477417,11.1753051,,,,-1.296909928,-7.474878788,4.257130623,1.477181435,-0.6749862431999999,-1.869039893,,,,,,,
11.19,,,11.19607208,11.20855735,,,,,,,,-35.39220047,23.09459877,-26.13239861,-7.535661697,-14.69239521,-12.91772842,
11.219999999999999,11.22477417,11.22610411,11.24607208,,,-0.2557329237,-27.12084961,-3.8874394889999997,-0.16813570260000002,1.032484531,2.015032291,-36.13639832,21.91119957,-26.54719925,,,,
11.25,11.27477417,11.27690396,,11.25855735,,7.4677004810000005,-14.60459328,-9.642776489,-3.487479687,2.2274544240000003,1.9993031019999998,,,,3.5597558019999997,-6.940671921,-9.941184044,
11.28,,,11.29607198,11.30855735,,,,,,,,-35.68499756,22.96039963,-26.1201992,-0.4197256565,-11.9066782,-3.5770173069999998,
11.309999999999999,11.32477417,11.32770448,,,,4.041776657,-22.05733871,0.19920247789999998,-6.933574677,-0.22540263829999999,2.2129468919999997,,,,,,,
11.34,,,11.34607198,11.35855735,,,,,,,,-34.3185997,26.14459991,-24.46100044,8.849882126,-17.16680908,18.8556633,
11.37,11.37477417,11.37850427,11.39607198,,,10.63280678,-15.69153309,31.82035446,-1.781994224,-2.482635975,0.9729269743000001,-32.854599,29.74359894,-21.1303997,,,,
11.4,11.42477417,11.42930333,,11.40855735,,5.375176907,-2.543271303,-3.341576815,0.1296523362,-1.7645850180000002,0.1571404636,,,,5.936822891,3.386107445,4.13777256,
11.43,,,11.44607198,11.45855735,,,,,,,,-30.92700005,33.22060013,-18.37319946,-0.7497813701999999,10.89549255,3.7773330210000005,
11.459999999999999,11.47477417,11.48010323,,,,3.6490545269999997,2.324028969,4.66899538,-1.033859015,1.221694469,-0.1812689304,,,,,,,
11.49,,,11.49607198,11.50855735,,,,,,,,-29.3409996,35.61180115,-15.75019932,4.843448639,11.76019764,11.39860821,
11.52,11.52477417,11.53090385,11.54607198,,,3.086441994,1.21555388,3.7423746589999998,2.0839054580000003,0.661242187,-1.065775752,-28.41379929,37.23439789,-13.44439983,,,,
11.549999999999999,11.57477417,,,11.55855735,,-1.644168258,-5.150251865,4.05613327,,,,,,,-3.906196117,8.571495056,6.780187607,
11.58,,11.58170364,11.59607198,11.60855735,,,,,3.187401056,1.340504289,0.0114533864,-26.96199989,39.57679749,-11.87059975,0.7233905792,0.10005092619999999,-0.3792860806,
11.61,11.62477417,11.63250276,,,,5.487938881,-14.80080414,0.48424747590000006,2.967801332,3.078975677,0.3226800561,,,,,,,
11.639999999999999,,,11.64607198,11.65855735,,,,,,,,-25.35159874,41.44339752,-11.24839973,5.338468552,-18.00234222,1.6483716959999999,
11.67,11.67477417,11.68330265,11.69607198,,,7.546663284,-37.32952881,2.25104785,2.591977596,3.75090766,0.09956810623,-23.59479904,42.18759918,-11.83399963,,,,
11.7,11.72477417,,,11.70855735,,1.214357495,-25.19373131,7.434200764,,,,,,,4.462053299,-23.79563141,6.517378807,
11.73,,11.73410333,11.74607198,11.75855735,,,,,4.377026081,-0.46668729189999997,-1.826280594,-22.56999969,39.62559891,-14.48139954,-1.5496085880000001,-6.995745659,-2.958561659,
11.76,11.77477417,11.78490312,,,,1.188036442,-8.305786133,0.7713862062000001,0.9199360013,-0.02367033064,-1.160151601,,,,,,,
11.79,,,11.79607198,11.80855735,,,,,,,,-21.61839867,36.74639893,-19.48340034,-2.033461809,3.0632295610000004,-6.65943718,
11.82,11.82477417,11.83570224,11.84607198,,,0.2590230405,-2.042872429,-1.4934204819999999,-1.337755442,1.373490095,-0.3101576865,-20.60579872,33.86719894,-24.6317997,,,,
11.85,11.87477417,,,11.85855735,,-2.340778828,4.093222141,-2.589931488,,,,,,,-5.869859695,10.04494381,-7.527020454,
11.879999999999999,,11.88650213,11.89607198,11.90855735,,,,,-1.442973971,-1.710066915,1.1557229759999998,-19.44680023,31.3783989,-29.78019905,-0.15950512890000001,16.1643219,-12.9567318,
11.91,11.92477417,11.93730281,,,,3.637090445,5.783452511,-6.652645111,-0.7724163531999999,-1.4348802569999999,-0.1594311297,,,,,,,
11.94,,,11.94607198,11.95855735,,,,,,,,-18.78800011,29.6337986,-34.17219925,-3.2065727710000003,7.943434237999999,-3.6697144510000004,
11.969999999999999,11.97477417,11.98810271,11.99607198,,,-2.1876380440000003,-3.232703447,7.893921852,0.13362284,1.901872993,-0.9009997248999999,-17.84860039,27.91359901,-37.40520096,,,,
12.0,12.02477417,,,12.00855735,,1.511366606,-3.440878868,-0.2030908167,,,,,,,1.1782460209999999,3.670447826,-0.08142280579,
12.03,,12.03890177,12.04607198,12.05855735,,,,,0.8092198968000001,-3.3172061439999996,-1.151294351,-17.76319885,26.29100037,-39.2840004,-4.06818676,-12.63058281,-11.30270576,
12.059999999999999,12.07477417,12.08970166,,,,1.9468603130000002,-24.49472809,-4.105485439,1.1247224809999998,-0.1928750277,0.8489249945,,,,,,,
12.09,,,12.09607198,12.10855735,,,,,,,,-18.93440056,24.66839981,-39.88179779,1.2632598879999999,-13.02790356,-14.55928802,
12.12,12.12477417,12.14050234,12.14607198,,,7.216454028999999,-9.229715347,-4.007080555,-5.454560757,0.3272614181,1.465728045,-20.27639961,25.32719994,-38.95459747,,,,
12.15,12.17477417,,,12.15855735,,2.966800928,-29.08416176,-4.656133652,,,,,,,0.497730732,-15.83294106,-4.119748116,
12.18,,12.19130229,12.19607198,12.20855735,,,,,-7.649487495,-4.479495525,1.323095202,-21.15480042,27.37679863,-35.90459824,10.23237228,-18.65118027,19.67862892,
12.209999999999999,12.22477417,,,,,16.01695633,-18.41605949,32.48854828,,,,,,,,,,
12.24,,12.24210135,12.24607198,12.25855735,,,,,-0.6126797795000001,-2.29220438,1.021336675,-22.3015995,30.07299995,-30.78059959,9.304403305,1.601977825,7.658229828,
12.27,12.27477417,12.2929013,12.29607198,,,6.984051227999999,-3.335594654,-0.09750752151,-1.204743505,0.5781669021,0.7052231431,-23.32639885,32.48859787,-25.57119942,,,,
12.299999999999999,12.32477417,,,12.30855735,,3.5748770239999996,4.387838363999999,6.876374245,,,,,,,1.134696364,12.54410362,2.350453377,
12.33,,12.34370198,12.34607198,12.35855735,,,,,-0.462564081,1.335617542,-0.5390726924,-23.85099983,34.80659866,-20.58139992,2.170189857,7.113530159,12.64272499,
12.36,12.37477417,,,,,1.690828323,-3.493520975,1.360319614,,,,,,,,,,
12.389999999999999,,12.39450182,12.39607198,12.40855735,,,,,2.1229996680000003,1.505280375,-0.8270871639,-24.6196003,36.6975975,-15.99419975,-3.834628105,10.64127541,3.173564911,
12.42,12.42477417,12.44530099,12.44607198,,,-3.6074793339999998,-2.164906263,6.435795784,2.993762493,2.625421524,0.46103698020000006,-24.97340012,38.69839859,-12.35859966,,,,
12.45,12.47477417,,,12.45855735,,2.662912607,-16.11536217,-4.107878208,,,,,,,-2.671087742,-0.36111164090000003,1.136541128,
12.48,,12.49610093,12.49607198,12.50855735,,,,,3.68890667,2.710481882,0.8657232523,-24.42440033,40.7602005,-10.34560013,3.776023626,-19.81395912,-0.25746345519999997,
12.51,12.52477417,,,,,8.442177773,-36.27608871,1.604686737,,,,,,,,,,
12.54,,12.54690161,12.54607198,12.55855735,,,,,3.5630719660000003,2.078713179,0.20982603730000002,-22.8993988,41.08959961,-10.00399971,10.36109352,-17.36923218,7.607699394,
12.57,12.57477417,12.59770156,12.59607198,,,4.795814991,-25.73241425,9.600901604,4.293034554,-1.453052878,-1.825669765,-21.45979881,39.85739899,-12.49279976,,,,
12.6,12.62477417,,,12.60855735,,0.2087737769,-14.1305151,0.35234314200000005,,,,,,,-4.044500351,-11.56373978,-1.55112505,
12.629999999999999,,12.64850062,12.64607198,12.65855735,,,,,0.9562813640000001,-0.5690042377000001,-0.6592568755,-20.30080032,37.25880051,-17.42160034,-2.578826666,2.754681587,-7.714286803999999,
12.66,12.67477417,,,,,1.111466169,-2.373081923,-3.46121788,,,,,,,,,,
12.69,,12.69930062,12.69607198,12.70855735,,,,,-1.030652046,0.6164975762,0.41736137869999995,-19.49559975,34.3429985,-22.80179977,-4.47274065,9.770874977,-7.7846264839999995,
12.719999999999999,12.72477417,,12.74607198,,,-3.2291140560000002,5.12273407,-2.951247692,,,,-18.71479988,32.23239899,-28.80419922,,,,
12.75,12.77477417,12.7501013,,12.75855735,,3.809672832,5.12273407,-8.321339607,-1.5833160880000001,-2.29586935,1.565907001,,,,-1.7469753030000001,15.0850544,-12.61550903,
12.78,,12.80090125,12.79607198,12.80855735,,,,,-1.656617761,-1.207950473,0.1391204596,-18.04380035,30.36579895,-33.29380035,-0.2387104034,10.21536064,-6.845915317999999,
12.809999999999999,12.82477417,,,,,1.125823021,0.3873381615,1.156929731,,,,,,,,,,
12.84,,12.85170031,12.84607198,12.85855735,,,,,1.295454383,-0.20600824059999998,-1.35760808,-17.53139877,28.96279907,-36.57559967,7.825228691,2.7344799039999996,9.327407837,
12.87,12.87477417,,12.89607198,,,2.310868502,0.03529413417,-2.9177482130000003,,,,-17.98279953,27.30360031,-38.40559769,,,,
12.9,12.92477417,12.90250031,,12.90855735,,-3.243471146,-23.48675156,-6.724429607,1.0167552229999999,-1.611415029,-2.015490532,,,,-6.282319069,-8.446329117000001,-5.893476486,
12.93,,12.95330104,12.94607198,12.95855735,,,,,0.04382828996,-1.540404081,1.511541486,-19.78839874,25.48579979,-39.06439972,-5.3652429580000005,-23.35333061,-14.58573246,
12.959999999999999,12.97477417,,,,,3.8001015189999996,-17.50618935,-4.462016106,,,,,,,,,,
12.99,,13.00410099,12.99607198,13.00855735,,,,,-6.208193302000001,0.024586603050000003,4.282497406,-21.80139923,25.51019859,-37.8565979,8.275641441,-14.7241106,-3.55702734,
13.02,13.02477417,,13.04607198,,,14.87737465,-26.73321342,-2.776571512,,,,-22.80179977,27.8647995,-34.68460083,,,,
13.049999999999999,13.07477417,13.05490005,,13.05855735,,13.14646626,-16.36900139,20.68565178,-5.38629818,-3.047364235,0.9765920639,,,,22.47554398,-12.98614883,56.10394287,
13.08,,13.10570005,13.09607198,13.10855735,,,,,-0.7928797603,-0.86740309,0.1577513069,-23.68019867,30.86599922,-29.64599991,-0.04989397526000001,-1.351247787,5.007837296,
13.11,13.12477417,,,,,-1.835594058,-5.722435474,-1.689631939,,,,,,,,,,
13.139999999999999,,13.15650078,13.14607198,13.15855735,,,,,-1.997928619,-0.35688751939999996,1.6199669840000002,-24.77820015,33.76959991,-24.38780022,-0.9990363717,11.22217369,8.895205498,
13.17,13.17477417,,13.19607198,,,6.49322319,2.046461582,13.01007557,,,,-25.08320045,36.01440048,-19.20279884,,,,
13.2,13.22477417,13.20730073,,13.20855735,,6.416653156000001,0.4878367186,0.48424747590000006,1.269493341,2.285485029,-0.2909159958,,,,7.532069683,9.434693336,7.946349144,
13.229999999999999,,13.25809984,13.24607198,13.25855735,,,,,2.076880693,0.23013670739999997,-1.283390045,-25.33939934,37.8565979,-14.94499969,1.195864797,12.02620697,4.014284611,
13.26,13.27477417,,,,,-1.665703654,0.123828575,8.423034668,,,,,,,,,,
13.29,,13.30889984,13.29607198,13.30855735,,,,,3.847115993,3.084015131,-0.3109212518,-25.32719994,40.00379944,-11.39480019,-3.0249457360000003,1.512414932,2.325297117,
13.32,13.32477417,,13.34607198,,,4.192524433,-12.52164078,-0.9236295223000001,,,,-24.69279861,42.61459732,-9.52820015,,,,
13.35,13.37477417,13.35970057,,13.35855735,,13.55354595,-31.26521873,-1.079162955,1.8694980140000002,5.175708771,0.1033858955,,,,8.399065971,-17.73100281,-0.6455980539,
13.379999999999999,,,13.39607198,13.40855735,,,,,,,,-23.13119888,43.85899734,-9.454999924,4.112096786,-32.0411377,11.75901413,
13.41,13.42477417,13.41050052,,,,2.109871387,-32.18675613,8.372785568,4.237294674,0.5193728805,-1.355470061,,,,,,,
13.44,,13.46129963,13.44607198,13.45855735,,,,,2.790961027,-0.5470137,-1.138161182,-22.05760002,42.51699829,-12.12679958,0.31364560129999997,-8.879435539,-4.850288391,
13.469999999999999,13.47477417,,13.49607198,,,3.366701365,-9.627223015,-2.400898457,,,,-21.21579933,40.04039764,-16.97019958,,,,
13.5,13.52477417,13.51209963,,13.50855735,,-0.9786644578,-3.737888098,-3.26979208,-0.2585411072,1.236965656,-1.110062122,,,,-3.9439320560000004,2.142203331,-6.587183952,
13.53,,,13.54607198,13.55855735,,,,,,,,-20.98399925,37.19779968,-22.35039902,-6.941344261,9.466709137,-9.269117355,
13.559999999999999,13.57477417,13.56290036,,,,-5.304887772,3.18843627,-4.548157692,-1.0248489379999999,0.4676035643,0.4947862923,,,,,,,
13.59,,13.61370031,13.59607198,13.60855735,,,,,-1.976854444,-1.4034215209999998,1.6792191269999999,-20.27639961,34.66019821,-28.1576004,-4.166557312,14.62631989,-9.824659347999999,
13.62,13.62477417,,13.64607198,,,2.523829699,5.5154562,-5.603990555,,,,-19.61759949,32.79359818,-32.8423996,,,,
13.65,13.67477417,13.66449942,,13.65855735,,1.90378952,2.261815548,2.0593230719999998,-0.2565558553,-0.7566870451000001,-0.04902049154,,,,0.8673913479,12.23370075,-6.32644558,
13.68,,,13.69607198,13.70855735,,,,,,,,-18.7757988,31.20759964,-36.55120087,2.786275625,-0.8047533035,7.503031254,
13.709999999999999,13.72477417,13.71529942,,,,-0.43040898439999997,-4.298107624,-3.468396425,3.375083923,-2.088639498,-1.895000935,,,,,,,
13.74,,13.7661002,13.74607198,13.75855735,,,,,0.338409394,-1.15602839,-0.2530434728,-18.90999985,29.18239975,-38.82040024,-7.237746239,-6.111742496000001,-9.280248642,
13.77,13.77477417,,13.79607198,,,-2.668894529,-27.58535767,-9.753145218,,,,-20.16659927,27.25479889,-39.88179779,,,,
13.799999999999999,13.82477417,13.81690015,,13.80855735,,4.836492538,-17.87498283,-3.121437073,-3.7464790339999996,0.8192988634,3.6079692839999997,,,,-3.980725765,-17.791605,-9.494206429,
13.83,,,13.84607198,13.85855735,,,,,,,,-20.8375988,27.66959953,-39.0033989,9.050246239,-14.89407158,-9.235517502,
13.86,13.87477417,13.86769927,,,,15.38495255,-30.71217728,-3.1070802210000004,-9.298622131,-2.036717415,2.273420811,,,,,,,
13.889999999999999,,13.91849932,13.89607198,13.90855735,,,,,-1.204285383,-2.98979187,-1.1696197990000001,-20.95960045,30.14620018,-35.62400055,15.5613966,-12.97881889,36.15961838,
13.92,13.92477417,,13.94607198,,,8.458927155,-13.52722454,6.373582363,,,,-21.59399986,32.97660065,-30.23159981,,,,
13.95,13.97477417,13.96930005,,13.95855735,,-3.320041418,-3.977170229,0.7474579811,-1.886296391,-0.3106158376,0.5383091569,,,,-1.6515603069999998,2.3661017419999997,0.9889618158,
13.979999999999999,,,13.99607198,14.00855735,,,,,,,,-22.49679947,35.44099808,-24.80259895,-1.603658676,11.98696709,15.90875435,
14.01,14.02477417,14.02010005,,,,6.517151356,1.8762720819999998,9.818648338,-0.1449235082,0.549762547,0.6018372774,,,,,,,
14.04,,,14.04607198,14.05855735,,,,,,,,-23.08239937,37.35639954,-19.59319878,6.329387187999999,6.464225769,6.7520504,
14.07,14.07477417,14.07089916,14.09607198,,,5.913861275,-0.2904288471,-0.8542376757,2.42246747,1.4614521269999998,-0.47371205689999996,-23.58259964,39.13759995,-15.42079926,,,,
14.1,14.12477417,14.12169922,,14.10855735,,-4.328018188,-1.1952148679999999,7.154240607999999,2.774315596,-0.021990500389999997,-0.3239017725,,,,-2.162942171,11.92776108,5.806633949,
14.129999999999999,,,14.14607198,14.15855735,,,,,,,,-24.14379883,41.78499985,-11.61439991,-0.01711463928,1.797510147,1.75403583,
14.16,14.17477417,14.17249994,,,,6.486044884,-12.80907917,1.674078584,3.656989813,4.502249718,0.498604089,,,,,,,
14.19,,,14.19607198,14.20855735,,,,,,,,-22.91160011,44.09079742,-9.772199631,10.45237732,-14.42714977,-2.051341772,
14.219999999999999,14.22477417,14.22329994,14.24607198,,,11.93270779,-45.81178665,6.029015541000001,3.2113766669999997,2.511956692,-2.505695343,-22.19179916,44.40800095,-9.796599387999999,,,,
14.25,14.27477417,14.27409911,,14.25855735,,0.1441675574,-26.76671219,3.64426899,4.556920528,-1.872552276,-1.7332791090000002,,,,-2.556920767,-30.72968483,4.956375122,
14.28,,,14.29607198,14.30855735,,,,,,,,-22.38699913,42.22419739,-12.68799973,-1.247772932,-2.026771069,-9.29174614,
14.309999999999999,14.32477417,14.32489916,,,,3.711267948,-3.9987056260000005,-4.624728203,0.19180603329999998,1.015075445,-1.007287145,,,,,,,
14.34,,,14.34607198,14.35855735,,,,,,,,-21.53299904,39.13759995,-17.56799889,-3.047606945,5.51566124,-7.304450512000001,
14.37,14.37477417,14.37569989,14.39607198,,,-2.393420935,-2.543271303,-3.655335665,-1.275143623,1.234064221,0.2266243398,-20.95960045,36.51459885,-22.875,,,,
14.399999999999999,14.42477417,14.42649984,,14.40855735,,-4.471587181,3.3583266739999997,-4.462016106,-1.742899895,-2.2561643119999997,1.317139387,,,,-7.762764931,9.12091732,-9.641541481,
14.43,,,14.44607198,14.45855735,,,,,,,,-20.73999977,34.41619873,-27.82819939,-3.704169035,16.17364883,-8.993159294,
14.459999999999999,14.47477417,14.47729906,,,,1.5735800269999998,8.084151268,-2.1421744819999997,-1.01171577,-1.6946430209999999,0.9425373077,,,,,,,
14.49,,,14.49607198,14.50855735,,,,,,,,-20.65460014,32.79359818,-31.51259995,5.86763382,7.701334953,56.87908554,
14.52,14.52477417,14.52809911,14.54607198,,,10.61366367,-9.933803558,8.858827591,3.3369059560000003,1.4474025959999999,-0.9174925684999999,-20.08119965,30.87819862,-35.12379837,,,,
14.549999999999999,14.57477417,14.57889989,,14.55855735,,-3.5066816810000003,-6.1008005139999995,-1.742274046,1.254527569,-0.6539120078,-0.9520054459999999,,,,-4.300151348,4.221712112,-5.275542259,
14.58,,,14.59607198,14.60855735,,,,,,,,-20.86199951,28.67000008,-37.16119766,-4.524391651,-25.04241753,-19.43385315,
14.61,14.62477417,14.62969989,,,,0.45314079520000006,-39.40500259,-11.54148102,-1.644858956,-0.7708892226,1.645011663,,,,,,,
14.639999999999999,,,14.64607198,14.65855735,,,,,,,,-21.91119957,27.13279915,-38.00299835,3.510403395,-9.179340363,-4.790027142,
14.67,14.67477417,14.68049906,14.69607198,,,9.069396019,-19.99861336,-4.016652107,-9.148659706,0.749509573,2.278918505,-21.81359863,28.69439888,-36.34379959,,,,
14.7,14.72477417,,,14.70855735,,15.8183527,-26.88396072,49.97499847,,,,,,,12.19997215,-25.84802628,8.722722054,
14.729999999999999,,14.73129911,14.74607198,14.75855735,,,,,-3.5594069960000003,-3.819780588,-0.7562289238,-21.7038002,30.86599922,-31.9762001,3.69449091,-3.34445858,6.159646034,
14.76,14.77477417,14.78209989,,,,2.483151674,-9.241679192000001,1.472782373,-1.822004676,-1.938218355,0.2414373755,,,,,,,
14.79,,,14.79607198,14.80855735,,,,,,,,-22.49679947,33.40359879,-26.81559944,-2.017115593,7.375487327999999,7.473812102999999,
14.82,14.82477417,14.83289984,14.84607198,,,3.215953588,4.392624378,7.417450905,-1.562547326,0.3854446113,0.5088357925,-23.00919914,35.36779785,-21.64279938,,,,
14.85,14.87477417,,,14.85855735,,7.2188467979999995,-2.761018276,8.078168869,,,,,,,7.00860548,8.891636848,15.35894966,
14.879999999999999,,14.88369906,14.89607198,14.90855735,,,,,2.099940062,0.9330691695000001,-1.109604001,-23.4727993,36.86840057,-17.05559921,-1.263427019,8.355930328,3.1083469389999996,
14.91,14.92477417,14.93449916,,,,-0.18604196609999998,2.520240545,2.576471806,2.195079565,1.081352353,-0.614054203,,,,,,,
14.94,,,14.94607198,14.95855735,,,,,,,,-24.68059921,38.44219971,-12.77339935,-8.495004654,5.291250229,4.705868721,
14.969999999999999,14.97477417,14.98529994,14.99607198,,,-0.7199404836,-8.214859009,-0.14297115800000001,3.4386119839999996,3.0409502980000003,0.5140279531,-24.91239929,40.7602005,-9.345199585,,,,
15.0,15.02477417,,,15.00855735,,8.056633949,-31.98336411,-0.8829515576000001,,,,,,,3.8733184339999998,-10.25166035,-0.5920789242,
15.03,,15.03609994,15.04607198,15.05855735,,,,,2.595642805,4.236836433,-0.5250232220000001,-24.48539925,42.73659897,-7.600599766,8.942899704,-34.91333389,12.01699448,
15.059999999999999,15.07477417,15.08689911,,,,7.680960655,-34.43959808,12.7947216,5.860468387999999,-1.311489105,-1.119072199,,,,,,,
15.09,,,15.09607198,15.10855735,,,,,,,,-24.38780022,41.80939865,-8.857199669,-1.0097801690000001,-17.24061966,-5.543504238,
15.12,15.12477417,15.13769922,15.14607198,,,3.0720851419999997,-16.42642784,-1.2900304790000001,2.144531965,-0.1481304616,-0.8773293495000001,-23.49720001,38.61299896,-13.13939953,,,,
15.149999999999999,15.17477417,,,15.15855735,,2.219941139,-3.189632654,-3.9664025310000004,,,,,,,-0.16159820560000002,2.519033432,-8.314307213,
15.18,,15.1885,15.19607198,15.20855735,,,,,-0.3524588645,2.482025146,-0.1107160673,-22.86279869,35.66059875,-18.88559914,-3.853638887,7.273991585,-10.09708214,
15.209999999999999,15.22477417,15.23929994,,,,-2.580360174,1.251446247,-5.462814331000001,-1.76657033,-0.2214321345,0.9810206890000001,,,,,,,
15.24,,,15.24607198,15.25855735,,,,,,,,-21.76479912,32.91559982,-25.14419937,-7.067230225,13.91520309,-10.58653641,
15.27,15.27477417,15.29009922,15.29607198,,,-0.8398807645,8.366803168999999,-8.407481193999999,-2.6121356490000003,-3.517564058,1.3441693780000001,-20.92300034,30.98799896,-30.35359955,,,,
15.299999999999999,15.32477417,,,15.30855735,,1.501795292,1.241874933,1.38185513,,,,,,,-0.8297590017,12.32332897,-6.037312507999999,
15.33,,15.34089927,15.34607198,15.35855735,,,,,1.3614258769999998,1.697544575,-0.2803788781,-20.02019882,29.76799965,-34.0135994,4.924939156000001,-0.8314371109,20.08218575,
15.36,15.37477417,,,,,6.0625152589999995,-6.385546207000001,-3.5186457630000003,,,,,,,,,,
15.389999999999999,,15.3917001,15.39607198,15.40855735,,,,,2.725905895,-3.651644945,-0.6592568755,-19.50779915,27.8769989,-37.31979752,-3.568703175,3.790150166,-7.007121086000001,
15.42,15.42477417,15.4425001,15.44607198,,,-2.190030813,-11.32941723,-7.931010722999999,-0.8261709212999999,0.040621344,0.37750360369999997,-20.14220047,26.02260017,-38.84479904,,,,
15.45,15.47477417,,,15.45855735,,2.468794823,-33.04159164,-8.005187988,,,,,,,-4.332785606,-28.5641613,-16.2568264,
15.479999999999999,,15.49329927,15.49607198,15.50855735,,,,,-5.387672901,0.9796462655,2.803483486,-20.73999977,25.8151989,-38.64960098,5.052836895,-10.83704948,-2.315785408,
15.51,15.52477417,,,,,9.007183075,-23.10599327,-0.9068797826999999,,,,,,,,,,
15.54,,15.54409937,15.54607198,15.55855735,,,,,-9.113535881,-1.628213406,0.7003363967,-20.58139992,28.24300003,-35.91679764,11.20713234,-24.24010086,-4.60902071,
15.57,15.57477417,15.59490021,15.59607198,,,11.82981586,-25.30140686,49.45067215,-1.401130915,-3.634083033,-1.073105931,-20.91079903,31.45159912,-30.45119858,,,,
15.6,15.62477417,,,15.60855735,,-0.7704889178000001,-7.812565804,2.490330219,,,,,,,0.5430386065999999,-2.302910805,4.5012183189999995,
15.629999999999999,,15.6457002,15.64607198,15.65855735,,,,,-0.9051229358,-1.154348612,1.1500726940000001,-22.00880051,34.2942009,-24.0705986,0.2932432294,10.86493587,7.20278883,
15.66,15.67477417,,,,,4.063312054,6.2718873020000006,8.784351349,,,,,,,,,,
15.69,,15.69649942,15.69607198,15.70855735,,,,,0.5373928547,-0.2112004459,-0.1149920002,-22.48460007,36.40480042,-18.31220055,9.049669266,8.617150307000001,10.2621851,
15.719999999999999,15.72477417,15.74729948,15.74607198,,,7.2978100779999995,-2.7466611860000003,4.230809689,2.389328957,0.567477107,-1.3388245109999999,-23.69239998,37.68579865,-13.84700012,,,,
15.75,15.77477417,,,15.75855735,,0.8647062778,2.6808586119999998,4.377070904,,,,,,,0.7595350742,9.439970016,4.734300137,
15.78,,15.79810031,15.79607198,15.80855735,,,,,3.450370789,1.5127632619999998,-0.37383851409999996,-24.24139977,39.90620041,-9.259799957,-3.990089417,3.1743249889999996,5.65440464,
15.809999999999999,15.82477417,,,,,2.169692039,-10.37408257,0.4986044168,,,,,,,,,,
15.84,,15.84890036,15.84607198,15.85855735,,,,,3.405931711,5.319563389,-0.48104220630000005,-23.97299957,42.24860001,-6.429399967,7.781499386,-14.18245411,-0.8314687014,
15.87,15.87477417,15.89969953,15.89607198,,,16.62742615,-38.30370712,0.804885745,4.2024765010000005,3.403030157,-1.3780714269999998,-23.25319862,43.46859741,-5.733999729,,,,
15.899999999999999,15.92477417,,,15.90855735,,1.980359793,-33.20190811,5.8181481360000005,,,,,,,4.377018929,-39.01395416,6.942239761000001,
15.93,,15.95049963,15.94607198,15.95855735,,,,,4.447120667,-1.160151601,-1.8194085359999999,-23.66799927,41.00419998,-7.97879982,-2.886872292,-9.493010521,-6.779080391,
15.959999999999999,15.97477417,,,,,0.675673306,-9.09571743,-1.742274046,,,,,,,,,,
15.99,,16.00130046,15.99607198,16.00855735,,,,,0.3361186981,2.302894115,-0.9382613897,-23.38739967,37.8565979,-13.45660019,1.48367691,5.330870628,-8.952994347,
16.02,16.02477417,,16.04607198,,,3.857529163,0.1310070455,-4.009473324,,,,-22.19179916,34.70899963,-20.11779976,,,,
16.05,16.07477417,16.05210052,,16.05855735,,-3.8802609439999998,0.3083750308,-6.509075642000001,-1.690367103,2.7556846139999998,0.20387026670000002,,,,-3.917507172,7.614851475,-12.74407196,
16.08,,16.10289974,16.09607198,16.10855735,,,,,-2.87938118,-1.312558055,1.235896707,-20.77659988,31.98839951,-26.92539978,-5.4058790210000005,14.08846569,-11.40572548,
16.11,16.12477417,,,,,-0.3370888829,5.117948532,-6.662216663,,,,,,,,,,
16.14,,16.15369979,16.14607198,16.15855735,,,,,-2.109255552,-2.144226551,0.65849334,-19.45899963,30.46339989,-32.62279892,-0.7037578820999999,11.42913818,-6.929272175,
16.169999999999998,16.17477417,,16.19607198,,,1.298106313,0.2820539773,1.87268281,,,,-18.09259987,28.90180016,-37.13679886,,,,
16.2,16.22477417,16.20450062,,16.20855735,,-2.659323215,-0.6828517914,-13.80628777,3.936605215,0.2811424434,-1.257734537,,,,-2.198852539,-6.65396595,16.56269264,
16.23,,16.25530062,16.24607198,16.25855735,,,,,0.9556705356,-3.667832375,-1.134037971,-17.2996006,26.66919899,-40.63819885,-9.577864647,1.620287895,-4.1068344119999995,
16.259999999999998,16.27477417,,,,,-3.1070802210000004,-12.98854065,-8.409873962,,,,,,,,,,
16.29,,16.30609989,16.29607198,16.30855735,,,,,-0.35795649890000003,-2.577011824,3.133493662,-18.16580009,24.58300018,-42.09000015,-5.917676926,-31.25542641,-15.90578651,
16.32,16.32477417,,16.34607198,,,3.929313898,-26.89113998,0.6661019921,,,,-19.3491993,24.58300018,-41.21159744,,,,
16.349999999999998,16.37477417,16.3569,,16.35855735,,12.28235817,-24.66701126,-8.311768532,-6.836755276,3.862234592,3.921486616,,,,9.475893021000001,-9.480921745,-2.506089687,
16.38,,16.40770088,16.39607198,16.40855735,,,,,-7.032684326,-5.058731556000001,-0.6843016148000001,-18.80019951,27.41339874,-38.4178009,21.20920944,-26.49520874,46.49512863,
16.41,16.42477417,,,,,14.01565933,-18.49980927,27.86292458,,,,,,,,,,
16.439999999999998,,16.45850093,16.44607198,16.45855735,,,,,-2.210350752,-0.6311579347,-0.5022691488000001,-19.54439926,30.80500031,-32.91559982,1.5808837409999998,0.20354461670000001,2.548653841,
16.47,16.47477417,,16.49607198,,,-4.6366920469999995,-5.578866005,-1.083948612,,,,-21.03279877,33.68420029,-26.65699959,,,,
16.5,16.52477417,16.50930015,,16.50855735,,5.128716469,0.7749754190000001,12.15763283,-1.659977436,1.8103985790000001,0.8153283595999999,,,,-0.5177037715999999,12.35809612,18.91555595,
16.53,,,16.54607198,16.55855735,,,,,,,,-23.36299896,35.67279816,-20.75219917,6.900357246,4.483401299,11.49380493,
16.56,16.57477417,16.56010026,,,,3.84795785,-4.680959225,0.8982058167,2.888544083,0.035887274889999994,-0.8994725943,,,,,,,
16.59,,16.61090109,16.59607198,16.60855735,,,,,3.170144558,0.8054021001,-0.8730534315,-24.30239868,37.42959976,-16.11619949,-2.7021813389999996,8.571661949,2.015137672,
16.62,16.62477417,,16.64607198,,,-5.199304581,0.8590233326000001,3.084049225,,,,-25.02219963,39.85739899,-12.15119934,,,,
16.65,16.67477417,16.66170109,,16.65855735,,3.153441191,-7.73599577,-1.424028635,3.866357803,2.247154236,0.8223531246,,,,-4.1623411180000005,5.271582603,-1.0780347590000001,
16.68,,,16.69607198,16.70855735,,,,,,,,-24.18039894,42.2364006,-10.04059982,7.988954067000001,-11.61768913,-0.367033124,
16.71,16.72477417,16.71250041,,,,15.87338734,-34.05913925,6.498009205,2.6182441709999997,5.5910849570000005,-0.9938485026,,,,,,,
16.74,,16.76330052,16.74607198,16.75855735,,,,,5.785639763,-2.816005945,-1.685633063,-22.83839989,42.98059845,-9.967399597,-1.752577901,-45.12506104,6.1945686339999995,
16.77,16.77477417,,16.79607198,,,-0.8566305041,-31.14318466,6.160621166,,,,-23.00919914,40.90660095,-12.37080002,,,,
16.8,16.82477417,16.81410135,,16.80855735,,3.6418759819999997,-6.38076067,-3.343969584,1.7682501080000002,-1.24093616,-0.8695410490000001,,,,-2.438507318,-4.656065464,-7.848434448,
16.83,,,16.84607198,16.85855735,,,,,,,,-23.11899948,37.66139984,-17.37279892,1.6085870269999998,6.690225601,-7.096902847000001,
16.86,16.87477417,16.86490146,,,,3.093620539,-0.728315413,-3.8874394889999997,-1.226581335,2.931303263,-1.000720501,,,,,,,
16.89,,16.91570067,16.89607198,16.90855735,,,,,-2.2636473180000003,0.9297095537000001,0.6076403260000001,-22.49679947,34.50159836,-23.4484005,-5.46655941,8.049102783,-9.147486687,
16.919999999999998,16.92477417,,16.94607198,,,-4.114757538,0.9451649189,-2.968296528,,,,-21.31340027,32.13479996,-29.51179886,,,,
16.95,16.97477417,16.96650078,,16.95855735,,-0.9786644578,2.1876380440000003,-6.0661044120000005,-2.465226889,-1.3024790290000001,1.343253136,,,,-5.620380402,10.95523834,-7.739254951,
16.98,,,16.99607198,17.00855735,,,,,,,,-20.50819969,30.40239906,-34.11119843,-0.6704549789,10.08162975,-5.662371159,
17.009999999999998,17.02477417,17.01730166,,,,3.014657497,0.3179463148,4.544568539,0.45599746700000005,-1.44205761,0.2750339806,,,,,,,
17.04,,17.06810166,17.04607198,17.05855735,,,,,3.66493082,-2.00678587,-1.7395403390000002,-19.666399,28.90180016,-37.31979752,2.072117567,-2.9173145289999995,11.1293869,
17.07,17.07477417,,17.09607198,,,-2.0727825159999997,-0.12741780279999998,-9.990034103,,,,-19.86159897,26.82779884,-39.61339951,,,,
17.099999999999998,17.12477417,17.11890099,,17.10855735,,-5.280959606000001,-18.46870232,-9.808179855,0.1827960461,-0.7603521347,-1.3401988740000002,,,,-10.25497055,0.4363908768,-2.902352571,
17.13,,,17.14607198,17.15855735,,,,,,,,-21.47200012,24.90019989,-40.44300079,-5.616870402999999,-26.55755043,-11.05997467,
17.16,17.17477417,17.16970109,,,,3.5030922889999996,-21.41097641,3.898207188,-3.12158227,-3.199923277,5.03719902,,,,,,,
17.189999999999998,,,17.19607198,17.20855735,,,,,,,,-22.69199944,25.36380005,-39.17419815,10.76272011,-10.89478779,-1.274181128,
17.22,17.22477417,17.22050198,17.24607198,,,22.10040855,-29.0650177,-14.94586945,-7.5610675810000005,1.7103723290000001,3.965467691,-22.06979942,28.29179955,-36.11199951,,,,
17.25,17.27477417,17.27130198,,17.25855735,,12.95264816,-16.64208221,38.3754921,-3.819780588,-3.880254507,-0.7514948249,,,,22.11139488,-20.73304749,46.48523331,
17.28,,,17.29607198,17.30855735,,,,,,,,-22.3015995,31.50039864,-30.54879951,1.41180563,0.4446926117,3.7101249689999998,
17.31,17.32477417,17.3221013,,,,-1.926820397,-5.612365723,-7.126723289,-2.389176369,0.6598677635,0.2032594234,,,,,,,
17.34,,,17.34607198,17.35855735,,,,,,,,-23.15559959,34.6114006,-25.40040016,-4.592558384,11.28538704,22.12127876,
17.37,17.37477417,17.3729014,17.39607198,,,3.8599219319999998,0.4328017831,11.15952682,-0.2290677279,1.5095562930000002,0.33336988089999997,-23.66799927,36.35599899,-19.83720016,,,,
17.4,17.42477417,17.42370229,,17.40855735,,4.8053860660000005,-2.959622622,0.9388837814000001,2.717812061,1.17114687,-0.8422056437000001,,,,5.563427925,4.660898209,7.69563961,
17.43,,,17.44607198,17.45855735,,,,,,,,-24.21699905,38.10059738,-15.32319927,-1.851713181,9.96049881,3.470253229,
17.46,17.47477417,17.47450239,,,,-4.249054909,1.00737834,1.9755741359999999,3.5056524280000003,0.4437805414,-0.1933331639,,,,,,,
17.49,,,17.49607198,17.50855735,,,,,,,,-24.41219902,40.54059982,-11.35820007,-3.511924267,6.726311207,0.8937386274,
17.52,17.52477417,17.52530161,17.54607198,,,3.79770875,-8.698508262999999,-0.3179463148,3.9923448560000003,2.8422722819999997,0.3906368315,-23.31419945,43.48080063,-9.784399986,,,,
17.55,17.57477417,17.57610177,,17.55855735,,13.56311703,-42.95565414,2.061715841,3.8915550710000004,4.339917183,-1.612942219,,,,10.23915863,-14.14099312,0.45469522479999996,
17.58,,,17.59607198,17.60855735,,,,,,,,-21.38660049,44.35919952,-9.967399597,-3.945379734,-38.22978973,11.77493668,
17.61,17.62477417,17.6269026,,,,-2.05124712,-25.76352119,6.69451952,5.450284481000001,-3.206795454,-1.4015890359999998,,,,,,,
17.64,,,17.64607198,17.65855735,,,,,,,,-21.4109993,41.99239731,-12.79780006,-3.654643536,-1.234728813,-8.073969841,
17.669999999999998,17.67477417,17.6777027,17.69607198,,,1.35074842,-4.6402812,-3.681656837,0.48745611310000003,1.9405090809999999,-1.158929944,-21.17919922,38.62519836,-18.38539886,,,,
17.7,17.72477417,17.72850198,,17.70855735,,2.277369022,1.5819548369999998,-4.658526421,-1.379751205,1.8140636680000002,0.24861483280000002,,,,0.324716568,8.577951431,-11.42351151,
17.73,,,17.74607198,17.75855735,,,,,,,,-20.30080032,35.5019989,-24.6439991,-4.7673940660000005,10.07021618,-11.37352371,
17.759999999999998,17.77477417,17.77930208,,,,-3.715156317,3.1405797,-6.466004848,-2.46201992,-2.343515396,0.6085565686,,,,,,,
17.79,,,17.79607198,17.80855735,,,,,,,,-19.60540009,33.01319885,-30.70739937,-3.72736454,12.96158791,-7.813418388,
17.82,17.82477417,17.83010297,17.84607198,,,0.2590230405,3.6023945810000004,-3.729513168,-2.761182308,-3.120666027,0.6989619732,-19.37360001,31.32959938,-35.00180054,,,,
17.849999999999998,17.87477417,,,17.85855735,,8.444570541000001,-4.408177376,39.2422905,,,,,,,-1.33095026,11.81941986,-1.169460297,
17.88,,17.88090307,17.89607198,17.90855735,,,,,1.4765704869999998,2.516996145,-0.40361732240000003,-19.19059944,29.98760033,-37.8321991,1.7408452030000001,-5.945215225,1.48671174,
17.91,17.92477417,17.93170229,,,,1.056431174,-6.409474372999999,-3.837190151,1.9925837519999998,-4.82202816,-0.9561286568999999,,,,,,,
17.939999999999998,,,17.94607198,17.95855735,,,,,,,,-19.10519981,28.47480011,-39.43040085,-4.742659092,2.054076195,-6.477137566000001,
17.97,17.97477417,17.98250244,17.99607198,,,-3.667299747,-14.16880035,-4.138985157,0.8574768305,-1.764737725,-0.3483356535,-21.26459885,27.02299881,-39.51580048,,,,
18.0,18.02477417,,,18.00855735,,2.1744775769999998,-25.35165596,0.8431708813,,,,,,,-8.21805954,-38.81322098,-13.32204628,
18.029999999999998,,18.03330333,18.04607198,18.05855735,,,,,-3.556200027,0.6319214702,4.641828537,-22.5821991,27.76719856,-37.91759872,8.128964424,-7.407348633,-1.3892792459999999,
18.06,18.07477417,18.08410343,,,,12.91436291,-19.28016853,-0.8638089895000001,-8.554152489,2.017323017,2.535168886,,,,,,,
18.09,,,18.09607198,18.10855735,,,,,,,,-22.46019936,30.59759903,-34.89199829,19.10057259,-24.41049767,-0.49336576460000003,
18.12,18.12477417,18.13490265,18.14607198,,,16.79282951,-21.80130577,43.06093597,-3.041408539,-4.70276022,-1.4548854830000002,-22.86279869,33.1352005,-28.24300003,,,,
18.15,18.17477417,,,18.15855735,,-2.012962103,-5.926124572999999,-2.21156621,,,,,,,2.201788425,-1.093756676,7.687687397,
18.18,,18.18570281,18.19607198,18.20855735,,,,,-2.190498352,0.6328377724,0.5859552621999999,-23.72900009,35.53860092,-22.24059868,-2.026822805,12.2347126,22.89757347,
18.21,18.22477417,18.23650369,,,,4.750350952,2.4317059519999997,12.65324593,1.158777237,1.449082375,-0.06352811307,,,,,,,
18.24,,,18.24607198,18.25855735,,,,,,,,-23.87539864,37.16119766,-16.87260056,6.353386878999999,3.65815258,7.78140831,
18.27,18.27477417,18.2873038,18.29607198,,,2.619841576,-4.305285931,-0.8709874153,3.594836235,0.5969504714,-1.267049909,-24.0461998,38.56419754,-12.83440018,,,,
18.3,18.32477417,,,18.30855735,,-4.138985157,2.38624239,1.877468467,,,,,,,-1.804652214,8.401397705,0.9815483093,
18.33,,18.33810307,18.34607198,18.35855735,,,,,3.5378746989999996,0.7189671993000001,-0.0013744062739999999,-24.08279991,40.39419937,-9.52820015,-6.686175346000001,9.751196861,1.3436169619999998,
18.36,18.37477417,18.38890323,,,,-0.1310070455,-5.1311092380000005,-1.665703654,3.4144835469999997,3.490992069,1.218182087,,,,,,,
18.39,,,18.39607198,18.40855735,,,,,,,,-22.75300026,42.40719986,-7.97879982,7.591970921000001,-7.4111537929999995,0.4851372242,
18.419999999999998,18.42477417,18.43970411,18.44607198,,,15.3035965,-28.9023056,7.166204929,4.027010441,2.0388555530000003,-1.901262045,-20.73999977,43.4197998,-8.064199448,,,,
18.45,18.47477417,,,18.45855735,,-3.3918261530000002,-39.62065506,8.066205025,,,,,,,-0.9494918585,-49.75495911,3.607949734,
18.48,,18.49050422,18.49607198,18.50855735,,,,,4.399322033,-2.593352079,-1.883700252,-20.80099869,41.6385994,-10.32119942,-4.021277905,-11.06510258,-4.977565765,
18.509999999999998,18.52477417,,,,,1.4033905269999998,-11.43709373,-3.181257725,,,,,,,,,,
18.54,,18.54130349,18.54607198,18.55855735,,,,,0.5509842038,0.9709417224,-1.027750492,-20.8253994,38.58860016,-15.64039993,0.9292199612,8.1596241,-6.695044041,
18.57,18.57477417,18.59210364,18.59607198,,,2.344367981,1.835594058,-4.773382187,-1.355470061,1.772526026,-0.07085828482999999,-20.47159958,35.52639771,-21.89900017,,,,
18.599999999999998,18.62477417,,,18.60855735,,-3.83958292,0.4064807594,-4.483551502,,,,,,,-5.483174324,7.883011818,-9.495882034,
18.63,,18.64290453,18.64607198,18.65855735,,,,,-2.361840963,-1.514748454,1.0900568959999999,-20.03240013,33.02539825,-28.02339935,-6.851464272,11.67079449,-7.546263217999999,
18.66,18.67477417,,,,,-1.4599208830000001,2.221137524,-2.4128625390000003,,,,,,,,,,
18.689999999999998,,18.69370458,18.69607198,18.70855735,,,,,-2.319386959,-0.9462023973,1.664253354,-19.62979889,31.25639915,-32.51300049,0.10561394689999999,10.70534706,-6.219620705,
18.72,18.72477417,18.7445039,18.74607198,,,2.519043922,1.462313771,-1.024128079,1.397465825,0.6913263798,-0.9822424054000001,-19.0564003,30.19499969,-35.33119965,,,,
18.75,18.77477417,,,18.75855735,,2.7466611860000003,-6.74476862,-0.7393822073999999,,,,,,,6.056697369,-0.7606182098000001,20.38306236,
18.779999999999998,,18.79530411,18.79607198,18.80855735,,,,,1.8320835830000002,-2.4188025,-1.726407051,-19.26379967,28.65779877,-37.22219849,-4.905878067,-0.6722049712999999,-6.321513176,
18.81,18.82477417,,,,,-3.159722328,-11.90877914,-2.506182671,,,,,,,,,,
18.84,,18.846105,18.84607198,18.85855735,,,,,0.9347490072,-3.6931824680000003,0.19119519,-21.03279877,26.90099907,-38.01519775,-12.46944809,-33.08243179,-19.05625916,
18.87,18.87477417,18.89690515,18.89607198,,,-1.306481123,-25.22244453,-4.900201797,-3.105242014,-0.3226800561,5.072781086,-22.52120018,27.03520012,-36.81959915,,,,
18.9,18.92477417,,,18.90855735,,12.07149124,-18.937994,-0.9092726111,,,,,,,4.641837597,-8.197113037000001,-1.322321892,
18.93,,18.94770442,18.94607198,18.95855735,,,,,-9.187295914,2.032441616,1.902331114,-21.7159996,28.93840027,-34.5992012,18.65564537,-19.71599197,-9.748599052000001,
18.96,18.97477417,,,,,25.44976234,-30.22374344,23.38834572,,,,,,,,,,
18.99,,18.99850458,18.99607198,19.00855735,,,,,-1.4855805640000002,-4.0775580410000005,-0.44759833810000005,-21.87459946,32.17139816,-29.10919952,5.12045908,-5.047972679,19.19568634,
19.02,19.02477417,19.04930552,19.04607198,,,0.290129751,-9.419047356,-2.156531334,-2.379097462,1.21176827,1.1958862540000001,-22.27719879,34.70899963,-23.50939941,,,,
19.05,19.07477417,,,19.05855735,,1.55204463,7.069295406,19.1007061,,,,,,,-6.524617195,12.14836884,12.31096458,
19.08,,19.10010557,19.09607198,19.10855735,,,,,1.57537508,1.3307307959999999,0.1064401343,-22.3015995,36.57559967,-18.10479927,8.339588165,4.413675308,4.594978333,
19.11,19.12477417,,,,,8.267500877,-3.397808075,-0.2365903407,,,,,,,,,,
19.14,,19.15090494,19.14607198,19.15855735,,,,,2.5576174259999997,-0.5071559548,-1.015075445,-24.13159943,37.80780029,-13.5053997,4.031078815,10.47976494,3.69523716,
19.169999999999998,19.17477417,,19.19607198,,,0.6038886309,2.21156621,5.815755367,,,,-24.08279991,39.77199936,-9.71119976,,,,
19.2,19.22477417,19.2017051,,19.20855735,,2.437688112,-6.2850480079999995,0.7402794957,4.193008423,0.6394043564999999,-0.970330894,,,,-1.910112262,7.643267632000001,5.912387848,
19.23,,19.25250604,19.24607198,19.25855735,,,,,3.0620245930000003,5.974544525,-1.207492352,-23.30200005,41.87039948,-7.478600025,6.012354374,-7.5787553789999995,-2.371292591,
19.259999999999998,19.27477417,,,,,12.11934757,-25.24158669,4.202095508999999,,,,,,,,,,
19.29,,19.30330619,19.29607198,19.30855735,,,,,4.741396427,1.1696197990000001,-2.49851799,-21.64279938,42.90739822,-7.393199921,1.436462879,-61.09433746,3.594344139,
19.32,19.32477417,,19.34607198,,,-1.146162033,-43.91068649,9.198608398,,,,-21.26459885,41.72399902,-9.174399376,,,,
19.349999999999998,19.37477417,19.35410546,,19.35855735,,2.5262224669999997,-6.153442383,-4.450051785,4.063050747,-2.461714506,-1.02057302,,,,-2.550047159,-9.845632553,-7.363718987,
19.38,,19.40490567,19.39607198,19.40855735,,,,,-0.06062658876,1.785506487,-0.7220214604999999,-21.63059998,38.44219971,-14.39599991,1.299628973,9.523788452,-10.17867088,
19.41,19.42477417,,,,,2.320439816,-0.5105685592,-4.270590305,,,,,,,,,,
19.439999999999998,,19.45570661,19.44607198,19.45855735,,,,,-1.9603616,0.8237275481,0.1229330078,-21.69159889,35.18479919,-20.32519913,-6.322603226,7.416512966,-9.569854736,
19.47,19.47477417,,19.49607198,,,-4.100400925,0.5835496187,-4.203591347,,,,-21.75259972,32.47639847,-26.33979988,,,,
19.5,19.52477417,19.50650677,,19.50855735,,0.9511470199,2.4628126619999997,-3.023331404,-2.491340637,-2.125595808,1.8959171769999998,,,,-6.288132191,12.95033836,-8.925571442,
19.529999999999998,,19.55730604,19.54607198,19.55855735,,,,,-0.7301151751999999,-1.025459886,1.3018682,-21.65499878,31.20759964,-30.78059959,0.8530523777,9.86448288,-4.644192696,
19.56,19.57477417,,,,,8.166703223999999,4.198506355,33.50819016,,,,,,,,,,
19.59,,19.60810625,19.59607198,19.60855735,,,,,3.179001808,1.399603724,-2.032441616,-21.61839867,29.58499908,-34.28199768,3.51111269,-0.9979391098,4.8767204280000005,
19.62,19.62477417,,19.64607198,,,-0.9595218897,-5.452046394,-12.0729866,,,,-21.81359863,27.44999886,-36.9659996,,,,
19.65,19.67477417,19.65890718,,19.65855735,,-4.99352169,-25.50958252,-10.92144108,-0.4098785222,-2.065579891,-0.9594883323000001,,,,-6.600122452000001,-3.870638371,-1.82792902,
19.68,,19.70970729,19.69607198,19.70855735,,,,,-1.993499994,-2.094595194,3.1731987,-23.04579926,25.90060043,-37.97859955,-7.123008251,-23.39994049,-7.543456077999999,
19.71,19.72477417,,,,,0.8383852243000001,-20.11346817,1.7243278030000002,,,,,,,,,,
19.74,,19.76050666,19.74607198,19.75855735,,,,,-7.1337795260000005,3.059428453,4.021665573,-23.71679878,26.59599876,-36.85620117,5.690486908,-9.562131882000001,-1.4909306759999998,
19.77,19.77477417,,19.79607198,,,11.86092281,-28.4808712,-0.9308080076999999,,,,-23.05799866,29.43859863,-33.87939835,,,,
19.8,19.82477417,19.81130687,,19.80855735,,7.226025105,-11.47298622,8.827720642000001,-4.549895763,-1.88171494,-0.774248898,,,,13.79320812,-10.08120632,31.9979229,
19.83,,,19.84607198,19.85855735,,,,,,,,-22.82620049,32.75699997,-28.90180016,-5.011711597,-0.5043382645000001,6.410065174,
19.86,19.87477417,19.86210786,,,,-8.149056435,-6.682555676000001,3.5988051889999997,-1.935927629,-2.8074541089999996,-0.3944546282,,,,,,,
19.89,,19.91290802,19.89607198,19.90855735,,,,,-0.9326110482,1.6540216209999998,1.07112062,-22.97259903,35.35559845,-23.38739967,1.7058124540000001,10.95438194,16.70002747,
19.919999999999998,19.92477417,,19.94607198,,,9.632008553,-0.5009972453,8.731708527,,,,-22.13080025,36.33160019,-17.39719963,,,,
19.95,19.97477417,19.96370734,,19.95855735,,2.880659342,-4.080061913,0.0077766734180000005,3.4082221980000003,-1.612025857,-0.9964445829,,,,7.393218994,4.267317295,7.535663605,
19.98,,,19.99607198,20.00855735,,,,,,,,-22.13080025,38.00299835,-13.5053997,-1.590708494,9.836400986000001,3.103838444,
20.009999999999998,20.02477417,20.01450755,,,,-3.422932863,2.625823736,5.277071476000001,3.1557896139999997,-0.12812520560000001,-1.058903694,,,,,,,
20.04,,20.06530849,20.04607198,20.05855735,,,,,4.315024853,3.411123753,0.036650836469999996,-22.14299965,40.30879974,-9.881999968999999,-0.5823651552,3.834215641,0.7446964979,
20.07,20.07477417,,20.09607198,,,5.341677666,-13.11775303,2.291725874,,,,-21.1303997,42.27299881,-8.125200272,,,,
20.099999999999998,20.12477417,20.11610859,,20.10855735,,10.46022415,-55.53890991,13.96301746,2.657796383,6.89341116,-1.385401607,,,,9.691814423,-24.99292374,-0.2238994837,
20.13,,,20.14607198,20.15855735,,,,,,,,-19.45899963,42.60239792,-8.649800301,-3.621290922,-23.98285294,0.6384220123,
20.16,20.17477417,20.16690802,,,,-1.996212244,-22.37109756,1.290927768,5.69981575,-3.700512648,-1.464200854,,,,,,,
20.189999999999998,,20.21770823,20.19607198,20.20855735,,,,,0.8539644479999999,-0.040621344,-0.8464815617,-18.54399872,39.49139786,-11.48019981,-4.032626629,-5.436553001,-8.286925316,
20.22,20.22477417,,20.24607198,,,2.554936409,-7.000801086,-4.280161381,,,,-18.50740051,36.3803978,-16.45779991,,,,
20.25,20.27477417,20.26850922,,20.25855735,,-0.41126638649999997,-2.306082726,-3.528516054,-1.130525589,2.141630411,-0.3701734245,,,,0.1760692596,4.18932724,-6.634095192,
20.279999999999998,,,20.29607198,20.30855735,,,,,,,,-17.98279953,33.51340103,-22.38699913,-5.912474632,8.982812881000001,-8.681500435,
20.31,20.32477417,20.31930937,,,,-4.5816569330000005,4.007080555,-6.46361208,-1.873773932,-1.057682037,1.1975660320000001,,,,,,,
20.34,,,20.34607198,20.35855735,,,,,,,,-17.5802002,31.14659882,-28.19419861,-3.010872364,13.33261299,-9.033027649,
20.37,20.37477417,20.37010869,20.39607198,,,1.6214364769999998,4.746761799,-3.6098721030000003,-1.757865667,-2.36565876,1.0363023279999999,-17.26300049,29.3288002,-32.19580078,,,,
20.4,20.42477417,20.42090896,,20.40855735,,8.980861663999999,-9.789935112,19.42613029,2.673831224,2.6997921469999997,-1.091125965,,,,7.181139946,7.132581711,62.06597137,
20.43,,,20.44607198,20.45855735,,,,,,,,-16.53100014,27.38899994,-35.84359741,-3.3158226010000003,5.0851111410000005,-16.15908432,
20.46,20.47477417,20.47170989,,,,-3.49471736,-4.092025757,-4.397409916,0.07009471953,-4.392297268,-0.7965448499,,,,,,,
20.49,,,20.49607198,20.50855735,,,,,,,,-17.20199966,25.32719994,-37.72240067,-8.056941986,-13.10200405,-13.56933784,
20.52,20.52477417,20.5225101,20.54607198,,,-6.9735822679999995,-34.72224808,-13.02802181,-0.1203369126,-3.854446173,1.7500773669999998,-19.17840004,24.11940002,-37.71019745,,,,
20.55,20.57477417,20.57330942,,20.55855735,,6.421438694,-20.99671936,1.607079506,-6.138098717,1.139077425,4.758347511,,,,0.33681082729999995,-13.74292564,0.009275197983,
20.58,,,20.59607198,20.60855735,,,,,,,,-20.08119965,25.69319916,-35.30680084,12.04391289,-20.06552887,-0.3608897924,
20.61,20.62477417,20.62410963,,,,21.08046913,-30.32424164,37.26222992,-4.858831882,-0.395981729,1.663337111,,,,,,,
20.64,,,20.64607198,20.65855735,,,,,,,,-20.02019882,28.64559937,-31.06119919,10.67762661,-4.154700279,2.9606359,
20.669999999999998,20.67477417,20.67491062,20.69607198,,,1.032503009,-10.54427242,-1.24666059,-2.224247694,-1.836817741,-0.2327328026,-20.37400055,31.53699875,-25.88839912,,,,
20.7,20.72477417,20.72571073,,20.70855735,,2.356332064,2.204387903,7.089335442,-1.6217994690000002,1.354706526,1.015533566,,,,-2.203712463,8.410917282,10.64604473,
20.73,,,20.74607198,20.75855735,,,,,,,,-20.65460014,33.86719894,-20.37400055,8.403139114,6.969815253999999,12.0811224,
20.759999999999998,20.77477417,20.77651015,,,,9.318249702000001,-2.492722988,8.145168304,1.664711475,0.3142809272,-0.5807630420000001,,,,,,,
20.79,,,20.79607198,20.80855735,,,,,,,,-19.87380028,35.88019943,-15.42079926,2.664970398,7.516392708,4.552209377,
20.82,20.82477417,20.82731036,20.84607198,,,0.35234314200000005,0.9954141973999999,1.575972795,3.267880201,-0.2748812735,-0.9497147799,-20.36179924,37.94199753,-11.33379936,,,,
20.849999999999998,20.87477417,20.87811135,,20.85855735,,0.02691925503,-5.93091011,0.6038886309,4.343123913,3.196258307,-0.2066190839,,,,-4.329300404,7.946626662999999,5.506916522999999,
20.88,,,20.89607198,20.90855735,,,,,,,,-19.60540009,40.08919907,-8.930399895,5.217288494,-6.82404232,-0.2266482711,
20.91,20.92477417,20.92891151,,,,8.820542336,-25.37080002,-1.060020447,2.334505558,7.754858494,-2.071077585,,,,,,,
20.939999999999998,,,20.94607198,20.95855735,,,,,,,,-17.64119911,41.55319977,-8.442399979,1.8839339019999999,-41.03175354,7.578510284,
20.97,20.97477417,20.97971083,20.99607198,,,-7.5457663539999995,-47.94708252,7.587341309,5.723485947,-1.9435632230000002,-1.281862974,-16.36019897,40.1989975,-10.57740021,,,,
21.0,21.02477417,,,21.00855735,,0.1848455518,-14.71466255,-2.371885538,,,,,,,-4.313646317,-15.45123291,-4.47076273,
21.029999999999998,,21.03051109,21.04607198,21.05855735,,,,,2.062220335,-1.065470338,-0.4792096615,-16.05520058,37.19779968,-14.98159981,0.7708492279000001,4.732030869,-5.555584907999999,
21.06,21.07477417,21.08131203,,,,5.657829285,0.04725824669,-0.08793623,-0.5969504714,2.228370905,-0.42728766799999995,,,,,,,
21.09,,,21.09607198,21.10855735,,,,,,,,-15.35979939,34.0135994,-20.42280006,-2.8541381360000004,10.47870445,-9.969369888,
21.119999999999997,21.12477417,21.13211224,21.14607198,,,-3.600300789,3.2578279969999997,-3.916153431,-2.697501421,-0.6891884208,0.7637118101,-14.6765995,31.31739998,-26.27879906,,,,
21.15,21.17477417,,,21.15855735,,0.8599206209,4.746761799,-3.990330935,,,,,,,-6.039057255,12.45046043,-7.419157028,
21.18,,21.18291156,21.19607198,21.20855735,,,,,-2.89083457,-2.259982109,1.083948493,-13.94460011,29.99979973,-31.62240028,-0.4245214462,12.71140671,-6.296247482,
21.21,21.22477417,21.23371177,,,,3.299702406,2.561217546,1.027717352,2.032136202,-2.820587158,-1.3873867990000002,,,,,,,
21.24,,,21.24607198,21.25855735,,,,,,,,-13.92019939,28.4503994,-34.89199829,7.270802497999999,-1.847342491,20.80791092,
21.27,21.27477417,21.2845127,21.29607198,,,2.023430586,-7.012764931,-3.2817561630000003,1.8734685180000001,-1.774816751,-1.790851474,-14.85960007,26.42519951,-37.07579803,,,,
21.3,21.32477417,,,21.30855735,,-4.6199421880000004,-8.451748848,-5.225924492,,,,,,,-7.648680687000001,5.279461861000001,-8.226518631,
21.33,,21.33531281,21.34607198,21.35855735,,,,,-0.6618530154,-2.1049797530000003,-0.3877353072,-17.09219933,24.70499992,-37.42959976,-10.61833382,-33.13401031,-18.70870972,
21.36,21.37477417,21.38611218,,,,-1.727917075,-34.00888824,-9.645169258,-2.108950138,-4.3400697710000005,3.921028614,,,,,,,
21.39,,,21.39607198,21.40855735,,,,,,,,-19.00759888,24.30239868,-35.5019989,3.1611571310000004,-12.9457016,-2.16473341,
21.419999999999998,21.42477417,21.43691244,21.44607198,,,12.27278709,-22.4763813,0.7977072597,-6.179483414,-1.5964492559999999,4.333961487,-20.59359932,26.63259888,-31.31739998,,,,
21.45,21.47477417,,,21.45855735,,23.15863419,-16.9675045,-0.7920243144,,,,,,,34.46634674,-16.1944809,26.52407837,
21.48,,21.48771338,21.49607198,21.50855735,,,,,-1.900193095,-1.183363795,-0.07971556485,-22.13080025,29.51179886,-25.63220024,8.366096497000001,3.282135963,10.22880936,
21.509999999999998,21.52477417,21.53851354,,,,4.601995945,-4.365106583,5.720042706,-2.326411724,0.1568350345,0.24311721320000002,,,,,,,
21.54,,,21.54607198,21.55855735,,,,,,,,-23.88759995,31.84199905,-19.48340034,-3.9646804330000003,6.7118783,6.920473099,
21.57,21.57477417,21.58931286,21.59607198,,,-3.9855451580000003,3.2865419389999997,13.89601803,-0.7197307944,2.080087662,0.04092676565,-26.22999954,33.69639969,-13.60299969,,,,
21.599999999999998,21.62477417,,,21.60855735,,5.8803615570000005,-1.4922239780000002,3.235096216,,,,,,,5.152614117,8.959310532,8.396905899,
21.63,,21.64011302,21.64607198,21.65855735,,,,,2.682993889,-0.1288887709,-0.9468132256999999,-27.2791996,34.86759949,-8.796199799,-1.169098735,9.137422562000001,8.798102379,
21.66,21.67477417,,,,,-3.9185462,-1.5472589730000001,4.309772491,,,,,,,,,,
21.689999999999998,,21.69091396,21.69607198,21.70855735,,,,,3.669206858,2.2937314509999998,-0.3197785318,-27.73060036,36.80739975,-4.562799931,-1.27229929,2.984253883,1.802708864,
21.72,21.72477417,21.74171411,21.74607198,,,7.312166691,-12.25364494,-0.18155542019999998,2.636111259,4.714824677,-2.11460042,-27.41339874,38.58860016,-2.562000036,,,,
21.75,21.77477417,,,21.75855735,,16.11775398,-31.88286591,3.450450182,,,,,,,13.88124275,-16.89008904,1.5811586380000002,
21.779999999999998,,21.79251343,21.79607198,21.80855735,,,,,4.453229427,1.891641259,-2.392841339,-26.29100037,39.41819763,-2.7693998810000005,3.291509628,-34.09440613,-1.094480038,
21.81,21.82477417,,,,,5.222036362,-33.39841843,1.223928809,,,,,,,,,,
21.84,,21.84331364,21.84607198,21.85855735,,,,,3.689364672,-2.037939072,-2.04420042,-26.58379936,37.18560028,-5.538799762999999,-3.16775012,-11.93774891,-6.164767265,
21.869999999999997,21.87477417,21.89411453,21.89607198,,,6.687341213,-8.837292671,-2.118246317,-0.5270084739,1.524063945,-0.4107947946,-27.38899994,33.92819977,-9.881999968999999,,,,
21.9,21.92477417,,,21.90855735,,0.4172484577,1.05523479,-2.606681108,,,,,,,-0.9188609123,7.162470817999999,-5.168764591,
21.93,,21.94491468,21.94607198,21.95855735,,,,,-1.674026966,2.435600758,0.8585458398,-27.74279976,30.84159851,-15.33539963,-8.371917725,9.126068115,-9.092050552,
21.96,21.97477417,,,,,-5.467599869,2.015354872,-5.096413136000001,,,,,,,,,,
21.99,,21.99571396,21.99607198,22.00855735,,,,,-2.592588425,-1.19405365,2.336338043,-27.10840034,28.38939857,-21.61839867,-7.822721958,11.32966805,-6.579488754,
22.02,22.02477417,22.04651416,22.04607198,,,-1.993819475,4.023830414,-2.810070992,-0.4836383164,-1.655854225,0.9000834227,-26.74239922,26.94979858,-26.35199928,,,,
22.05,22.07477417,,,22.05855735,,6.392724991000001,-4.123132706,24.69572449,,,,,,,-1.220114231,12.80769062,9.0620718,
22.08,,22.09731505,22.09607198,22.10855735,,,,,3.935994387,-0.2441861928,-2.122846842,-26.48620033,25.19299889,-30.25599861,-5.028781414,-0.5497140884,-14.04000473,
22.11,22.12477417,,,,,-3.1118657589999996,-3.632304668,-9.884750366,,,,,,,,,,
22.14,,22.1481151,22.14607198,22.15855735,,,,,-0.49799323079999996,-2.9965112210000004,-0.1768402755,-26.92539978,23.11899948,-32.47639847,-8.567670822,0.9314222336,-7.125350952000001,
22.169999999999998,22.17477417,22.19891448,22.19607198,,,-2.7358934880000003,-17.23819351,-6.049354553,0.0520747304,-2.149724245,2.563267708,-27.97459984,21.76479912,-32.8302002,,,,
22.2,22.22477417,,,22.20855735,,7.4222369189999995,-28.40190697,-7.136294365,,,,,,,0.0511469841,-29.1217289,-16.10267258,
22.23,,22.24971463,22.24607198,22.25855735,,,,,-6.695649624,-3.223440886,4.760943413,-28.34059906,22.83839989,-31.36619949,13.66918945,-14.98785877,0.7900913954000001,
22.259999999999998,22.27477417,,,,,28.20300484,-31.30589676,-5.81485796,,,,,,,,,,
22.29,,22.30051552,22.29607198,22.30855735,,,,,-2.550592661,-2.8306663039999997,1.586064935,-28.05999947,25.85179901,-27.32799911,27.9580555,-7.536729812999999,19.41450691,
22.32,22.32477417,,22.34607198,,,14.53520107,-9.055039406,-2.534896374,,,,-27.96239853,28.92619896,-21.94779968,,,,
22.349999999999998,22.37477417,22.35131562,,22.35855735,,-1.641775489,-3.306880951,2.018645048,-2.492409468,1.0327899459999998,0.9672766328,,,,0.6876791715999999,3.7566246989999996,9.358373642,
22.38,,22.40211489,22.39607198,22.40855735,,,,,-1.080741525,0.7618792653,1.043021679,-26.9863987,32.19580078,-17.05559921,-3.9863257410000004,13.5554409,17.62257767,
22.41,22.42477417,,,,,4.575675011,1.3399807209999999,5.949753284,,,,,,,,,,
22.439999999999998,,22.45291505,22.44607198,22.45855735,,,,,2.197370291,0.7275190949,-0.8444963098,-27.03520012,33.81839752,-12.00479984,4.151321888,7.895685672999999,2.39486742,
22.47,22.47477417,,22.49607198,,,3.754637718,1.002592683,-0.5548357368,,,,-27.04739952,35.83139801,-7.46639967,,,,
22.5,22.52477417,22.50371593,,22.50855735,,0.8934201598,1.1916257140000002,6.478866577000001,2.579455376,-1.099372387,-0.2877090573,,,,0.4404748678,13.04689789,10.08491898,
22.529999999999998,,22.55451604,22.54607198,22.55855735,,,,,3.3382802010000003,4.557989597,-1.121362805,-26.52279854,38.39339828,-3.647799969,3.6394193169999998,5.281369209,0.3046586812,
22.56,22.57477417,,,,,9.859326363,-9.414261818,-2.721536636,,,,,,,,,,
22.59,,22.60531526,22.59607198,22.60855735,,,,,1.9757854940000001,3.39356184,-4.781712532,-25.2052002,40.89439774,-2.110599995,15.15821266,-14.33987713,5.758719921,
22.619999999999997,22.62477417,,22.64607198,,,18.50938034,-46.29782867,6.684948444,,,,-24.77820015,41.10179901,-2.4033999440000002,,,,
22.65,22.67477417,22.65611541,,22.65855735,,7.204489708,-26.50320244,4.822135925,4.603344917,-1.896528006,-3.269101858,,,,6.120738506,-38.40952682,4.2262468339999995,
22.68,,22.7069163,22.69607198,22.70855735,,,,,0.7149966955,1.4961175919999998,-0.2400629669,-25.57119942,38.47879791,-5.587599754,-1.9585580830000002,-2.6998171810000002,-8.310969352999999,
22.71,22.72477417,,,,,4.465605259,-2.892623425,-1.8646070959999999,,,,,,,,,,
22.74,,22.75771635,22.74607198,22.75855735,,,,,-1.382958174,3.490075827,0.34283801909999995,-26.29100037,35.4776001,-10.2723999,-3.163320065,9.205952644,-5.348272324,
22.77,22.77477417,,22.79607198,,,-1.3522439,-0.2832503915,-5.6087760929999995,,,,-25.60779953,32.51300049,-16.93359947,,,,
22.8,22.82477417,22.80851562,,22.80855735,,-4.7015972139999995,2.493919373,-7.22482872,-1.787491798,0.005344913341,1.262926698,,,,-9.006341934,7.43123436,-11.55294895,
22.83,,22.85931573,22.84607198,22.85855735,,,,,-2.347638845,-2.334810972,1.251473308,-25.91279984,30.45119858,-22.09420013,-6.609740734,13.39559174,-11.16021919,
22.86,22.87477417,,,,,-1.296909928,5.108377457,-5.0054860119999995,,,,,,,,,,
22.89,,22.91011656,22.89607198,22.90855735,,,,,3.3211765289999997,4.288147926000001,-1.25865078,-26.18120003,28.85299873,-25.94939995,4.5281553269999995,9.304742812999999,44.99338913,
22.919999999999998,22.92477417,,22.94607198,,,10.46022415,-12.13639641,25.14826775,,,,-25.91279984,26.58379936,-30.26819992,,,,
22.95,22.97477417,22.96091666,,22.95855735,,-1.227517962,1.904985905,-7.782655716,1.427702785,-5.186551571,-0.6113054156000001,,,,-4.9927845,8.644884109,-18.71975899,
22.98,,,22.99607198,23.00855735,,,,,,,,-27.07180023,24.30239868,-32.02499771,-9.239362717,-4.914179802,-7.632880211,
23.009999999999998,23.02477417,23.01171588,,,,-5.819643974,-42.63232422,-14.94826221,0.5859552621999999,-2.866706133,-1.210088372,,,,,,,
23.04,,23.06251599,23.04607198,23.05855735,,,,,-3.180070877,-4.449717045,5.333460331,-28.13319969,22.67980003,-32.40319824,0.6101784706000001,-27.19735909,-8.585178375,
23.07,23.07477417,,23.09607198,,,11.87288666,-28.33460999,-4.222733974,,,,-28.23079872,24.0461998,-30.53660011,,,,
23.099999999999998,23.12477417,23.11331682,,23.10855735,,50.91597748,-26.41466904,59.9417038,-5.744407654,-3.31384635,4.194993496,,,,24.22190666,-21.69872284,-7.279639244,
23.13,,,23.14607198,23.15855735,,,,,,,,-27.95019913,26.77899933,-26.14459991,18.14157867,0.6732292175,-3.336357594,
23.16,23.17477417,23.16411687,,,,11.02762222,-5.49033165,4.79820776,-1.059209108,-0.06963659078,0.5453338622999999,,,,,,,
23.189999999999998,,23.21491609,23.19607198,23.20855735,,,,,-2.357106924,1.1149489879999999,1.292858243,-27.03520012,29.0237999,-20.87419891,-4.064108849,6.454464912000001,4.207100391,
23.22,23.22477417,,23.24607198,,,-6.710072994,2.869891644,7.431807995,,,,-27.20599937,30.85379982,-15.43299961,,,,
23.25,23.27477417,23.26571619,,23.25855735,,5.638686657,-1.451546073,0.11306086929999999,0.23303823170000001,1.8171179290000001,0.015729317439999998,,,,3.16348505,10.3454895,6.211514472999999,
23.279999999999998,,,23.29607198,23.30855735,,,,,,,,-27.21819878,32.28120041,-10.84579945,4.424035072,10.65968132,11.65349102,
23.31,23.32477417,23.31651703,,,,1.444068432,1.1126625540000001,5.0712885860000005,2.326259136,-0.6190937161,-0.5801522136,,,,,,,
23.34,,23.36731708,23.34607198,23.35855735,,,,,3.7043304439999996,2.5437207219999998,-0.28496024010000004,-27.88920021,34.45280075,-5.66079998,-3.0614953039999997,9.037380219,6.4466352460000005,
23.369999999999997,23.37477417,,23.39607198,,,1.094716311,-2.9141588210000005,3.220739365,,,,-27.53540039,36.9538002,-2.305799961,,,,
23.4,23.42477417,23.4181163,,23.40855735,,18.88265991,-20.76940155,1.415354609,2.500045061,4.04533577,-3.318885803,,,,9.953072548,-2.582027435,0.042858019469999994,
23.43,,,23.44607198,23.45855735,,,,,,,,-26.46179962,38.97900009,-1.32980001,15.60620689,-33.1728363,5.088868141,
23.46,23.47477417,23.4689164,,,,12.95264816,-57.29613876,0.42921257020000003,3.708911896,1.805206418,-3.913393021,,,,,,,
23.49,,23.51971724,23.49607198,23.50855735,,,,,2.9177119730000003,-0.3011476994,-1.5090981719999998,-25.85179901,38.39339828,-3.159800053,-2.460537195,-25.4741497,2.676119566,
23.52,23.52477417,,23.54607198,,,1.561615825,-18.13819313,-1.519741535,,,,-26.3885994,35.42879868,-7.417599677999999,,,,
23.55,23.57477417,23.57051718,,23.55855735,,4.240380764,2.6497519019999998,-1.727917075,-1.104869962,1.78688097,0.6087092757,,,,-2.456176996,5.105404854,-8.947433472,
23.58,,,23.59607198,23.60855735,,,,,,,,-26.87660027,32.22019958,-12.50500011,-7.178586006000001,9.661260605,-8.444375992000001,
23.61,23.62477417,23.62131646,,,,-4.198805332,1.21555388,-5.247459888,-1.180309653,0.3025220931,1.0262234209999999,,,,,,,
23.64,,,23.64607198,23.65855735,,,,,,,,-27.09619904,29.70699883,-18.04380035,-10.02507782,10.16539478,-11.20891476,
23.669999999999998,23.67477417,23.67211656,23.69607198,,,-2.367099762,4.054936886,-4.775774956,-1.6494402890000002,-1.197107911,2.163468361,-27.31579971,27.95019913,-22.86279869,,,,
23.7,23.72477417,23.72291739,,23.70855735,,-1.876571178,3.025425196,-1.914856315,0.6374191046000001,-0.7160657048000001,0.4271349311,,,,-5.527267456000001,12.58221531,-7.329605103,
23.73,,,23.74607198,23.75855735,,,,,,,,-27.34020042,26.31539917,-26.86439896,4.4177370069999995,1.025978088,14.14535904,
23.759999999999998,23.77477417,23.77371744,,,,0.3188436031,-3.7522449489999996,-6.980761051,2.6260323519999997,-1.75145185,-1.311336398,,,,,,,
23.79,,,23.79607198,23.80855735,,,,,,,,-28.03559875,24.55859947,-30.41459846,-5.508879185,7.832932949,-8.539110184,
23.82,23.82477417,23.82451666,23.84607198,,,-0.94277215,-5.473581791,-1.567597985,0.18417045469999999,-2.8718984130000003,-1.779398084,-29.21899986,22.63099861,-30.98799896,,,,
23.849999999999998,23.87477417,23.87531677,,23.85855735,,6.608377934,-37.21676636,-10.0331049,-0.036192700269999996,-2.386121988,3.442735195,,,,-7.167658329,-37.24018478,-18.24874496,
23.88,,,23.89607198,23.90855735,,,,,,,,-30.24379921,22.14299965,-30.08519936,8.024080276,-16.67760849,-8.385180473,
23.91,23.92477417,23.9261176,,,,17.61386681,-26.77389145,-1.306780219,-8.446949005,-1.078298092,4.275778294,,,,,,,
23.939999999999998,,,23.94607198,23.95855735,,,,,,,,-30.28039932,24.44879913,-26.90099907,34.78688812,-24.81283951,19.82222557,
23.97,23.97477417,23.97691755,23.99607198,,,25.76591492,-11.30070305,19.8092823,-0.3121429384,-4.62090683,1.735569715,-29.58499908,27.25479889,-21.48419952,,,,
24.0,24.02477417,24.02771682,,24.00855735,,0.2685943544,-4.389034748,3.3882367610000004,-2.377264738,1.101052165,1.659519315,,,,2.197569609,0.7122163773000001,2.417629957,
24.029999999999998,,,24.04607198,24.05855735,,,,,,,,-29.47519875,29.71920013,-15.8477993,-4.187476635,15.09605503,15.19016647,
24.06,24.07477417,24.07851692,,,,5.391926765,7.133901596,9.086145401,0.3089359999,0.5972558856,0.6219952106000001,,,,,,,
24.09,,,24.09607198,24.10855735,,,,,,,,-29.07259941,31.56139946,-10.80919933,6.128531456,7.299909115,3.246204138,
24.119999999999997,24.12477417,24.12931776,24.14607198,,,5.202893734,1.201196909,-2.568396091,1.2096302509999999,0.35154259200000004,-0.3503209054,-28.85299873,33.28160095,-6.368400097,,,,
24.15,24.17477417,,,24.15855735,,1.1904292109999999,2.48195529,6.574579239,,,,,,,1.919009566,13.57883835,9.724944115,
24.18,,24.18011781,24.19607198,24.20855735,,,,,3.437084913,0.8845068215999999,-0.41736137869999995,-28.4382,36.80739975,-2.964599848,2.134680748,7.027572155,2.043167591,
24.21,24.22477417,24.23091703,,,,6.814160824,-8.186145782,0.47946184869999997,3.3621032239999997,2.181335449,-3.15853858,,,,,,,
24.24,,,24.24607198,24.25855735,,,,,,,,-27.20599937,39.22299957,-1.26880002,13.43864155,-14.19573116,8.157471657,
24.27,24.27477417,24.28171713,24.29607198,,,20.72393799,-35.61028671,8.236095427999999,2.834942102,4.139864445,-5.359726429,-26.46179962,40.1867981,-1.293200016,,,,
24.3,24.32477417,,,24.30855735,,6.696912289,-36.56562042,4.90618372,,,,,,,5.951568603999999,-44.99676514,-4.6054658889999995,
24.33,,24.33251802,24.34607198,24.35855735,,,,,3.686157703,-1.380972981,-2.567238331,-26.73019981,38.16159821,-3.806399822,-5.175302505,-7.472819328,-5.697656155,
24.36,24.37477417,24.38331807,,,,1.161715388,-5.624329567,-3.138186932,-0.3701734245,1.8977496619999998,0.3124483824,,,,,,,
24.39,,,24.39607198,24.40855735,,,,,,,,-28.18199921,34.48939896,-8.527799606,-2.61847043,10.34710312,-5.914505005,
24.419999999999998,24.42477417,24.43411729,24.44607198,,,0.4507479668,4.009473324,-1.9651056530000002,-1.839261055,1.8925575019999998,0.9475768209000001,-28.7553997,31.63459969,-13.93239975,,,,
24.45,24.47477417,,,24.45855735,,-3.7797625060000004,0.6337988972999999,-6.068497181000001,,,,,,,-8.897758484,8.465270042,-9.353923798,
24.48,,24.48491739,24.49607198,24.50855735,,,,,-2.312820435,0.01038440317,1.8061226609999999,-29.31659889,29.27999878,-19.16619873,-5.514710426000001,10.59418964,-9.638876915,
24.509999999999998,24.52477417,24.53571823,,,,-0.5117649436,2.350350142,-4.294518471,-1.3489034180000001,-0.5995466113,0.6432221532,,,,,,,
24.54,,,24.54607198,24.55855735,,,,,,,,-29.6093998,27.65740013,-23.50939941,6.986195564,7.94079113,37.06140518,
24.57,24.57477417,24.58651823,24.59607198,,,8.224131584,-6.483951092000001,20.48196411,3.3779852389999996,-2.0735211369999997,-2.0704667569999997,-29.45079994,24.91239929,-27.36459923,,,,
24.599999999999998,24.62477417,,,24.60855735,,-2.798106909,-4.820042133,-1.483849168,,,,,,,-7.80809021,6.322080612000001,-11.97469902,
