"Time (s)","Gyroscope x (rad/s)","Gyroscope y (rad/s)","Gyroscope z (rad/s)"
6.727672600E-2,-3.014531136E-1,6.363501549E-1,-1.366770715E-1
1.180826110E-1,-1.068982705E-1,-3.309265077E-1,-3.239017725E-1
1.688877160E-1,-1.673721522E-1,-1.233911440E-1,-6.035171151E-1
2.196936530E-1,-7.747070193E-1,-1.382347345E0,-6.620057225E-1
2.705003720E-1,-1.011715770E0,-8.075400591E-1,-9.324583411E-1
3.213062050E-1,-2.903051674E-1,1.214058921E-1,-7.925742865E-2
3.721113610E-1,8.435800672E-1,-3.490992188E-1,-4.275931045E-3
4.229178130E-1,6.314633489E-1,1.091889441E-1,8.383878320E-2
4.737245320E-1,1.913478971E-1,-9.101624042E-2,1.070509851E-1
5.245303650E-1,4.092676640E-1,-9.177979827E-2,-2.458660305E-2
5.753355210E-1,4.272876680E-1,-8.362498879E-1,1.311794519E-1
6.261414590E-1,1.240019947E-1,-1.695864677E0,5.864133686E-2
6.769481780E-1,-3.565820754E-1,-2.565863848E0,-2.218902707E-1
7.277540630E-1,2.619007528E-1,-1.123195410E0,-3.121429384E-1
7.785592190E-1,2.058555335E-1,-3.985778242E-2,-1.331036210E0
8.293652090E-1,2.684673667E-1,-1.739387512E-1,-1.640583038E0
8.801719280E-1,-8.832851648E-1,-1.374559045E0,-5.680879354E-1
9.309778130E-1,-1.737249613E0,-2.477138281E0,-3.399364948E-1
9.817829690E-1,-3.013614893E0,-3.323314428E0,-4.489727318E-1
1.032588959E0,-4.610217094E0,-4.862955093E0,5.086830258E-1
1.083395678E0,-4.705356598E0,-4.147194862E0,8.614473343E-1
1.134201563E0,-3.000787258E0,-2.838607311E0,8.099834919E-1
1.185006719E0,-1.787339091E0,-2.435447931E0,2.672609568E0
1.235812761E0,-5.544965863E-1,-1.004691005E0,2.006785870E0
1.286619480E0,-6.424586177E-1,8.414421231E-2,1.516733766E0
1.337425365E0,-7.275190949E-1,6.137487888E-1,6.606312990E-1
1.388230573E0,-5.467082933E-2,1.660893679E0,1.228566527E0
1.439036563E0,7.153021693E-1,5.584670901E-1,4.485146105E-1
1.489843334E0,3.442124426E-1,6.894938350E-1,6.612421572E-2
1.540648437E0,-5.812211633E-1,9.371923804E-1,3.333698809E-1
1.591453646E0,-2.266243398E-1,6.826218367E-1,6.589514613E-1
1.642259635E0,3.990359604E-1,3.523061574E-1,1.229330063E0
1.693066406E0,4.326325655E-1,1.061041713E0,4.598152637E-1
1.743872343E0,1.123806238E0,1.455343664E-1,-5.047125220E-1
1.794677500E0,4.634803534E-1,-1.597365588E-1,4.709632397E-1
1.845483541E0,-6.655181050E-1,4.356867969E-1,7.461498976E-1
1.896290312E0,-9.245173335E-1,-1.221236348E0,2.221956849E-1
1.947096250E0,-1.288735032E0,-7.330167294E-1,9.196305275E-1
1.997901458E0,-4.118637741E-1,-1.165343881E0,1.361425877E0
2.048707500E0,-1.015533581E-1,-1.074022174E0,2.157054424E0
2.099514271E0,-2.677038014E-1,-8.344173431E-1,1.976701736E0
2.150320208E0,-1.128845692E0,-8.562551737E-1,1.960208893E0
2.201125416E0,-1.337602735E0,-5.109737515E-1,1.779398084E0
2.251931458E0,-1.370435834E0,-3.950654566E-1,1.681967974E0
2.302738281E0,-6.974348426E-1,-1.647302389E0,1.100594044E0
2.353544218E0,1.291178346E0,-1.626228094E0,-1.380514801E-1
2.404349583E0,2.429034233E0,-1.681662560E0,-4.698942602E-1
2.455155624E0,2.628170252E0,-2.298312783E-1,-3.587200642E-1
2.505962395E0,2.015337706E0,2.750492573E0,1.762294322E-1
2.556768385E0,2.189429283E0,5.099352837E0,3.633930445E0
2.607573593E0,1.751604527E-1,2.815700531E0,2.865331888E0
2.658379635E0,2.187902212E0,2.015795931E-2,-1.371504784E0
2.709186458E0,6.856760383E-2,8.948912621E-1,-6.302416325E-1
2.759992395E0,-1.524369359E0,1.514748454E0,-4.940227270E-1
2.810797656E0,-8.684720993E-1,4.366030693E-1,-3.907895386E-1
2.861603697E0,1.312252641E0,1.484969735E0,-3.964398801E-1
2.912410468E0,2.334963679E-1,-9.972081780E-1,-1.554606259E-1
2.963216458E0,-1.062110662E0,4.373666346E-1,1.003774762E0
3.014021666E0,-2.419107914E0,-1.300188422E0,2.451024652E-1
3.064827760E0,-1.131441832E0,-1.566823244E0,-1.128540277E0
3.115634531E0,-1.642568231E0,6.856760383E-2,-9.901834130E-1
3.166440520E0,-1.522078633E0,-1.311489105E0,-1.408002973E-1
3.217245729E0,-1.108229637E0,-2.660850763E0,-6.077930331E-2
3.268051822E0,-1.453052878E0,-1.399603724E0,1.861557066E-1
3.318858593E0,-2.023431540E0,-9.593356252E-1,1.620272398E-1
3.369664583E0,-1.512915969E0,-7.391251922E-1,2.432699203E-1
3.420469791E0,-2.982461751E-1,-1.230857253E0,-1.211615562E0
3.471275885E0,2.444916248E0,-4.917320311E-1,-1.056460381E0
3.522082708E0,4.440095901E0,-3.778090179E-1,-1.284764528E0
3.572888645E0,2.844563007E0,7.314895838E-2,-6.568135023E-1
3.623693906E0,2.054126501E0,8.330429196E-1,-6.077930331E-1
3.674499947E0,1.457481503E0,1.182600260E0,-7.797465324E-1
3.725306770E0,1.086391807E0,1.483900666E0,-9.306257963E-1
3.776112812E0,-1.389677543E-2,1.673263311E0,-9.417737722E-1
3.826917968E0,-1.575985909E0,1.873773932E0,-1.724116355E-1
3.877724062E0,-1.446791768E0,1.967691779E0,4.062134400E-2
3.928530885E0,4.909684956E-1,1.463284612E0,-1.353637576E0
3.979336822E0,6.108472589E-3,1.138619304E0,-8.852704167E-1
4.030142083E0,4.479037523E-1,-1.233911440E-1,-1.398229361E0
4.080948124E0,-3.139754832E-1,4.150707126E-1,-1.041036487E0
4.131754947E0,-1.560256600E0,-2.511193037E0,1.404948719E-2
4.182560989E0,-1.800777674E0,3.605526090E-1,7.725690603E-1
4.233366145E0,-1.804900885E0,-1.430909634E-1,6.629219651E-1
4.284172239E0,-1.969218850E0,-3.010407925E0,-6.581879407E-2
4.334979062E0,-1.212073684E0,-1.261705041E0,6.998782754E-1
4.385784999E0,-1.096012712E0,-5.758762360E-1,1.150988936E0
4.436590467E0,-1.875301123E0,-1.082726717E0,8.773293495E-1
4.487396509E0,-1.574306130E0,-3.144336343E-1,4.497362971E-1
4.538203331E0,5.045598149E-1,-1.095096469E0,-5.407525301E-1
4.589009373E0,2.617175102E0,6.922426820E-1,-5.140279531E-1
4.639814529E0,4.281886578E0,5.911474228E-1,-7.044596076E-1
4.690620623E0,2.806843042E0,2.214932203E0,-1.053711548E-1
4.741427186E0,2.385511160E0,1.749466538E0,7.201889157E-1
4.792233176E0,2.850213289E0,8.780929446E-2,4.610369802E-1
4.843038436E0,1.709914207E0,2.228065491E0,-2.076880634E-1
4.893844478E0,-5.635065958E-2,2.702388287E0,-4.955498278E-1
4.944651301E0,-1.955474734E0,1.876217365E0,-7.275190949E-1
4.995457342E0,-3.880407214E-1,1.109145880E0,-6.824691296E-1
5.046262498E0,9.411629438E-1,1.715564489E0,-7.359182239E-1
5.097068592E0,-4.428642802E-3,2.168507688E-2,-4.792096615E-1
5.147875415E0,-5.479300022E-1,-2.235395432E0,6.704048514E-1
5.198681353E0,-2.297854662E0,-2.915726662E0,5.670189857E-1
5.249486613E0,-2.349013090E0,-2.160261393E0,4.158342779E-1
5.300292655E0,-2.743620396E0,1.716480851E-1,-6.617003083E-1
5.351099478E0,-1.993194580E0,-1.308740258E0,-1.150378108E0
5.401905206E0,-1.153890491E0,-2.675510883E0,-2.370087355E-1
5.452710363E0,-1.203979969E0,-2.310071707E0,8.672503829E-1
5.503516456E0,-2.285943270E0,1.079672500E-1,9.295567870E-1
5.554323279E0,-2.478512824E-1,-1.497339368E0,2.426590770E-1
5.605129217E0,4.489727318E-2,3.571929336E-1,-4.853181541E-1
5.655934477E0,2.635195017E0,8.929060102E-1,-7.817317843E-1
5.706740571E0,4.184303761E0,2.131856978E-1,-5.523586273E-1
5.757547342E0,2.912367105E0,1.526965380E0,-1.982199401E-1
5.808353331E0,2.367491245E0,2.005106211E0,4.935645759E-1
5.859158540E0,2.605568886E0,2.437280566E-1,-6.016845629E-2
5.909964633E0,1.956543803E0,2.412999392E0,-1.928750277E-1
5.960771456E0,1.374406368E-1,2.768512487E0,-6.438329816E-1
6.011577498E0,-1.952573299E0,1.692046881E0,-8.768712282E-1
6.062382654E0,-1.384790778E0,5.430431962E-1,-5.465555787E-1
6.113188748E0,1.087613583E0,1.995943427E0,-3.851391971E-1
6.163995571E0,9.242119193E-1,5.833591223E-1,-6.413896382E-2
6.214801508E0,1.892099380E-1,-5.152496696E-1,6.620057225E-1
6.265606769E0,-2.655200243E0,-3.180681705E0,4.462239146E-1
6.316412863E0,-2.132467747E0,-1.532921195E0,-2.480039895E-1
6.367219685E0,-1.518260837E0,4.016320705E-1,-3.990359604E-1
6.418025623E0,-1.906912446E0,-7.284353375E-1,-5.245651007E-1
6.468830883E0,-1.310878277E0,-1.437170863E0,-6.526902914E-1
6.519636977E0,-1.372726560E0,-1.363258362E0,-7.895200700E-2
6.570443800E0,-1.698002696E0,-1.355317354E0,4.081986845E-1
6.621249842E0,-2.067107201E0,-7.589777559E-2,6.383354217E-2
6.672054998E0,1.870719790E-1,-1.490314603E0,-1.131594554E-1
6.722861092E0,1.799403310E0,5.207473040E-2,-1.516428292E-1
6.773667915E0,3.917668819E0,1.734806150E-1,1.452289373E-1
6.824473904E0,2.706053257E0,4.723376334E-1,1.282779276E-1
6.875279165E0,1.646538734E0,3.282693148E0,6.108472347E-1
6.926085362E0,1.679066420E0,-6.290199757E-1,-7.482878864E-3
6.976892185E0,1.150378108E0,2.026485801E-1,2.693836391E-1
7.027698175E0,3.158080280E-1,1.352873921E0,-7.380561829E-1
7.078503435E0,-1.424343109E0,1.847507477E0,-5.215108395E-1
7.129309529E0,-1.452442050E0,1.429229856E0,-8.032641411E-1
7.180116352E0,1.394564271E0,1.097387075E0,-8.159392476E-1
7.230922342E0,1.240325332E0,6.836907864E-1,-1.440072358E-1
7.281727602E0,7.408050299E-1,-2.537001371E0,4.784461260E-1
7.332533696E0,-1.134343386E0,-2.704984426E0,1.257887244E0
7.383340571E0,-4.517215490E-1,-4.723223686E0,1.607291818E0
7.434146612E0,-1.526812673E0,-7.857022882E-1,1.539335102E-1
7.484951821E0,-1.819561243E0,-1.613094926E0,-7.547017932E-1
7.535757914E0,-1.154501319E0,-1.564990640E0,2.600682080E-1
7.586564737E0,-6.174138784E-1,-1.128998399E0,9.880454540E-1
7.637370831E0,-1.276365399E0,-4.172086716E-1,9.591829181E-1
7.688176039E0,-1.326454878E0,4.885250926E-1,4.501944184E-1
7.738982133E0,-1.496575773E-2,-1.606528312E-1,-3.741439432E-2
7.789788956E0,2.006327868E0,-1.110978484E0,-7.879929990E-2
7.840595050E0,3.571471214E0,-9.634588361E-1,-1.027750522E-1
7.891400258E0,1.972425818E0,2.582356930E-1,-1.005607247E0
7.942206352E0,2.040229797E0,9.101624042E-2,-8.217422962E-1
7.993013227E0,1.522842169E0,-9.468132630E-3,-5.868715048E-1
8.043819217E0,1.038287640E0,2.854183912E-1,-2.055501044E-1
8.094624477E0,2.797680497E-1,1.574764252E0,1.175880991E-2
8.145430623E0,-8.072346449E-1,1.577971220E0,6.872031838E-2
8.196237446E0,-1.574764252E0,2.529365778E0,-5.283828825E-2
8.247043539E0,-2.156901598E0,5.173112869E0,-7.206470370E-1
8.297848748E0,9.904888272E-1,1.007134438E0,-4.859289825E-1
8.348654842E0,7.062921524E-1,7.956285477E-1,-2.086043358E-1
8.399461717E0,9.315420687E-2,-1.978534222E0,2.825168520E-2
8.450267706E0,-2.052141428E0,-1.731446505E0,6.360446811E-1
8.501073019E0,-2.418802500E0,-2.250972033E0,9.261971712E-1
8.551879112E0,-2.520661116E0,1.136633992E0,-3.897205591E-1
8.602685987E0,-2.282583475E0,-6.106945276E-1,-1.496728539E0
8.653491977E0,-1.583926916E0,-1.260177851E0,-8.715263009E-1
8.704297237E0,-1.399145603E0,-4.851654470E-1,-1.435491070E-2
8.755103643E0,-1.489551067E0,-7.452336550E-1,2.754921019E-1
8.805910466E0,-2.060235023E0,2.675510943E-1,3.071034551E-1
8.856716508E0,2.990097404E-1,-9.546015263E-1,2.728960216E-1
8.907521768E0,1.935774922E0,1.301715493E0,-3.448232710E-1
8.958327914E0,4.119706631E0,1.328592777E0,-5.699204803E-1
9.009134737E0,4.084277630E0,-7.223268598E-2,-1.172826737E-1
9.059940779E0,2.731709003E0,2.857390881E0,2.854183912E-1
9.110745674E0,2.937717199E0,1.649287529E-2,1.420219894E-2
9.161551820E0,2.656880140E0,2.635653257E0,1.666085869E-1
9.212358643E0,7.342383862E-1,3.155178785E0,-3.775036037E-1
9.263164684E0,-1.569724798E0,2.320150614E0,-6.334486008E-1
9.313969945E0,-1.266286373E0,3.681881726E-1,-1.127471328E0
9.364776091E0,1.313932419E0,1.167329073E0,-4.856235534E-2
9.415582914E0,6.181774139E-1,1.456870735E-1,-4.924955964E-1
9.466389528E0,-8.861866593E-1,-2.416817188E0,4.726430774E-1
9.517194737E0,-2.794320822E0,-2.550134659E0,4.083513916E-1
9.568000830E0,-2.719033957E0,-1.949213624E0,1.682884246E-1
9.618807705E0,-3.331713676E0,4.170559645E-1,-1.040731072E0
9.669613695E0,-2.363215446E0,-2.118418217E0,-1.639514089E0
9.720418955E0,-1.354706526E0,-3.043393850E0,-2.756448388E-1
9.771225101E0,-1.213295341E0,-2.097649574E0,8.335011005E-1
9.822031924E0,-2.094289780E0,6.988092661E-1,7.258392572E-1
9.872838018E0,-8.017370105E-2,-1.340656996E0,-8.933641016E-2
9.923643226E0,8.722898960E-1,6.992673874E-1,-4.735593498E-1
9.974449320E0,3.902703047E0,1.314085126E0,-5.444176197E-1
1.002525614E1,4.206599712E0,-6.981984377E-1,-2.932066917E-1
1.007606213E1,2.759960651E0,2.346264362E0,9.956810623E-2
1.012686739E1,2.653673172E0,1.213906169E0,2.299840003E-1
1.017767354E1,2.785158157E0,1.809329629E0,2.038702667E-1
1.022848036E1,1.363258362E0,2.768054247E0,-5.925218463E-1
1.027928640E1,-8.724426031E-1,2.770803213E0,-1.064095974E0
1.033009156E1,-1.767181158E0,4.781406820E-1,-1.521620512E0
1.038089765E1,1.045617819E0,1.538266063E0,2.614426315E-1
1.043170448E1,4.911212027E-1,4.460712075E-1,-6.615476012E-1
1.048251047E1,-8.874083757E-1,-2.583578587E0,4.561502039E-1
1.053331573E1,-2.105132341E0,-2.223636627E0,7.029324770E-1
1.058412182E1,-2.590450525E0,-2.180572033E0,3.695625961E-1
1.063492859E1,-3.134104490E0,9.576557875E-1,-8.915315866E-1
1.068573458E1,-2.173699856E0,-1.700598717E0,-1.580719948E0
1.073653984E1,-1.405101418E0,-2.814020634E0,-2.927485406E-1
1.078734588E1,-1.158319116E0,-3.054541826E0,7.094991207E-1
1.083815270E1,-2.302436113E0,7.272136807E-1,8.029587269E-1
1.088895864E1,-8.092198968E-1,-8.246437907E-1,1.985253533E-3
1.093976385E1,7.029324770E-1,3.619270027E-1,-2.605263591E-1
1.099056994E1,3.626142025E0,7.560762167E-1,-2.883199155E-1
1.104137672E1,4.204614162E0,1.517955512E-1,-5.926745534E-1
1.109218265E1,2.675969124E0,2.087723255E0,-3.040492237E-1
1.114298786E1,2.699792147E0,1.362952948E0,2.093679011E-1
1.119379390E1,2.922751427E0,1.618287086E0,1.772984117E-1
1.124460073E1,1.556591511E0,2.952988386E0,-4.037700295E-1
1.129540672E1,-5.335750580E-1,3.164494276E0,-8.389987350E-1
1.134621182E1,-1.851783514E0,4.427115619E-1,-1.517802715E0
1.139701786E1,9.683456421E-1,1.514748454E0,1.362189353E-1
1.144782463E1,7.366818190E-1,6.529957056E-1,-6.187883019E-1
1.149863057E1,-5.783196688E-1,-2.398186445E0,4.254551232E-1
1.154943578E1,-2.449802876E0,-2.675510883E0,5.285356045E-1
1.160024177E1,-2.502946615E0,-2.926874638E0,5.276193023E-1
1.165104854E1,-3.437848330E0,1.112658262E0,-7.166765332E-1
1.170185442E1,-2.184542418E0,-1.979755998E0,-1.518718958E0
1.175265963E1,-1.307976723E0,-2.984447002E0,-4.262186885E-1
1.180346562E1,-1.407544851E0,-2.958944082E0,6.103891134E-1
1.185427239E1,-2.153847456E0,7.809682488E-1,8.460234404E-1
1.190507828E1,-2.921377122E-1,-1.276212692E0,3.665083647E-2
1.195588344E1,5.900784731E-1,7.962393761E-1,-5.358657837E-1
1.200668942E1,4.005020142E0,8.617527485E-1,-3.286358118E-1
1.205749614E1,3.877352953E0,-6.120689511E-1,-2.983988822E-1
1.210830203E1,2.847769976E0,2.540819168E0,6.306997687E-2
1.215910718E1,2.616869688E0,2.779355086E-2,2.686200738E-1
1.220991317E1,2.792793751E0,2.406738281E0,1.667613089E-1
1.226071989E1,1.367686987E0,2.883962631E0,-4.353813827E-1
1.231152578E1,-7.791357040E-1,2.859681368E0,-8.150229454E-1
1.236233094E1,-1.773747683E0,1.028055906E0,-1.873010397E0
1.241313687E1,4.564556181E-1,7.020162344E-1,-1.699682474E-1
1.246394359E1,1.344474792E0,1.088377118E0,-4.763081372E-1
1.251474953E1,3.150444627E-1,-5.775560737E-1,4.915793240E-1
1.256555458E1,-2.326869965E0,-2.818601847E0,3.917058110E-1
1.261636052E1,-2.999259949E0,-3.757627010E0,4.543176591E-1
1.266716724E1,-2.936495543E0,3.796415627E-1,1.107160673E-1
1.271797307E1,-2.568612814E0,-1.232384324E0,-1.556896925E0
1.276877823E1,-1.600267053E0,-3.214736462E0,-1.003469348E0
1.281958416E1,-1.170841455E0,-2.663752079E0,4.262186885E-1
1.287039083E1,-1.409682751E0,-5.184566379E-1,9.994988441E-1
1.292119666E1,-1.336075664E0,-5.836645365E-1,5.764871240E-1
1.297200177E1,-1.985253543E-1,1.443126649E-1,-1.818797737E-1
1.302280770E1,1.315459609E0,1.705790907E-1,-4.815003574E-1
1.307361437E1,3.907131672E0,1.597823739E0,-5.037962794E-1
1.312442021E1,3.942560911E0,-1.282473803E0,-2.626643181E-1
1.317522531E1,2.709871054E0,2.126664639E0,2.678565085E-1
1.322603125E1,2.568612814E0,6.317687631E-1,1.229330078E-1
1.327683786E1,2.706358671E0,2.450413704E0,5.848862603E-2
1.332764370E1,1.064706802E0,3.019876242E0,-8.119687438E-1
1.337844880E1,-1.111742020E0,2.686048031E0,-1.179545999E0
1.342925468E1,-1.797723532E0,6.852179170E-1,-1.723505497E0
1.348006135E1,9.437590241E-1,1.541167617E0,-3.512371797E-3
1.353086713E1,1.018893242E0,9.790354371E-1,-7.221741676E-1
1.358167224E1,-3.252761662E-1,-1.960819721E0,4.033119082E-1
1.363247812E1,-1.867054701E0,-1.801541328E0,3.526115716E-1
1.368328474E1,-2.590450525E0,-3.617131948E0,7.728744745E-1
1.373409052E1,-2.652451515E0,6.965186000E-1,3.680354729E-2
1.378489562E1,-2.570292473E0,-1.202911019E0,-1.570641041E0
1.383570151E1,-1.295454383E0,-2.360313892E0,-6.778877378E-1
1.388650812E1,-1.006676316E0,-2.560824394E0,4.845545888E-1
1.393731390E1,-1.963415861E0,-5.725166202E-1,8.968765140E-1
1.398811896E1,-1.420678020E0,-2.962609231E-1,6.163448691E-1
1.403892484E1,2.779355086E-2,-2.330382317E-1,-1.531699449E-1
1.408973146E1,1.904163599E0,5.164713860E-1,-8.435800672E-1
1.414053724E1,4.216067791E0,1.368908763E0,-6.227588058E-1
1.419134224E1,3.532377005E0,-3.649812192E-2,-4.856235534E-2
1.424214812E1,2.714605331E0,2.013505220E0,4.381301999E-1
1.429295474E1,2.771566629E0,3.071034551E-1,-5.467082933E-2
1.434376047E1,2.560977221E0,2.736290216E0,-3.344388679E-2
1.439456552E1,6.975875497E-1,2.875868797E0,-7.273663878E-1
1.444537135E1,-1.462368369E0,1.976854444E0,-1.229788303E0
1.449617796E1,-1.092194915E0,-4.672981426E-2,-1.258650780E0
1.454698369E1,8.139539957E-1,1.864916682E0,-1.441599578E-1
1.459778874E1,3.816268146E-1,-1.902789176E-1,-3.248180151E-1
1.464859458E1,-6.714738607E-1,-2.506764412E0,3.216110766E-1
1.469940114E1,-3.051945686E0,-3.140518427E0,6.013791561E-1
1.475020692E1,-2.338170528E0,-1.767333865E0,8.967237473E-1
1.480101192E1,-3.093636036E0,6.015318632E-1,-8.290724158E-1
1.485181776E1,-1.866596460E0,-1.765501261E0,-1.342795014E0
1.490262432E1,-1.215891480E0,-2.919086456E0,-2.557922900E-1
1.495343005E1,-1.420067191E0,-2.135063887E0,7.568397522E-1
1.500423505E1,-1.913479090E0,2.786990702E-1,9.440644383E-1
1.505504088E1,-5.099047422E-1,-8.800781965E-1,1.919587553E-1
1.510584744E1,5.413633585E-1,6.641436815E-1,-5.228852630E-1
1.515665317E1,3.577732325E0,7.171346545E-1,-7.169819474E-1
1.520745817E1,3.824056625E0,-1.540862173E-1,-4.242334068E-1
1.525826395E1,2.845326424E0,2.142852068E0,1.618745178E-1
1.530907052E1,2.520355701E0,3.668137789E-1,2.580829561E-1
1.535987624E1,2.739802599E0,1.342489600E0,1.516428292E-1
1.541068119E1,1.383874416E0,2.627101421E0,-5.378510356E-1
1.546148703E1,-6.125270724E-1,2.936342716E0,-9.176452756E-1
1.551229359E1,-2.063136578E0,7.873821259E-1,-1.702278614E0
1.556309927E1,6.322268844E-1,1.413500547E0,-3.924693540E-2
1.561390427E1,1.197107911E0,1.425106645E0,-6.604785919E-1
1.566471005E1,-5.879404768E-2,-1.817117929E0,3.859027624E-1
1.571551656E1,-1.853615999E0,-2.033510447E0,5.844281316E-1
1.576632229E1,-2.596100807E0,-3.737163544E0,6.916317940E-1
1.581712724E1,-3.099438906E0,5.456393361E-1,-2.341072112E-1
1.586793302E1,-2.371309042E0,-1.557049632E0,-1.468629479E0
1.591873958E1,-1.234522343E0,-2.622825384E0,-6.908682585E-1
1.596954526E1,-1.052184463E0,-3.433267117E0,4.318690002E-1
1.602035020E1,-2.025874853E0,-2.922904193E-1,1.036760569E0
1.607115598E1,-1.323858738E0,-3.843756318E-1,8.376243114E-1
1.612196250E1,-4.756973088E-1,-3.530697227E-1,-5.899257660E-1
1.617276817E1,2.074895382E0,2.857238054E-1,-3.335226178E-1
1.622357312E1,4.360685825E0,6.006155610E-1,-4.085040987E-1
1.627437890E1,3.589491129E0,-2.145601064E-1,-4.202629030E-1
1.632518541E1,2.699792147E0,2.105590582E0,4.085040987E-1
1.637599109E1,2.625726938E0,4.056025743E-1,7.482878864E-2
1.642679599E1,2.542346239E0,3.138533115E0,5.925218388E-2
1.647760177E1,7.357655168E-1,2.932677746E0,-6.355865598E-1
1.652840828E1,-1.589882731E0,1.885380030E0,-1.149003744E0
1.657921395E1,-8.295305967E-1,5.593833923E-1,-1.108687758E0
1.663001885E1,1.165191174E0,1.742441773E0,-1.921114624E-1
1.668082463E1,3.307738006E-1,1.792836636E-1,-6.421532035E-1
1.673163109E1,-7.331694365E-1,-2.491798639E0,2.414373755E-1
1.678243677E1,-2.676732779E0,-1.684105873E0,3.884988427E-1
1.683324166E1,-2.157512426E0,-2.914352179E0,8.900044560E-1
1.688404744E1,-2.964594364E0,1.164885759E0,-6.070294380E-1
1.693485390E1,-2.027860165E0,-1.382652760E0,-1.439767003E0
1.698565958E1,-1.176949978E0,-2.560213566E0,-2.383831441E-1
1.703646447E1,-1.519788027E0,-2.386274815E0,6.908682585E-1
1.708727020E1,-2.535932302E0,1.006218195E0,8.328902125E-1
1.713807671E1,-1.835595965E-1,-1.711899400E0,1.195733473E-1
1.718888234E1,4.995203316E-1,4.083513916E-1,-3.961344361E-1
1.723968724E1,3.398906946E0,1.024085402E0,-5.299099684E-1
1.729049296E1,4.051597118E0,3.119902313E-1,-5.659499764E-1
1.734129942E1,2.962761879E0,2.219208002E0,-1.798945218E-1
1.739210505E1,2.632751703E0,8.974873424E-1,1.398840249E-1
1.744290994E1,2.881977320E0,1.147323847E0,-9.865183383E-2
1.749371567E1,1.818339586E0,2.988264799E0,-4.567610323E-1
1.754452213E1,-3.358132839E-1,2.967954159E0,-8.225058317E-1
1.759532776E1,-2.180113792E0,1.023779988E0,-1.627755284E0
1.764613265E1,4.611896873E-1,1.068371892E0,-1.328592747E-2
1.769693838E1,9.179506898E-1,1.054780483E0,-4.955498278E-1
1.774774484E1,-2.860292196E-1,-2.159803152E0,1.359135211E-1
1.779855046E1,-2.006022453E0,-1.902483821E0,3.301629424E-1
1.784935531E1,-2.648328304E0,-4.164298534E0,1.025001645E0
1.790016104E1,-3.035605431E0,1.025154471E0,-5.039489828E-3
1.795096750E1,-2.588159800E0,-1.053864241E0,-1.439614296E0
1.800177307E1,-1.409224629E0,-2.517912388E0,-6.368082762E-1
1.805257796E1,-1.323400617E0,-2.878923178E0,4.842491746E-1
1.810338359E1,-2.035801172E0,5.894676223E-2,1.168398142E0
1.815419010E1,-1.175422788E0,-3.833066523E-1,5.651864409E-1
1.820499572E1,1.052184403E-1,2.783936262E-1,-5.767925382E-1
1.825580057E1,2.931150675E0,8.628217578E-1,-7.455390692E-1
1.830660630E1,4.282497406E0,2.260134928E-2,-6.114581227E-1
1.835741270E1,3.146168709E0,1.235133171E0,-1.473668963E-1
1.840821828E1,2.682993889E0,7.446228266E-1,4.237752855E-1
1.845902317E1,3.021861315E0,1.059056401E0,3.379512429E-1
1.850982885E1,2.115364075E0,2.772941113E0,-3.348970115E-1
1.856063526E1,1.765348613E-1,2.934968472E0,-6.749862432E-1
1.861144088E1,-1.917449594E0,1.003622055E0,-1.082115889E0
1.866224572E1,-2.698417902E-1,4.332434237E-1,-5.441122055E-1
1.871305140E1,1.249335408E0,1.258345366E0,-2.286095917E-1
1.876385781E1,3.038965166E-2,-1.477639556E0,-5.619794875E-2
1.881466338E1,-1.719382286E0,-2.531809092E0,4.798205197E-1
1.886546822E1,-3.122040272E0,-4.487589359E0,8.713735938E-1
1.891627395E1,-2.877548695E0,3.981196880E-1,6.116108298E-1
1.896708036E1,-2.654894829E0,-1.608055383E-1,-1.407850266E0
1.901788593E1,-1.820630312E0,-2.427812338E0,-1.117697716E0
1.906869078E1,-1.145796776E0,-3.377374411E0,2.195995897E-1
1.911949645E1,-1.925543308E0,-2.070772201E-1,1.024390817E0
1.917030286E1,-1.191610336E0,-1.087308168E0,6.665870547E-1
1.922110838E1,-1.832541823E-1,-2.641914412E-2,-3.738385141E-1
1.927191322E1,2.394521236E0,8.486195803E-1,-5.625903010E-1
1.932271890E1,4.240043640E0,5.583143830E-1,-6.148177385E-1
1.937352531E1,3.243293524E0,8.528954983E-1,-3.081724346E-1
1.942433088E1,2.875716209E0,1.257123709E0,5.468609929E-1
1.947513567E1,2.926569223E0,9.260444641E-1,1.476723254E-1
1.952594135E1,2.328855276E0,2.701319218E0,-2.848075330E-1
1.957674776E1,3.268032968E-1,3.203283072E0,-6.285618544E-1
1.962755333E1,-1.702431321E0,1.775885701E0,-1.415638566E0
1.967835812E1,-3.080197275E-1,2.738122940E-1,-8.360971808E-1
1.972916380E1,1.222305417E0,1.590035439E0,-2.736595869E-1
1.977997015E1,4.434750974E-1,-6.714738607E-1,-5.207473040E-2
1.983077572E1,-1.256665468E0,-2.587854385E0,5.092939138E-1
1.988158052E1,-3.164646864E0,-4.090691566E0,7.024743557E-1
1.993238619E1,-2.826848507E0,-6.413896382E-2,5.786250830E-1
1.998319255E1,-3.043088436E0,-2.141019702E-1,-1.308740258E0
2.003399812E1,-1.897444248E0,-2.518217802E0,-1.335464835E0
2.008480291E1,-1.064248681E0,-3.620491743E0,-6.230641901E-2
2.013560859E1,-1.600725293E0,-1.527729034E0,1.025765300E0
2.018641494E1,-1.668987393E0,2.278460264E-1,9.604045749E-1
2.023722046E1,-1.858502775E-1,-7.030851841E-1,-4.463766217E-1
2.028802531E1,1.547123432E0,6.829272509E-1,-5.661026835E-1
2.033883093E1,4.333045006E0,8.805363178E-1,-5.354076028E-1
2.038963729E1,3.533446074E0,-1.937913001E-1,-3.355078697E-1
2.044044281E1,2.820281744E0,2.010145664E0,3.344388604E-1
2.049124760E1,2.502488613E0,4.329380095E-1,6.917845458E-2
2.054205328E1,2.792946339E0,3.010713339E0,1.786728203E-1
2.059285963E1,8.406785131E-1,3.073019743E0,-6.039752364E-1
2.064366515E1,-1.421441555E0,2.528907537E0,-1.123806238E0
2.069446994E1,-1.153432369E0,8.429691941E-2,-1.356844425E0
2.074527557E1,1.179698825E0,1.614316583E0,-4.382828996E-2
2.079608192E1,7.922688723E-1,3.539859951E-1,-2.261662036E-1
2.084688744E1,-9.119949341E-1,-2.981850863E0,3.414636254E-1
2.089769224E1,-3.029344320E0,-3.635152102E0,6.484143734E-1
2.094849786E1,-2.397117376E0,-1.850103617E0,1.014617324E0
2.099930421E1,-2.917101145E0,7.534800768E-1,-8.594620824E-1
2.105010974E1,-2.259371281E0,-1.542083859E0,-1.396702290E0
2.110091447E1,-1.424343109E0,-2.647106647E0,-3.946073353E-1
2.115172010E1,-1.461146593E0,-2.668333530E0,6.722373962E-1
2.120252645E1,-1.866901994E0,4.242334068E-1,1.054016948E0
2.125333197E1,-2.921377122E-1,-1.389219403E0,8.429691941E-2
2.130413671E1,7.411104441E-1,9.184088707E-1,-5.381564498E-1
2.135494234E1,3.844214439E0,1.582247138E0,-6.248967648E-1
2.140574869E1,4.020749569E0,-7.768449783E-1,-2.333436459E-1
2.145655421E1,2.786685228E0,2.305032015E0,7.543963939E-2
2.150735895E1,2.388870955E0,3.585673273E-1,6.261184067E-2
2.155816458E1,2.864568233E0,2.603889227E0,3.399364948E-1
2.160897088E1,1.235285878E0,3.051487446E0,-2.499892414E-1
2.165977640E1,-8.956547976E-1,2.698723078E0,-9.345963001E-1
2.171058114E1,-1.752673507E0,4.169032574E-1,-1.918518543E0
2.176138677E1,1.061652541E0,1.347070932E0,-3.069507517E-2
2.181219307E1,7.230904698E-1,5.775560737E-1,-7.785248160E-1
2.186299859E1,-4.188885093E-1,-2.247307062E0,2.136438340E-1
2.191380333E1,-2.249750376E0,-1.488023877E0,3.991886973E-1
2.196460890E1,-2.444152594E0,-3.776868582E0,7.808154821E-1
2.201541526E1,-3.417232275E0,8.139539957E-1,-5.543438792E-1
2.206622072E1,-2.260592937E0,-1.358982444E0,-1.471378326E0
2.211702546E1,-1.000415087E0,-3.007506371E0,-3.810159862E-1
2.216783099E1,-1.318971992E0,-2.811577320E0,6.545228362E-1
2.221863739E1,-2.119945526E0,7.948650122E-1,9.704836011E-1
2.226944286E1,-5.248705149E-1,-1.263842940E0,-8.399149403E-3
2.232024760E1,6.255075932E-1,3.648285270E-1,-4.146125913E-1
2.237105317E1,3.673482656E0,1.166718245E0,-7.030851841E-1
2.242185947E1,4.219274521E0,-7.021689415E-1,-4.259132445E-1
2.247266494E1,2.887475014E0,2.111240864E0,1.585148573E-1
2.252346968E1,2.709260225E0,6.444438696E-1,5.960342288E-1
2.257427526E1,2.772024870E0,1.752062678E0,3.810159862E-1
2.262508156E1,1.145338655E0,2.418497086E0,-5.871769190E-1
2.267588703E1,-8.550334573E-1,2.530282021E0,-8.246437907E-1
2.272669177E1,-2.034426689E0,7.496622801E-1,-1.786270142E0
2.277749734E1,1.072189689E0,1.640124917E0,-7.482878864E-3
2.282830364E1,1.000873208E0,4.915793240E-1,-7.120952010E-1
2.287910911E1,-2.929012477E-1,-2.263189077E0,3.452814221E-1
2.292991380E1,-2.711245537E0,-2.127275467E0,7.386670709E-1
2.298071937E1,-2.485079288E0,-2.872814655E0,8.342646360E-1
2.303152567E1,-3.204504728E0,6.290199757E-1,-9.468132257E-1
2.308233114E1,-2.276933193E0,-1.303853512E0,-1.630504012E0
2.313313583E1,-1.134343386E0,-2.982156277E0,-3.147390485E-1
2.318394140E1,-1.189166903E0,-2.468739271E0,8.191461563E-1
2.323474770E1,-1.904621720E0,1.487413049E-1,1.102884769E0
2.328555312E1,-6.253548861E-1,-1.073105931E0,2.252499312E-1
2.333635786E1,5.375456065E-2,6.103891134E-1,-3.591781855E-1
2.338716333E1,3.170297384E0,8.353336453E-1,-7.898254991E-1
2.343796968E1,4.169337749E0,-9.300149232E-2,-3.836120665E-1
2.348877510E1,2.981392860E0,1.665780425E0,5.360184610E-2
2.353957984E1,2.652298689E0,8.118160367E-1,3.872771561E-1
2.359038536E1,2.792640924E0,1.418234587E0,1.007898003E-1
2.364119166E1,1.655396104E0,2.735679388E0,-4.433223903E-1
2.369199708E1,-1.021642014E-1,2.941382170E0,-8.003626466E-1
2.374280177E1,-2.082989216E0,9.712471366E-1,-1.719382286E0
2.379360734E1,2.018850148E-1,1.282626510E0,-2.307475507E-1
2.384441359E1,1.210699320E0,1.468476772E0,-5.341859460E-1
2.389521901E1,-1.415638477E-1,-1.917296886E0,2.131856978E-1
2.394602369E1,-1.777260065E0,-2.030303478E0,6.985038519E-1
2.399682927E1,-2.791266441E0,-3.589338541E0,8.293778896E-1
2.404763552E1,-2.926263809E0,6.445965767E-1,-1.392731816E-1
2.409844093E1,-2.439418554E0,-1.065317631E0,-1.579498291E0
2.414924562E1,-1.439308882E0,-2.668638945E0,-8.412894011E-1
2.420005109E1,-9.327637553E-1,-2.989028454E0,5.351021886E-1
2.425085744E1,-1.941578031E0,-4.950917065E-1,1.063637733E0
2.430166286E1,-1.490620017E0,-1.930277348E-1,4.908157587E-1
2.435246755E1,4.138490260E-1,-3.713951409E-1,-4.549284875E-1
2.440327307E1,2.819060087E0,1.029277682E0,-6.125270724E-1
2.445407932E1,4.247984409E0,7.185090780E-1,-3.724641204E-1
2.450488474E1,3.253830671E0,1.260330558E0,4.993676394E-2
2.455568937E1,2.540819168E0,1.138924718E0,3.567348123E-1
2.460649484E1,2.633515358E0,9.272661209E-1,1.099525020E-2
2.465730114E1,2.034884930E0,2.929012537E0,-2.651077211E-1
2.470810656E1,5.680879578E-2,2.750492573E0,-9.486457705E-1
2.475891124E1,-2.376195908E0,1.503295064E0,-1.826891422E0
2.480971677E1,1.404948719E-2,1.250862479E0,-5.456393361E-1
2.486052296E1,1.321262598E0,1.897749662E0,-7.835643291E-1
2.491132838E1,-8.551861346E-2,-1.421136141E0,-8.765657991E-2
2.496213307E1,-8.774821162E-1,-1.960667014E0,1.979145110E-1
2.501293859E1,-3.094704866E0,-3.534973145E0,9.593356252E-1
2.506374479E1,-2.334505558E0,-3.917058110E-1,6.027535200E-1
2.511455020E1,-2.830055237E0,-4.191939235E-1,-1.460688472E0
2.516535484E1,-1.467713237E0,-2.188971043E0,-1.117239594E0
2.521616036E1,-8.218950033E-1,-2.816311359E0,2.122694254E-1
2.526696661E1,-1.817576051E0,-1.434880257E0,8.709154725E-1
2.531777197E1,-1.742441773E0,1.417165697E-1,6.983511448E-1
2.536857666E1,7.162184268E-2,-1.044090629E0,-2.921377122E-1
2.541938208E1,1.989376783E0,6.103891134E-1,-4.237752855E-1
2.547018838E1,4.396878719E0,9.616262913E-1,-4.876088202E-1
2.552099375E1,3.437390327E0,8.275453448E-1,-3.639122546E-1
2.557179838E1,2.585105658E0,2.057638884E0,2.901524603E-1
2.562260390E1,2.576248407E0,2.150182426E-1,-1.679830020E-3
2.567341010E1,2.250666618E0,2.800581932E0,-5.619794875E-2
2.572421552E1,3.106158376E-1,2.642219782E0,-8.405258060E-1
2.577502015E1,-2.117043972E0,1.578734756E0,-1.348139882E0
2.582582562E1,-6.087092757E-1,4.136963189E-1,-9.167290330E-1
2.587663182E1,1.337450027E0,2.077644348E0,-4.798205197E-1
2.592743724E1,-4.117110670E-1,-1.237729311E0,-5.977140665E-1
2.597824187E1,-5.657972693E-1,-2.448886633E0,1.801999360E-1
2.602904734E1,-2.604652643E0,-1.449540496E0,4.860817194E-1
2.607985354E1,-2.299534559E0,-3.461671352E0,8.582404256E-1
2.613065890E1,-2.996664047E0,3.665083647E-1,-6.253548861E-1
2.618146354E1,-1.690061688E0,-1.701973200E0,-1.152210593E0
2.623226901E1,-8.806890249E-1,-3.329881191E0,-2.225011140E-1
2.628307520E1,-1.428313613E0,-1.912562728E0,6.094728708E-1
2.633388057E1,-1.828418612E0,6.398624927E-2,9.324583411E-1
2.638468520E1,-2.745758295E-1,-1.002400398E0,-1.722589284E-1
2.643549062E1,1.055085897E0,3.353551328E-1,-5.673243999E-1
2.648629687E1,4.342207909E0,1.135412335E0,-1.325538605E-1
2.653710224E1,3.645841837E0,-3.417690396E-1,-3.353551328E-1
2.658790687E1,2.653062344E0,2.573499441E0,2.690782249E-1
2.663871234E1,2.688186169E0,-1.969982497E-2,3.121429384E-1
2.668951854E1,2.483705044E0,2.494241953E0,3.547495604E-1
2.674032385E1,9.999569654E-1,2.636264086E0,-5.042544007E-1
2.679112848E1,-1.139688253E0,2.064511061E0,-7.137750387E-1
2.684193395E1,-1.640735745E0,6.235223413E-1,-1.462368369E0
2.689274010E1,1.167787194E0,1.807649732E0,-6.917845458E-2
2.694354546E1,7.841751575E-1,4.479037523E-1,-7.078192830E-1
2.699435010E1,-8.110524416E-1,-2.469350100E0,2.281514555E-1
2.704515546E1,-2.232646704E0,-2.045880079E0,6.093201637E-1
2.709596171E1,-2.574568510E0,-3.125094652E0,5.993938446E-1
2.714676708E1,-2.928401709E0,1.400367320E-1,-5.697677732E-1
2.719757166E1,-2.282736301E0,-9.323056340E-1,-1.496881247E0
2.724837713E1,-1.232689738E0,-2.371156454E0,-4.989095032E-1
2.729918328E1,-7.290462255E-1,-3.335531473E0,5.138752460E-1
2.734998864E1,-2.031677961E0,-7.773031294E-2,8.759549856E-1
2.740079322E1,-1.083184958E0,-7.162184119E-1,3.352024257E-1
2.745159859E1,2.663294077E-1,-5.624375939E-1,-6.048914790E-1
2.750240484E1,3.191524267E0,1.085170150E0,-1.000262350E-1
2.755321015E1,4.187663555E0,-1.963873953E-1,-1.221694518E-2
2.760401479E1,2.869760513E0,1.971814990E0,-8.185353130E-2
2.765482020E1,2.478818178E0,7.362236381E-1,1.739387512E-1
2.770562635E1,2.512262106E0,1.293163657E0,1.542389300E-2
2.775643166E1,1.823989868E0,2.969786644E0,-3.717005551E-1
2.780723630E1,2.504473738E-2,2.532878160E0,-7.441646457E-1
2.785804171E1,-2.048323631E0,1.191763043E0,-1.323706031E0
2.790884786E1,4.199574888E-2,1.006676316E0,-4.857762754E-1
2.795965317E1,1.218945742E0,1.883700252E0,-6.639909744E-1
2.801045776E1,-3.306210935E-1,-1.493521571E0,-3.855973184E-1
2.806126312E1,-4.932591617E-1,-1.267660737E0,2.519744933E-1
2.811206937E1,-2.846853733E0,-2.459270954E0,6.548282504E-1
2.816287468E1,-2.024653196E0,-1.268424392E0,7.740961909E-1
2.821367927E1,-2.924125910E0,5.311316848E-1,-1.199856758E0
2.826448458E1,-1.834832430E0,-1.511388779E0,-1.204743505E0
2.831529078E1,-1.060278177E0,-2.058402538E0,4.566083103E-2
2.836609609E1,-1.630962133E0,-2.172783613E0,7.049177289E-1
2.841690067E1,-2.150793314E0,9.500201941E-1,7.140804529E-1
2.846770604E1,6.413896382E-2,-1.664406061E0,-1.317902952E-1
2.851851224E1,1.150378108E0,1.147476554E0,-5.251759291E-1
2.856931755E1,4.413218498E0,9.297095537E-1,-4.123218954E-1
2.862012213E1,3.540318012E0,-2.379250079E-1,-2.814478874E-1
2.867092755E1,2.680550575E0,2.180266619E0,1.998997629E-1
2.872173369E1,2.495311022E0,3.109212518E-1,1.123958975E-1
2.877253895E1,2.553341627E0,2.661308765E0,2.394521236E-1
2.882334354E1,8.034168482E-1,2.786532402E0,-5.329642296E-1
2.887414895E1,-1.293621778E0,2.172783613E0,-1.058903694E0
2.892495505E1,-1.330272675E0,1.682884246E-1,-1.555675268E0
2.897576036E1,1.083184958E0,1.635238171E0,-2.031067200E-2
2.902656489E1,3.249707520E-1,-3.054236295E-4,-6.503996253E-1
2.907737031E1,-7.789829373E-1,-2.730487347E0,2.415900975E-1
2.912817645E1,-2.131856918E0,-1.053406119E0,5.945070982E-1
2.917898171E1,-2.124068737E0,-3.695014954E0,6.797202826E-1
2.922978630E1,-3.057137728E0,3.886515796E-1,-5.896202922E-1
2.928059161E1,-2.387801886E0,-1.147018433E0,-1.478708506E0
2.933139781E1,-1.039203882E0,-2.589992285E0,-3.558185399E-1
2.938220307E1,-1.095554590E0,-3.050112963E0,6.349757314E-1
2.943300765E1,-2.197370291E0,4.222481549E-1,9.915578365E-1
2.948381302E1,-7.244648337E-1,-1.240478039E0,3.600944579E-1
2.953461911E1,3.564293683E-1,6.293253899E-1,-4.517215490E-1
2.958542442E1,3.268338203E0,1.040120125E0,-1.137397647E0
2.963622895E1,4.326172829E0,-8.246437646E-3,-4.514161348E-1
2.968703427E1,3.000023603E0,1.505585790E0,2.793098986E-1
2.973784046E1,2.691545725E0,8.131904006E-1,6.084038615E-1
2.978864572E1,2.870523930E0,1.488023877E0,4.453076422E-1
2.983945026E1,1.546970725E0,2.643594265E0,-3.616215885E-1
2.989025557E1,-3.888042867E-1,2.512872934E0,-6.193991303E-1
2.994106177E1,-2.364284277E0,7.525638342E-1,-1.524674773E0
2.999186703E1,2.293731421E-1,1.174048424E0,-4.243861437E-1
3.004267156E1,1.285528064E0,1.750840902E0,-6.933116317E-1
3.009347692E1,-2.560977042E-1,-2.235548258E0,2.226538211E-1
3.014428302E1,-1.985558987E0,-1.983268380E0,6.644490957E-1
3.019508828E1,-2.795084238E0,-2.720561028E0,6.766660213E-1
3.024589281E1,-2.873272896E0,4.352286756E-1,-5.851916671E-1
3.029669812E1,-2.117349386E0,-8.142594099E-1,-1.383110881E0
3.034750427E1,-1.445569992E0,-1.840177417E0,-5.065450668E-1
3.039830953E1,-1.100288630E0,-3.123872995E0,5.923691392E-1
3.044911406E1,-2.243489265E0,1.145338640E-2,1.020878434E0
3.049991942E1,-9.333745837E-1,-7.521057129E-1,4.825693369E-1
3.055072552E1,4.640912116E-1,1.433963925E-1,-6.389462352E-1
3.060153078E1,3.565057278E0,1.296981454E0,-4.503471553E-1
3.065233531E1,4.117110729E0,-1.861557066E-1,-2.669402659E-1
3.070314067E1,2.978185892E0,2.181488276E0,-6.658235192E-2
3.075394671E1,2.291440725E0,4.928010404E-1,-9.422318637E-2
3.080475197E1,2.801040173E0,1.649898410E0,1.881409585E-1
3.085555651E1,1.681815267E0,2.902898788E0,-3.139754832E-1
3.090636187E1,-5.905365944E-1,2.561282635E0,-8.576295376E-1
3.095716796E1,-1.908897638E0,1.076160192E0,-1.726559758E0
3.100797317E1,7.817317843E-1,1.562852740E0,-2.565558441E-2
3.105877770E1,7.124006152E-1,1.242921472E0,-8.408312798E-1
3.110958296E1,-1.063637733E0,-2.529824018E0,-3.119902313E-1
3.116038911E1,-1.008050680E0,-1.423732281E0,2.640387416E-1
3.121119437E1,-2.612441063E0,-3.038201571E0,5.638120174E-1
3.126199885E1,-2.586938143E0,-3.668137789E-1,2.927485406E-1
3.131280421E1,-2.432546616E0,-6.786513329E-1,-1.296676040E0
3.136361031E1,-1.450456858E0,-2.182557344E0,-8.594620824E-1
3.141441552E1,-8.451071978E-1,-3.323467255E0,1.762294322E-1
3.146522000E1,-2.064358234E0,-1.089293361E0,7.730271816E-1
3.151602536E1,-1.875148416E0,3.497100621E-2,5.650337338E-1
3.156683140E1,5.708367825E-1,-8.026533127E-1,-4.622586668E-1
3.161763666E1,2.995594978E0,1.044854283E0,-7.354601026E-1
3.166844114E1,4.260507107E0,2.556395829E-1,-4.304946065E-1
3.171924651E1,3.126010895E0,1.530477762E0,6.306997687E-2
3.177005255E1,2.462172508E0,1.243990421E0,4.111002088E-1
3.182085781E1,2.738122940E0,7.621846795E-1,5.402944088E-1
3.187166229E1,1.837886691E0,2.594726562E0,2.855710872E-2
3.192246755E1,-6.016845629E-2,2.595031977E0,-6.077930331E-1
3.197327364E1,-2.003578901E0,1.105938911E0,-1.260788798E0
3.202407890E1,7.986827940E-2,7.913526297E-1,-4.947862923E-1
3.207488338E1,1.115712523E0,1.431978703E0,-4.877615273E-1
3.212568864E1,-2.476985604E-1,-1.850256324E0,1.068982761E-3
3.217649474E1,-1.464811683E0,-2.383831501E0,4.457657933E-1
3.222730000E1,-2.757517338E0,-3.765873432E0,1.126860499E0
3.227810447E1,-2.859986782E0,6.216897964E-1,2.351761907E-1
3.232890979E1,-2.503710270E0,-8.460234404E-1,-1.502531528E0
3.237971583E1,-1.689756274E0,-1.891030431E0,-8.386932611E-1
3.243052104E1,-1.079214454E0,-2.796306133E0,4.034646153E-1
3.248132552E1,-1.987697005E0,-1.028361320E0,1.034317136E0
3.253213078E1,-1.933789730E0,8.619054556E-1,4.990622103E-1
3.258293687E1,4.801259339E-1,-1.059667230E0,-5.858024955E-1
3.263374208E1,2.765305519E0,9.110786915E-1,-3.205420971E-1
3.268454656E1,4.342665672E0,3.723114133E-1,-5.836645365E-1
3.273535182E1,3.088596344E0,1.363563776E0,-1.634016484E-1
3.278615791E1,2.566016674E0,1.295759797E0,4.489727318E-1
3.283696312E1,2.778285980E0,8.331956863E-1,1.375933439E-1
3.288776760E1,2.009229422E0,2.720408201E0,-1.424801201E-1
3.293857291E1,1.220167428E-1,2.796764135E0,-7.798992395E-1
3.298937895E1,-1.997317791E0,1.307824016E0,-1.579650998E0
3.304018416E1,2.422009408E-1,1.207339644E0,-4.198047817E-1
3.309098859E1,1.442057610E0,1.735417008E0,-6.142069101E-1
3.314179385E1,-2.951919436E-1,-1.733737230E0,-1.236965731E-1
3.319259994E1,-1.393953443E0,-1.977465272E0,5.329642296E-1
3.324340515E1,-2.842119694E0,-2.666042805E0,8.823688626E-1
3.329420958E1,-3.003077745E0,-4.947862774E-2,-2.585411072E-1
3.334501484E1,-2.648633718E0,-1.125333309E0,-1.550177574E0
3.339582093E1,-1.618745208E0,-2.025569439E0,-6.462764144E-1
3.344662614E1,-8.982508779E-1,-3.214736462E0,4.161396921E-1
3.349743057E1,-1.915006161E0,-1.175575495E0,9.058864713E-1
3.354823588E1,-2.150640488E0,7.380561829E-1,6.135960817E-1
3.359904192E1,3.422271907E-1,-1.095401883E0,-3.849864900E-1
3.364984708E1,2.636416674E0,9.802571535E-1,-3.903313875E-1
3.370065156E1,4.382218361E0,2.339545041E-1,-5.648810267E-1
3.375145677E1,3.140213013E0,1.088377118E0,-3.023693860E-1
3.380226286E1,2.633820772E0,1.433963895E0,3.151971996E-1
3.385306802E1,2.677496195E0,6.071822047E-1,-8.215895295E-2
3.390387250E1,2.242878437E0,3.124330997E0,-1.026223376E-1
3.395467770E1,3.555130959E-1,3.162203550E0,-7.298097610E-1
3.400548380E1,-1.916991353E0,1.605459332E0,-1.562547326E0
3.405628901E1,-2.024958730E-1,5.619794726E-1,-5.958815217E-1
3.410709343E1,1.318361044E0,1.779856205E0,-4.628695250E-1
3.415789864E1,1.117850468E-1,-1.650203824E0,3.603998944E-2
3.420870474E1,-1.657381296E0,-2.172325611E0,4.225535989E-1
3.425950989E1,-3.003535986E0,-3.834746361E0,1.033248186E0
3.431031432E1,-3.115320921E0,4.008685052E-1,1.128540337E-1
3.436111963E1,-2.667875290E0,-8.270871639E-1,-1.585454106E0
3.441192562E1,-1.379293084E0,-2.274184227E0,-8.670976758E-1
3.446273083E1,-1.179851532E0,-3.312319279E0,3.875826001E-1
3.451353526E1,-2.059929609E0,-2.951919436E-1,1.162747741E0
3.456434046E1,-1.304922462E0,-2.005106062E-1,5.144860744E-1
3.461514656E1,3.492519259E-1,2.272351831E-1,-6.082511544E-1
3.466595171E1,3.680202007E0,1.189930439E0,-1.435490996E-1
3.471675614E1,4.265546322E0,-6.835380793E-1,-4.159869850E-1
3.476756135E1,2.859834194E0,2.606943369E0,-4.201101959E-1
3.481836744E1,2.449344873E0,1.160457134E0,3.634541109E-2
3.486917260E1,2.833109617E0,1.314695954E0,-8.521319181E-2
3.491997703E1,1.844606042E0,2.959249496E0,-2.263189107E-1
3.497078229E1,-3.468085229E-1,3.058817625E0,-8.484668136E-1
3.502158828E1,-2.174616337E0,8.878664970E-1,-1.982962966E0
3.507239343E1,9.353598356E-1,1.188250661E0,7.253811508E-2
3.512319786E1,9.767447710E-1,1.053864241E0,-8.393041492E-1
3.517400307E1,-4.998257756E-1,-2.351456642E0,1.136175916E-1
3.522480916E1,-2.361688137E0,-2.032594204E0,4.268295169E-1
3.527561432E1,-2.387801886E0,-4.427115440E0,1.357608080E0
3.532641875E1,-3.550244331E0,1.008050680E0,-2.020377368E-1
3.537722401E1,-2.401087761E0,-1.552468300E0,-1.549566746E0
3.542803000E1,-1.428924441E0,-2.684215546E0,-5.508314967E-1
3.547883515E1,-1.402657986E0,-3.015753031E0,6.342121959E-1
3.552963958E1,-2.032136202E0,1.030346632E0,1.027292371E0
3.558044484E1,-3.072561622E-1,-1.624090195E0,-1.420219894E-2
3.563125083E1,9.506310225E-1,7.769976854E-1,-5.016583204E-1
3.568205599E1,4.107795238E0,1.115101695E0,-7.459971905E-1
3.573286036E1,3.952334404E0,-4.315635860E-1,-3.793361485E-1
3.578366557E1,2.901524544E0,2.298160076E0,2.147128135E-1
3.583447161E1,2.620992899E0,2.870982140E-2,3.292466700E-1
3.588527677E1,2.801803589E0,2.448123217E0,3.280249834E-1
3.593608119E1,1.095401883E0,2.823336124E0,-5.074613690E-1
3.598688645E1,-1.010952234E0,2.632140875E0,-9.758284688E-1
3.603769244E1,-1.415485859E0,3.206948042E-1,-1.693268657E0
3.608849755E1,1.158929944E0,1.791309595E0,9.193251282E-2
3.613930197E1,5.121954083E-1,3.106158376E-1,-7.600467205E-1
3.619010724E1,-8.431219459E-1,-2.444763422E0,2.437280566E-1
3.624091322E1,-2.049850702E0,-1.950435281E0,5.670189857E-1
3.629171833E1,-2.702235460E0,-3.128759623E0,6.323796511E-1
3.634252276E1,-3.215194464E0,4.133908749E-1,-5.888567567E-1
3.639332802E1,-2.402309656E0,-1.804900885E0,-1.539945960E0
3.644413395E1,-1.153890491E0,-3.046906233E0,-3.738385141E-1
3.649493911E1,-1.123195410E0,-3.399975777E0,7.032378912E-1
3.654574348E1,-2.399255276E0,1.027292371E0,9.962918758E-1
3.659654869E1,-5.271611810E-1,-1.464353561E0,-6.016845629E-2
3.664735474E1,7.165238261E-1,2.328855246E-1,-6.682668924E-1
3.669815984E1,3.982418776E0,1.011410356E0,-1.230857223E-1
3.674896427E1,4.068700790E0,-3.927747905E-1,-3.669664860E-1
3.679976942E1,2.705289841E0,2.555937529E0,8.475505561E-2
3.685057546E1,2.812340736E0,4.738647640E-1,3.668137789E-1
3.690138062E1,2.790350199E0,1.948297381E0,2.449497581E-1
3.695218500E1,1.339282632E0,2.758280754E0,-4.972296655E-1
3.700299015E1,-7.507312894E-1,2.540360928E0,-8.249492049E-1
3.705379619E1,-1.793447495E0,4.508052766E-1,-1.616760015E0
3.710460130E1,1.056918502E0,2.050766945E0,5.894676223E-2
3.715540572E1,6.039752364E-1,5.157077909E-1,-7.634063363E-1
3.720621088E1,-3.833066523E-1,-2.374210596E0,1.568350345E-1
3.725701692E1,-2.347791433E0,-1.836206913E0,5.728220344E-1
3.730782203E1,-2.598086119E0,-3.221302986E0,8.742751479E-1
3.735862640E1,-2.918017387E0,7.273663878E-1,-5.123481154E-1
3.740943156E1,-2.113378763E0,-8.666395545E-1,-1.493368864E0
3.746023760E1,-1.597212911E0,-2.004342556E0,-5.024218559E-1
3.751104270E1,-1.218945742E0,-2.995289564E0,6.626165509E-1
3.756184708E1,-2.233104944E0,2.854183912E-1,9.220739603E-1
3.761265234E1,-6.687250137E-1,-8.577822447E-1,1.673721522E-1
3.766345828E1,4.787515402E-1,3.941491842E-1,-6.250494719E-1
3.771426338E1,3.836884260E0,1.042410851E0,-3.636068404E-1
3.776506776E1,4.102450371E0,-3.952181637E-1,-4.165978432E-1
3.781587302E1,2.674747467E0,2.340308666E0,-7.650861889E-2
3.786667895E1,2.645426750E0,6.749862432E-2,3.938437700E-1
3.791748406E1,2.792640924E0,1.822310090E0,3.671191931E-1
3.796828843E1,1.214975238E0,2.482483149E0,-5.384618640E-1
3.801909359E1,-7.919634581E-1,2.635653257E0,-8.926005363E-1
3.806989958E1,-1.957154632E0,5.986303091E-1,-1.782910466E0
3.812070468E1,9.119949341E-1,1.486649513E0,7.055285573E-2
3.817150906E1,1.134037971E0,6.423059106E-1,-5.092939138E-1
3.822231432E1,-4.115583301E-1,-2.585411072E0,1.207950488E-1
3.827312026E1,-2.896332264E0,-2.358481169E0,7.411104441E-1
3.832392536E1,-2.388870955E0,-2.438960314E0,1.059056401E0
3.837472974E1,-3.013462305E0,8.495358229E-1,-6.740699410E-1
3.842553494E1,-2.227454424E0,-1.589424610E0,-1.517955422E0
3.847634088E1,-1.336381078E0,-2.605263472E0,-4.060607255E-1
3.852714599E1,-1.466644287E0,-2.828222752E0,7.464553714E-1
3.857795031E1,-2.200577259E0,9.538379908E-1,1.055544019E0
3.862875546E1,-5.210527182E-1,-1.220014691E0,-6.108472589E-4
3.867956145E1,8.814526200E-1,2.881672084E-1,-5.213581324E-1
3.873036656E1,3.946378708E0,1.021794796E0,-5.389199853E-1
3.878117093E1,3.873687983E0,-2.131856978E-1,-4.639385045E-1
3.883197609E1,2.875716209E0,2.417275429E0,2.231119573E-1
3.888278208E1,2.693531036E0,2.035648525E-1,3.825430870E-1
3.893358718E1,2.773551941E0,2.134605646E0,3.138227761E-1
3.898439151E1,1.168550849E0,2.706664085E0,-5.622848868E-1
3.903519666E1,-1.040272832E0,2.527075052E0,-1.067455530E0
3.908600265E1,-1.717702508E0,3.625378609E-1,-1.685785770E0
3.913680776E1,1.238798261E0,2.179197550E0,1.985253580E-2
3.918761208E1,8.076927662E-1,-3.553603888E-1,-5.015056133E-1
3.923841724E1,-5.961869359E-1,-2.248834133E0,3.000787199E-1
3.928922322E1,-3.359965324E0,-3.233672619E0,8.177717924E-1
3.934002833E1,-2.605263472E0,-1.350277901E0,7.098045349E-1
3.939083265E1,-2.985668659E0,1.125486046E-1,-1.312710762E0
3.944163781E1,-1.876522779E0,-1.946770191E0,-1.297439575E0
3.949244380E1,-1.109756708E0,-3.393256426E0,8.506047726E-2
3.954324885E1,-1.823531747E0,-9.773555994E-1,1.069898963E0
3.959405322E1,-2.020071983E0,4.143071473E-1,7.983773947E-1
3.964485833E1,1.104106456E-1,-9.338327646E-1,-3.860554695E-1
3.969566432E1,1.909966707E0,5.931326747E-1,-4.967715442E-1
3.974646942E1,4.244319439E0,1.218334913E0,-6.639909744E-1
3.979727375E1,3.500154734E0,-8.032641560E-2,-4.877615273E-1
3.984807895E1,2.744689465E0,2.026638508E0,3.936910629E-1
3.989888484E1,2.703915358E0,4.011739492E-1,3.845283389E-1
3.994968994E1,2.465379477E0,2.885337114E0,3.400892019E-1
4.000049427E1,6.076403260E-1,3.015905619E0,-5.650337338E-1
4.005129937E1,-1.718618751E0,2.172783613E0,-1.279877663E0
4.010210536E1,-3.585673273E-1,4.109475017E-1,-9.164236188E-1
4.015291041E1,1.164427638E0,1.693574071E0,-2.716743052E-1
4.020371479E1,1.545443535E-1,-6.760551929E-1,-2.915268540E-1
4.025451994E1,-1.088987947E0,-2.487217426E0,5.276193023E-1
4.030532583E1,-2.837232828E0,-3.042935610E0,6.317687631E-1
4.035613093E1,-2.887169600E0,-6.795676053E-2,2.979407609E-1
4.040693526E1,-2.730639935E0,-3.465031087E-1,-1.426175594E0
4.045774036E1,-1.978381515E0,-2.226843596E0,-1.243226886E0
4.050854635E1,-1.025918007E0,-2.649244547E0,2.038702667E-1
4.055935140E1,-1.787033677E0,-1.937912941E0,9.312366247E-1
4.061015572E1,-2.228828907E0,8.136485219E-1,6.868977547E-1
4.066096083E1,2.339545041E-1,-1.572473526E0,-3.060344756E-1
4.071176682E1,2.382151604E0,1.315612316E0,-3.350497186E-1
4.076257187E1,4.434292793E0,3.020639718E-1,-7.324058414E-1
4.081337619E1,3.249554634E0,5.341859460E-1,-4.152234197E-1
4.086418130E1,2.731098175E0,1.636765242E0,3.078670204E-1
4.091498729E1,2.869302273E0,8.405258060E-1,1.559187621E-1
4.096579234E1,2.300603390E0,3.102340460E0,-7.910472155E-2
4.101659666E1,2.574721277E-1,3.392951012E0,-6.534538269E-1
4.106740182E1,-1.996248841E0,1.734653473E0,-1.500088215E0
4.111820770E1,-1.284306347E-1,1.540862173E-1,-8.026533127E-1
4.116901276E1,1.604237556E0,1.884921908E0,-3.704788685E-1
4.121981708E1,-3.084778599E-2,-1.500851750E0,-4.107947648E-2
4.127062218E1,-1.629129648E0,-2.088486671E0,5.809157491E-1
4.132142812E1,-3.093177795E0,-3.780228376E0,6.642963886E-1
4.137223317E1,-3.077601194E0,2.153236605E-2,-8.750387281E-2
4.142303750E1,-2.858459711E0,-5.277720094E-1,-1.586370349E0
4.147384265E1,-1.610040665E0,-2.368865728E0,-1.019198656E0
4.152464854E1,-1.074480295E0,-3.642176867E0,3.295520842E-1
4.157545359E1,-1.789935231E0,-7.849387079E-2,1.173895717E0
4.162625791E1,-1.362036705E0,-6.989619732E-1,5.361711979E-1
4.167706307E1,1.462979168E-1,2.057028115E-1,-4.555393457E-1
4.172786895E1,3.333240747E0,7.722636461E-1,-7.556180358E-1
4.177867401E1,4.286468029E0,-1.956238300E-1,-5.676298141E-1
4.182947828E1,3.065231562E0,1.464811683E0,-1.462979168E-1
4.188028338E1,2.947032690E0,6.058077812E-1,5.871769190E-1
4.193108932E1,2.894499779E0,1.232842445E0,3.260397315E-1
4.198189437E1,1.802610278E0,2.871134758E0,-4.769189954E-1
4.203269869E1,-3.837648034E-1,3.350039005E0,-7.033905983E-1
4.208350374E1,-2.492867708E0,6.752916574E-1,-1.637681484E0
4.213430968E1,5.357130170E-1,1.229024649E0,1.102579311E-1
4.218511474E1,1.317444801E0,1.305075169E0,-5.230379701E-1
4.223591901E1,-4.007157981E-1,-2.278460264E0,1.559187621E-1
4.228672411E1,-1.832847238E0,-1.832083583E0,6.639909744E-1
4.233753005E1,-2.816158533E0,-3.323772669E0,6.117635369E-1
4.238833510E1,-2.979865551E0,5.876350403E-1,-2.385358512E-1
4.243913937E1,-2.695668936E0,-1.074022174E0,-1.717397094E0
4.248994453E1,-1.368450522E0,-2.579913378E0,-7.560762167E-1
4.254075041E1,-1.077381849E0,-3.166937590E0,5.422796607E-1
4.259155541E1,-2.104826927E0,3.683409095E-1,1.012632012E0
4.264235968E1,-9.269607067E-1,-1.055085897E0,4.049917459E-1
4.269316479E1,4.083513916E-1,2.521272004E-1,-4.544703662E-1
4.274397072E1,3.561850309E0,1.531546831E0,-4.685198367E-1
4.279477572E1,4.179722309E0,-4.973823726E-1,-5.166240931E-1
4.284558005E1,2.830055237E0,1.744274378E0,-1.148392856E-1
4.289638510E1,2.702082872E0,5.934380889E-1,4.120164812E-1
4.294719104E1,2.838454485E0,1.946464777E0,3.434488773E-1
4.299799604E1,1.405559540E0,2.885337114E0,-4.367557764E-1
4.304880036E1,-5.885513425E-1,3.054999828E0,-8.490777016E-1
4.309960541E1,-2.146059036E0,7.672241330E-1,-1.794058442E0
4.315041130E1,1.108840466E0,1.582552552E0,1.789782494E-1
4.320121635E1,1.211310148E0,8.762603998E-1,-7.429429889E-1
4.325202062E1,-5.103628635E-1,-2.157054424E0,2.467822880E-1
4.330282567E1,-2.398949862E0,-1.780314326E0,6.655181050E-1
4.335363161E1,-2.593046665E0,-2.653825998E0,6.055023670E-1
4.340443661E1,-3.118680716E0,9.318475127E-1,-7.687512636E-1
4.345524088E1,-2.257080555E0,-1.374711752E0,-1.605001211E0
4.350604604E1,-1.238492846E0,-2.238144398E0,-4.080459774E-1
4.355685187E1,-1.349208832E0,-2.551203489E0,5.955760479E-1
4.360765687E1,-2.002204657E0,1.737860441E-1,8.475505710E-1
4.365846114E1,-5.508314967E-1,-1.103190184E0,2.570139766E-1
4.370926630E1,4.892886579E-1,4.821111858E-1,-4.228590131E-1
4.376007213E1,3.521992683E0,1.257276416E0,-6.740699410E-1
4.381087713E1,4.113292694E0,-4.457657933E-1,-3.321481943E-1
4.386168140E1,2.789433956E0,1.741525531E0,-8.704573661E-2
4.391248645E1,2.335574389E0,5.285356045E-1,1.742441803E-1
4.396329239E1,2.548454762E0,1.517191887E0,7.269082218E-2
4.401409739E1,1.407697558E0,2.675510883E0,-3.228327632E-1
4.406490166E1,-6.807892919E-1,2.517454147E0,-7.185090780E-1
4.411570677E1,-1.993194580E0,9.023740888E-1,-1.547581553E0
4.416651260E1,1.022252917E0,1.363411069E0,1.740914769E-2
4.421731760E1,9.746068120E-1,1.097539783E0,-6.685723066E-1
4.426812187E1,-2.246390730E-1,-2.139645338E0,-3.206948051E-3
4.431892697E1,-2.039313555E0,-1.881714940E0,4.842491746E-1
4.436973281E1,-2.405210972E0,-3.835662603E0,1.207034230E0
4.442053781E1,-3.001398087E0,1.314237833E0,-1.498102844E-1
4.447134208E1,-2.579760790E0,-9.139801860E-1,-1.523911238E0
4.452214718E1,-1.468629479E0,-2.525242567E0,-7.371399403E-1
4.457295302E1,-1.246128440E0,-2.709413052E0,5.179984570E-1
4.462375802E1,-1.919740200E0,2.773246467E-1,9.368869662E-1
4.467456224E1,-7.518002391E-1,-1.099219680E0,3.064926267E-1
4.472536729E1,1.214058921E-1,2.214321345E-1,-5.998520255E-1
4.477617317E1,3.553145885E0,6.917845011E-1,-2.418955117E-1
4.482697817E1,4.247068405E0,-3.100049794E-1,-4.537068009E-1
4.487778244E1,2.643288851E0,1.929971933E0,-3.649812341E-1
4.492858755E1,2.439113140E0,9.805625677E-1,1.165191159E-1
4.497939333E1,2.712467194E0,1.645622492E0,1.273616552E-1
4.503019833E1,1.593242407E0,2.992846251E0,-2.362451702E-1
4.508100260E1,-4.961606860E-1,2.805010557E0,-7.658497691E-1
4.513180770E1,-2.297549248E0,7.626428008E-1,-1.774205923E0
4.518261349E1,9.246700406E-1,1.182600260E0,2.443389036E-2
4.523341848E1,1.145185947E0,1.308129430E0,-7.560762167E-1
4.528422276E1,-5.543438718E-2,-2.067259789E0,2.290677279E-1
4.533502776E1,-2.006938696E0,-1.602863193E0,3.330644667E-1
4.538583364E1,-2.500961304E0,-3.720365286E0,1.065928459E0
4.543663864E1,-3.019265175E0,1.026834249E0,-3.550549746E-1
4.548744286E1,-2.456522226E0,-1.455801725E0,-1.540251374E0
4.553824791E1,-1.336228371E0,-2.546622276E0,-5.450284481E-1
4.558905380E1,-1.290720224E0,-2.909312725E0,5.184566379E-1
4.563985875E1,-2.104063272E0,4.225535989E-1,9.045121074E-1
4.569066302E1,-8.222004175E-1,-9.764393568E-1,3.784198761E-1
4.574146802E1,1.743968874E-1,2.701472044E-1,-5.896202922E-1
4.579227390E1,3.555283785E0,7.137750387E-1,-3.836120665E-1
4.584307885E1,4.211638927E0,-4.362976551E-1,-4.027010500E-1
4.589388312E1,2.861361265E0,1.870261550E0,-2.261662036E-1
4.594468812E1,2.577317238E0,6.920899153E-1,2.249445021E-1
4.599549401E1,2.786226988E0,1.488634825E0,1.748550236E-1
4.604629895E1,1.698460817E0,2.843035936E0,-3.802524209E-1
4.609710322E1,-3.417690396E-1,2.974673510E0,-8.651124239E-1
4.614790822E1,-2.179350376E0,1.119072199E0,-1.629282355E0
4.619871411E1,6.308525205E-1,1.306449533E0,-1.068982761E-3
4.624951906E1,1.496270418E0,1.259567022E0,-5.995466113E-1
4.630032328E1,-2.347180545E-1,-1.566823244E0,3.888042867E-1
4.635112838E1,-2.383220673E0,-2.799818516E0,5.409052372E-1
4.640193416E1,-2.764389277E0,-3.761597395E0,9.897252917E-1
4.645273911E1,-2.963678122E0,6.839962006E-1,-1.572931707E-1
4.650354338E1,-2.521424770E0,-1.355470061E0,-1.572626233E0
4.655434838E1,-1.395175099E0,-2.666959047E0,-7.261446714E-1
4.660515421E1,-1.195733547E0,-2.748201847E0,4.656183124E-1
4.665595921E1,-1.793753028E0,-2.269297540E-1,8.863393664E-1
4.670676343E1,-1.043021679E0,-4.721849263E-1,3.587200642E-1
4.675756843E1,3.037438095E-1,3.054236295E-3,-5.073086619E-1
4.680837427E1,3.218554258E0,9.822424054E-1,-2.411319613E-1
4.685917921E1,4.378705978E0,-9.009997360E-3,-1.459924877E-1
4.690998349E1,2.811424494E0,2.126206636E0,-2.684673667E-1
4.696078854E1,2.567390919E0,5.729747415E-1,2.086043358E-1
4.701159432E1,2.649397373E0,1.229330063E0,1.797417998E-1
4.706239927E1,1.870108843E0,2.909465551E0,-1.945548505E-1
4.711320348E1,-1.762294322E-1,2.622825384E0,-7.803573608E-1
4.716400849E1,-2.362298965E0,1.528187156E0,-1.666238666E0
4.721481437E1,1.495048702E-1,1.360356808E0,-2.802261710E-1
4.726561932E1,1.123195410E0,1.533684731E0,-6.639909744E-1
4.731642354E1,-1.863084137E-1,-1.326454878E0,-2.867927849E-1
4.736722859E1,-6.329904795E-1,-1.466338873E0,5.068505406E-1
4.741803437E1,-2.914963007E0,-2.699944973E0,5.210527182E-1
4.746883932E1,-2.431324720E0,-1.009425074E-1,3.416163325E-1
4.751964354E1,-2.872661829E0,3.156553209E-1,-1.436407328E0
4.757044854E1,-1.770998955E0,-2.419565916E0,-1.186112642E0
4.762125437E1,-8.177717924E-1,-2.637027502E0,3.976615667E-1
4.767205932E1,-1.719382286E0,-1.292858243E0,8.104416132E-1
4.772286354E1,-2.185306072E0,9.066500664E-1,5.471664071E-1
4.777366854E1,1.473668963E-1,-1.296981454E0,-1.725643575E-1
4.782447437E1,1.623784781E0,1.279419541E0,-2.205158621E-1
4.787527932E1,4.374429703E0,1.232231617E0,-2.938175201E-1
4.792608354E1,3.655004501E0,-4.019374847E-1,-5.163186193E-1
4.797688854E1,2.533488989E0,2.616869688E0,2.032594234E-1
4.802769437E1,2.777675152E0,4.141544402E-1,1.550024897E-1
4.807849932E1,2.480650663E0,2.462325335E0,1.462979168E-1
4.812930354E1,7.463026643E-1,2.494241953E0,-5.399889946E-1
4.818010859E1,-1.419609070E0,2.092151880E0,-7.319477201E-1
4.823091437E1,-1.734500766E0,1.036149621E0,-1.091278672E0
4.828171932E1,1.484206080E0,2.365505934E0,-1.036913246E-1
4.833252348E1,7.742488980E-1,-3.113794029E-1,-7.125533223E-1
4.838332848E1,-2.906105816E-1,-1.829334855E0,4.454603493E-1
4.843413432E1,-2.736290216E0,-2.466906548E0,7.915053368E-1
4.848493927E1,-2.312820435E0,-4.350759685E-1,2.576248348E-1
4.853574349E1,-2.857543468E0,1.089446068E0,-1.444959164E0
4.858654843E1,-2.348249674E0,-1.356386304E0,-1.420678020E0
4.863735427E1,-1.070051670E0,-2.037175655E0,2.987042964E-1
4.868815921E1,-1.733737230E0,-1.377155185E0,7.577560544E-1
4.873896343E1,-2.226691008E0,7.230904698E-1,6.583406329E-1
4.878976848E1,-3.344388679E-2,-1.515817523E0,1.079672500E-1
4.884057421E1,5.981721878E-1,1.011104941E0,-2.399102598E-1
4.889137916E1,3.943019152E0,1.319735527E0,-3.788780272E-1
4.894218338E1,3.927137136E0,-4.963133857E-2,-3.782671690E-1
4.899298843E1,2.820892572E0,2.287164927E0,-8.200624585E-2
4.904379416E1,2.590603113E0,4.440859556E-1,-9.177979827E-2
4.909459911E1,2.712314606E0,2.022057056E0,-1.527118147E-3
4.914540333E1,1.329356313E0,3.145252466E0,-5.790832043E-1
4.919620828E1,-8.222004175E-1,2.613968134E0,-1.021336675E0
4.924701411E1,-2.127733707E0,7.072083950E-1,-1.905385256E0
4.929781906E1,1.151141644E0,1.650662065E0,1.224748790E-1
4.934862322E1,9.860602021E-1,8.646543026E-1,-9.536852837E-1
4.939942822E1,-2.104368806E-1,-1.876064658E0,1.108687744E-1
4.945023406E1,-2.277544022E0,-1.725490808E0,4.607315361E-1
4.950103895E1,-2.396506548E0,-3.998453379E0,1.113727212E0
4.955184317E1,-3.119596958E0,1.292400122E0,-3.307738006E-1
4.960264812E1,-2.178434134E0,-1.078298092E0,-1.603779435E0
4.965345395E1,-1.182600260E0,-2.259524107E0,-6.606312990E-1
4.970425890E1,-1.539640546E0,-2.302130699E0,4.239279926E-1
4.975506307E1,-2.026333094E0,-2.304421216E-1,9.359707236E-1
4.980586812E1,-8.141067028E-1,-9.394831061E-1,2.767138183E-1
4.985667385E1,-7.253811508E-2,8.292251825E-2,-5.059342384E-1
4.990747880E1,2.781340361E0,6.913263798E-1,-3.997995257E-1
4.995828296E1,4.439332485E0,3.347443044E-1,-3.898732662E-1
5.000908802E1,2.994678736E0,1.720909476E0,-4.798205197E-1
5.005989375E1,2.675052881E0,1.019351363E0,2.733541429E-1
5.011069869E1,3.013767719E0,8.202151656E-1,3.927747905E-1
5.016150286E1,2.102536201E0,2.923820496E0,-3.176405728E-1
5.021230781E1,2.229592577E-2,3.101118803E0,-7.795938253E-1
5.026311364E1,-2.211114407E0,1.483747959E0,-1.315765023E0
5.031391854E1,-2.732014358E-1,4.731011987E-1,-3.900259733E-1
5.036472276E1,1.445722699E0,1.172979474E0,-2.489202619E-1
5.041552770E1,2.533488870E-1,-1.421136141E0,-2.199050039E-2
5.046633348E1,-1.723505497E0,-2.647106647E0,4.720322192E-1
5.051713843E1,-2.757364511E0,-3.740523100E0,1.009425044E0
5.056794260E1,-2.924278498E0,3.898732662E-1,2.205158621E-1
5.061874765E1,-2.536237717E0,-6.829272509E-1,-1.526507258E0
5.066955338E1,-1.636917949E0,-1.841857195E0,-9.628480077E-1
5.072035828E1,-8.654178381E-1,-2.806385040E0,2.904578745E-1
5.077116250E1,-1.855295897E0,-1.315001488E0,9.265025854E-1
5.082196744E1,-1.889503241E0,2.728960216E-1,7.007945180E-1
5.087277322E1,-1.989834905E-1,-9.179506898E-1,-3.089359999E-1
5.092357817E1,1.951046109E0,6.410841942E-1,-3.381039500E-1
5.097438234E1,4.547910690E0,7.430956960E-1,-5.428904891E-1
5.102518729E1,3.339807272E0,5.810684562E-1,-4.225535989E-1
5.107599307E1,2.637638569E0,1.904621720E0,4.098785222E-1
5.112679802E1,2.894499779E0,7.507312894E-1,1.725643575E-1
5.117760218E1,2.427048922E0,2.835094929E0,4.352286831E-2
5.122840713E1,4.779879749E-1,2.754768372E0,-5.992411375E-1
5.127921291E1,-2.064663649E0,1.691741467E0,-1.302173615E0
5.133001786E1,-9.217684865E-1,5.847335458E-1,-9.970554113E-1
5.138082203E1,1.449693203E0,2.345195293E0,-3.113794029E-1
5.143162697E1,2.489202619E-1,-8.577822447E-1,-3.825430870E-1
5.148243276E1,-1.166260123E0,-2.179350376E0,2.735068500E-1
5.153323770E1,-3.095163107E0,-2.782256603E0,6.277982593E-1
5.158404187E1,-2.239366055E0,-1.224748790E-1,6.085565686E-1
5.163484687E1,-2.718575716E0,-6.916317940E-1,-1.552468300E0
5.168565260E1,-1.668681979E0,-1.499019146E0,-1.091278672E0
5.173645750E1,-1.031568289E0,-2.360619307E0,9.055810422E-2
5.178726166E1,-1.836054206E0,-1.831167340E0,8.046385646E-1
5.183806661E1,-2.098260403E0,8.554915786E-1,8.970292211E-1
5.188887239E1,1.221694518E-2,-1.237729311E0,-2.838912606E-1
5.193967734E1,1.568808436E0,1.169161677E0,-4.604261220E-1
5.199048145E1,4.571275234E0,8.432746530E-1,-3.413109183E-1
5.204128651E1,3.473277569E0,-4.978405312E-2,-4.781406820E-1
5.209209224E1,2.685131788E0,2.463394165E0,2.858765125E-1
5.214289713E1,2.751714230E0,4.143071473E-1,2.770192325E-1
5.219370130E1,2.440181971E0,2.417580843E0,1.982199401E-1
5.224450625E1,5.268557668E-1,2.820739985E0,-5.822901726E-1
5.229531203E1,-1.624701023E0,2.287317514E0,-1.023474574E0
5.234611692E1,-9.918632507E-1,5.625903010E-1,-1.216196895E0
5.239692109E1,1.512915969E0,2.111546278E0,-4.337015375E-2
5.244772604E1,8.058602214E-1,-9.315420873E-3,-7.846332788E-1
5.249853182E1,-9.414683580E-1,-2.409334183E0,4.051444530E-1
5.254933671E1,-2.875105381E0,-2.182862759E0,8.194515705E-1
5.260014088E1,-2.786532402E0,-1.108993173E0,3.391729295E-1
5.265094583E1,-2.495311022E0,-3.614688516E-1,-1.298813939E0
5.270175161E1,-2.103452444E0,-1.324774981E0,-1.400367379E0
5.275255651E1,-1.107007980E0,-2.519134045E0,-8.154810965E-2
5.280336067E1,-1.271631241E0,-2.519744873E0,7.705838084E-1
5.285416567E1,-2.118418217E0,4.414898455E-1,9.005415440E-1
5.290497140E1,-3.549022675E-1,-1.523453116E0,1.174353883E-1
5.295577630E1,1.876828223E-1,5.813738704E-1,-4.657710493E-1
5.300658041E1,3.764346123E0,1.272853017E0,-3.929274976E-1
5.305738536E1,4.105046272E0,-2.391466945E-1,-3.199312389E-1
5.310819114E1,2.733236074E0,2.248528719E0,2.131856978E-1
5.315899604E1,2.671387672E0,8.944330812E-1,2.121167034E-1
5.320980020E1,2.740566254E0,1.863084197E0,1.185043678E-1
5.326060520E1,1.430909753E0,2.724836826E0,-6.174138784E-1
5.331141093E1,-8.171609044E-1,2.495921850E0,-1.203521848E0
5.336221578E1,-2.255095482E0,8.933641315E-1,-1.983726501E0
5.341301994E1,1.201383829E0,2.147433519E0,2.524326444E-1
5.346382489E1,1.343100429E0,1.286291599E0,-8.480086923E-1
5.351463067E1,-2.377723008E-1,-1.737555027E0,1.279724985E-1
5.356543557E1,-2.290829897E0,-1.694490314E0,3.408527672E-1
5.361623968E1,-2.492104053E0,-2.946574450E0,7.548545003E-1
5.366704463E1,-2.678107023E0,4.309527278E-1,-4.271349311E-1
5.371785041E1,-2.079629421E0,-9.255862832E-1,-1.213600755E0
5.376865531E1,-1.337450027E0,-1.650967479E0,-3.419217467E-1
5.381945942E1,-9.681929350E-1,-2.473473310E0,4.621059597E-1
5.387026437E1,-2.185611486E0,-1.018740535E0,8.218950033E-1
5.392107015E1,-1.814521790E0,4.401154518E-1,3.817795515E-1
5.397187505E1,4.524851143E-1,-9.953756332E-1,-2.895416021E-1
5.402267916E1,2.987501144E0,1.573542595E0,-2.064663768E-1
5.407348411E1,4.346483707E0,1.065164924E0,-3.730749488E-1
5.412428989E1,3.096843004E0,1.786575556E0,7.314895838E-2
5.417509474E1,2.608928680E0,7.536327839E-1,1.258345395E-1
5.422589890E1,3.087374687E0,1.502226114E0,2.382304370E-1
5.427670380E1,1.935316801E0,2.350845575E0,-2.528907657E-1
5.432750958E1,-2.447970361E-1,2.640234470E0,-1.026376128E0
5.437831447E1,-2.527685881E0,1.287360549E0,-1.814674497E0
5.442911859E1,3.475720882E-1,1.328440070E0,-3.628432751E-1
5.447992354E1,1.400978208E0,1.869650722E0,-8.422056437E-1
5.453072927E1,-4.810422063E-1,-1.637376070E0,-6.331431866E-1
5.458153416E1,-9.523108602E-1,-1.594158649E0,1.684411317E-1
5.463233828E1,-2.516232491E0,-2.816311359E0,1.108687758E0
5.468314322E1,-2.955584526E0,-2.150182426E-1,2.611372173E-1
5.473394901E1,-2.690324068E0,-2.041756958E-1,-1.261094213E0
5.478475385E1,-1.736333370E0,-1.477486849E0,-9.901834130E-1
5.483555802E1,-1.021642089E0,-3.022777557E0,3.016058207E-1
5.488636291E1,-2.123305082E0,-1.424037695E0,8.495358229E-1
5.493716869E1,-1.875148416E0,6.062659025E-1,5.468609929E-1
5.498797354E1,6.001574397E-1,-1.479930162E0,-1.688992679E-1
5.503877770E1,2.437280655E0,1.331494331E0,-3.336753249E-1
5.508958260E1,4.528516293E0,1.118614078E0,-8.655705452E-1
5.514038838E1,3.290634155E0,1.288429618E0,-3.622324169E-1
5.519119322E1,2.845173836E0,1.859266400E0,4.330907166E-1
5.524199739E1,3.003841400E0,6.966713071E-1,3.536805511E-1
5.529280229E1,2.308849812E0,2.811882734E0,1.450762246E-2
5.534360807E1,3.208475113E-1,2.845326424E0,-6.978929639E-1
5.539441291E1,-2.129719019E0,1.634016395E0,-1.471531034E0
5.544521703E1,-4.135435820E-1,1.177713513E0,-8.339592218E-1
5.549602203E1,1.665933132E0,2.097038746E0,-4.385883212E-1
5.554682770E1,3.348970115E-1,-7.783721089E-1,-3.451287001E-2
5.559763255E1,-1.792683959E0,-2.759655237E0,2.985515893E-1
5.564843671E1,-3.491755724E0,-3.094094038E0,3.782671690E-1
5.569924161E1,-2.522341013E0,3.494046330E-1,-5.167768002E-1
5.575004739E1,-2.339392185E0,-3.678827584E-1,-1.238798261E0
5.580085224E1,-1.576138616E0,-1.757102132E0,-5.114318728E-1
5.585165635E1,-1.166412830E0,-3.183430433E0,3.663556576E-1
5.590246125E1,-2.121472597E0,-1.328898191E0,8.423583508E-1
5.595326703E1,-1.591867924E0,1.971509457E-1,3.628432751E-1
5.600407187E1,2.215848416E-1,-7.566870451E-1,-2.539597452E-1
5.605487598E1,2.311904192E0,8.134958148E-1,-2.793098986E-1
5.610568093E1,4.385883331E0,8.368607163E-1,-7.831062078E-1
5.615648666E1,3.197938204E0,1.448013425E0,-4.051444530E-1
5.620729151E1,2.826237440E0,1.602405071E0,3.947600424E-1
5.625809567E1,2.743467808E0,4.941754341E-1,2.571666837E-1
5.630890057E1,2.151098728E0,2.432852030E0,-1.481304597E-2
5.635970630E1,4.608842432E-1,2.561282635E0,-6.543701291E-1
5.641051114E1,-1.751604557E0,1.876828194E0,-1.221389055E0
5.646131526E1,-5.121954083E-1,7.162184119E-1,-1.107007980E0
5.651212026E1,1.083795786E0,1.813300133E0,-2.385358512E-1
5.656292593E1,2.125748396E-1,-4.616478086E-1,-4.300364852E-1
5.661373078E1,-7.113316059E-1,-2.465990305E0,7.727217674E-2
5.666453489E1,-3.139144182E0,-2.373599768E0,5.523586273E-1
5.671533979E1,-2.554410458E0,-2.202867985E0,8.657232523E-1
5.676614557E1,-2.302283287E0,2.093679011E-1,-8.958075047E-1
5.681695041E1,-2.230203390E0,-1.191763043E0,-1.291636586E0
5.686775453E1,-1.360509515E0,-2.442014694E0,-6.612421572E-2
5.691855942E1,-1.366312623E0,-3.373862028E0,7.272136807E-1
5.696936515E1,-2.563725948E0,1.406628489E0,8.144121170E-1
5.702017000E1,3.512371704E-2,-1.837581277E0,-2.383831441E-1
5.707097411E1,1.197260618E0,4.595098495E-1,-4.776825607E-1
5.712177901E1,4.218969345E0,1.232231617E0,-3.460449576E-1
5.717258479E1,3.834288359E0,1.137702987E-1,-3.999522328E-1
5.722338963E1,2.780424118E0,2.485995531E0,9.972081333E-2
5.727419375E1,2.667875290E0,-1.385096163E-1,-8.078455180E-2
5.732499869E1,2.836163759E0,2.409792423E0,7.498150319E-2
5.737580437E1,1.330272675E0,2.998343706E0,-5.943543911E-1
5.742660921E1,-9.794935584E-1,2.511803865E0,-1.015533566E0
5.747741328E1,-1.446486354E0,7.096518278E-1,-1.477792263E0
5.752821828E1,8.922951221E-1,1.907981396E0,-6.108472589E-3
5.757902395E1,8.376243114E-1,-1.288887709E-1,-2.799207568E-1
5.762982880E1,-9.481876493E-1,-2.494089365E0,3.407000601E-1
5.768063286E1,-3.463656664E0,-3.499238491E0,6.204680800E-1
5.773143776E1,-2.834178686E0,-1.282473803E0,6.937697530E-1
5.778224348E1,-2.499739647E0,2.793098986E-1,-1.021336675E0
5.783304833E1,-1.954711199E0,-1.389066696E0,-1.210546613E0
5.788385244E1,-1.451220393E0,-2.588007212E0,-1.718007922E-1
5.793465734E1,-1.693726778E0,-2.112157106E0,8.127322793E-1
5.798546307E1,-2.448886633E0,1.141978979E0,7.583668828E-1
5.803626791E1,-1.343864016E-2,-1.530935884E0,-1.670667231E-1
5.808707203E1,1.129456639E0,8.335011005E-1,-5.764871240E-1
5.813787687E1,4.147500038E0,6.363501549E-1,-6.927008033E-1
5.818868260E1,3.992039442E0,-6.294780970E-1,-2.838912606E-1
5.823948744E1,2.927180052E0,2.286401272E0,5.699204803E-1
5.829029156E1,2.852198601E0,1.714953631E-1,4.660764635E-1
5.834109645E1,2.665737391E0,2.591977596E0,6.226060390E-1
5.839190218E1,1.133121610E0,2.649549961E0,-4.602734149E-1
5.844270697E1,-1.124264359E0,2.326869965E0,-1.206117868E0
5.849351109E1,-1.039967418E0,1.459466815E0,-1.971967697E0
5.854431599E1,6.896465421E-1,1.523300409E0,3.130592033E-2
5.859512171E1,1.756491303E0,8.174663186E-1,-2.872509360E-1
5.864592651E1,1.679830020E-3,-2.586938143E-1,2.651077211E-1
5.869673062E1,-2.691087484E0,-3.870939016E0,1.433963925E-1
5.874753557E1,-2.794473410E0,-3.505499601E0,9.668185115E-1
5.879834119E1,-3.197632790E0,5.651864409E-1,-4.793623984E-1
5.884914604E1,-2.481566906E0,-1.347070932E0,-1.426939249E0
5.889995015E1,-1.719993114E0,-2.268533945E0,-8.602256775E-1
5.895075500E1,-1.151905179E0,-3.362561464E0,2.646495700E-1
5.900156072E1,-1.817270637E0,-6.511631608E-1,8.336538076E-1
5.905236557E1,-1.612942219E0,-6.252021790E-1,4.367557764E-1
5.910316963E1,2.428117767E-2,-6.470399499E-1,-1.860029846E-1
5.915397453E1,1.641957402E0,5.532749295E-1,-5.741963983E-1
5.920478020E1,4.314567089E0,1.020114899E0,-4.191939235E-1
5.925558505E1,3.808480024E0,-4.107947648E-2,-9.483403713E-2
5.930638911E1,2.785616159E0,1.576596737E0,2.600682080E-1
5.935719401E1,2.577011824E0,6.119162440E-1,4.352286831E-2
5.940799974E1,2.688033342E0,3.158996582E0,3.842229247E-1
5.945880453E1,7.922688723E-1,2.829444408E0,-5.942016840E-1
5.950960864E1,-1.358677030E0,2.173089027E0,-1.185196400E0
5.956041349E1,-7.835643291E-1,2.162399292E-1,-1.461146593E0
5.961121921E1,9.107732773E-1,1.719382286E0,-1.630962193E-1
5.966202401E1,5.838172436E-1,7.252284288E-1,-7.182036638E-1
5.971282807E1,-7.620319724E-1,-2.633209705E0,1.114796288E-2
5.976363296E1,-1.898360610E0,-1.615538239E0,2.382304333E-2
5.981443869E1,-2.797374964E0,-4.458421230E0,1.169314384E0
5.986524348E1,-2.903357029E0,9.353598356E-1,2.119639963E-1
5.991604755E1,-2.643136024E0,-8.328902125E-1,-1.609124422E0
5.996685250E1,-1.561325550E0,-2.732014418E0,-8.222004175E-1
6.001765812E1,-1.082574010E0,-3.098980904E0,5.551074743E-1
6.006846291E1,-2.066954374E0,3.103103936E-1,9.591829181E-1
6.011926703E1,-1.099677801E0,-8.990144730E-1,3.399364948E-1
6.017007187E1,1.806580722E-1,-3.866663277E-1,-2.851129472E-1
6.022087760E1,2.536085129E0,1.223068953E0,-8.044858575E-1
6.027168239E1,4.469569206E0,5.854970813E-1,-6.839962006E-1
6.032248645E1,3.221913815E0,6.403206587E-1,-2.058555335E-1
6.037329130E1,2.556854010E0,1.267660737E0,3.371876776E-1
6.042409703E1,2.852504015E0,5.412106514E-1,1.766875684E-1
6.047490182E1,2.002968073E0,3.060344696E0,5.894676223E-2
6.052570588E1,2.312056869E-1,2.958791494E0,-6.248967648E-1
6.057651072E1,-2.143463135E0,1.717702508E0,-1.342031479E0
6.062731645E1,-1.858502775E-1,6.047387719E-1,-7.446228266E-1
6.067812125E1,1.267966151E0,2.161788464E0,-5.505260825E-1
6.072892531E1,2.637332976E-1,-1.338213682E0,-1.609582454E-1
6.077973015E1,-9.252808690E-1,-2.117196560E0,5.314370990E-2
6.083053588E1,-3.362561464E0,-3.522603512E0,8.655705452E-1
6.088134067E1,-3.169533730E0,-2.327328026E-1,2.418955117E-1
6.093214474E1,-2.528144121E0,-1.065317631E0,-1.445875406E0
6.098294958E1,-1.722436547E0,-2.483552217E0,-1.021489382E0
6.103375526E1,-9.200887084E-1,-3.251845360E0,4.042281806E-1
6.108456005E1,-1.694490314E0,-3.512371778E-1,9.385668039E-1
6.113536411E1,-1.550788522E0,-1.985253543E-1,6.033644080E-1
6.118616895E1,1.962346882E-1,-2.139492482E-1,-3.733803928E-1
6.123697468E1,2.317096472E0,1.049282908E0,-6.400152445E-1
6.128777947E1,4.545467377E0,5.404471159E-1,-1.911951900E-1
6.133858354E1,3.315373421E0,9.620844126E-1,-1.227803007E-1
6.138938838E1,2.667569876E0,1.366770744E0,4.396573007E-1
6.144019406E1,2.646190405E0,4.179722369E-1,1.305686086E-1
6.149099885E1,2.399102688E0,3.430518150E0,3.440597057E-1
6.154180291E1,3.779617548E-1,3.014531136E0,-5.412106514E-1
6.159260776E1,-2.094595194E0,1.972883940E0,-1.418998241E0
6.164341343E1,-2.341072112E-1,8.047912717E-1,-7.110261917E-1
6.169421822E1,1.521162391E0,1.437476277E0,-2.438807636E-1
6.174502229E1,4.593571424E-1,-3.747547865E-1,-1.400367320E-1
6.179582718E1,-1.693574071E0,-3.842229366E0,3.103103936E-1
6.184663281E1,-2.970397472E0,-3.095010281E0,1.034927964E0
6.189743755E1,-2.876021624E0,1.278197914E-1,3.602471650E-1
6.194824161E1,-2.423994541E0,-4.498890042E-1,-1.654021621E0
6.199904645E1,-1.932568073E0,-1.929971933E0,-1.445722699E0
6.204985213E1,-8.067765236E-1,-2.665584803E0,2.168507725E-1
6.210065692E1,-1.928139329E0,-2.086043358E0,9.451334476E-1
6.215146099E1,-2.383678675E0,6.305471063E-1,8.295305967E-1
6.220226588E1,-5.360184610E-2,-1.369061470E0,-3.126010895E-1
6.225307145E1,1.810245872E0,8.417475224E-1,-3.756710589E-1
6.230387625E1,4.646104336E0,1.045923233E0,-7.035433054E-1
6.235468031E1,3.958901167E0,2.397575527E-1,-3.425326049E-1
6.240548515E1,2.917253733E0,2.462019920E0,3.083251417E-1
6.245629083E1,3.286816359E0,7.153021693E-1,4.840964451E-2
6.250709557E1,2.893430710E0,3.303920031E0,3.741439432E-2
6.255789963E1,8.341119289E-1,3.374320269E0,-7.498149872E-1
6.260870447E1,-1.546665311E0,1.958987117E0,-1.594922185E0
6.265951015E1,-8.538117409E-1,3.075616062E-1,-1.234980464E0
6.271031489E1,1.046686769E0,1.574611545E0,-1.682884246E-1
6.276111895E1,6.994201243E-2,-8.055548072E-1,-3.889569938E-1
6.281192385E1,-1.612331390E0,-3.180223465E0,1.459924877E-1
6.286272942E1,-3.364088535E0,-3.334767818E0,5.758762360E-1
6.291353421E1,-2.814478636E0,-6.951441765E-1,6.383354068E-1
6.296433828E1,-2.396201134E0,-3.782671690E-1,-1.118461370E0
6.301514307E1,-1.987849712E0,-1.424037695E0,-1.031720996E0
6.306594875E1,-9.941539168E-1,-3.256121397E0,-1.221694518E-3
6.311675354E1,-1.405101418E0,-2.751255989E0,7.495095730E-1
6.316755755E1,-2.468433857E0,1.069440842E0,8.936695457E-1
6.321836239E1,-2.470877171E-1,-1.161067963E0,-1.401894391E-1
6.326916802E1,1.135412335E0,5.809157491E-1,-5.187620521E-1
6.331997281E1,3.675773382E0,1.794669271E0,-8.754968047E-1
6.337077682E1,4.183692932E0,1.152974218E-1,-1.664558798E-2
6.342158166E1,2.651535273E0,2.597017050E0,4.283566475E-1
6.347238729E1,2.777369738E0,1.924168877E-2,5.482354015E-2
6.352319208E1,2.859375954E0,2.557159424E0,4.288147688E-1
6.357399609E1,1.434574842E0,2.759044409E0,-3.701734245E-1
6.362480093E1,-7.243121266E-1,2.249139547E0,-8.240329623E-1
6.367560656E1,-1.907675982E0,5.050179958E-1,-1.694490314E0
6.372641135E1,6.279509664E-1,1.292858243E0,-6.566607859E-3
6.377721536E1,9.292513728E-1,6.352811456E-1,-3.842229247E-1
6.382802015E1,-5.022691488E-1,-2.038702726E0,1.146865711E-1
6.387882583E1,-3.125400066E0,-2.965968847E0,-2.379250079E-1
6.392963057E1,-2.557922840E0,-1.913173556E0,1.259872466E-1
6.398043458E1,-2.179655790E0,6.192464232E-1,-3.826957941E-1
6.403123942E1,-1.909203053E0,-2.151709497E-1,-5.552601814E-1
6.408204505E1,-1.583010674E0,-1.700904250E0,-1.214058921E-1
6.413284984E1,-1.126860499E0,-2.746980190E0,1.760767251E-1
6.418365385E1,-1.905079842E0,-1.287665963E0,7.415685654E-1
6.423445864E1,-1.678608298E0,9.993461370E-1,2.501419485E-1
6.428526432E1,5.245651007E-1,-1.614011168E0,-6.801784039E-1
6.433606906E1,1.919740200E0,1.219098449E0,-2.525853515E-1
6.438687307E1,4.196825981E0,1.353026628E0,-1.026223376E-1
6.443767786E1,3.310639381E0,1.069288135E0,3.090887070E-1
6.448848354E1,2.565100431E0,5.934380889E-1,1.982199401E-1
6.453928867E1,2.976811409E0,5.131117105E-1,5.680879578E-2
6.459009268E1,2.360619307E0,2.306559324E0,2.742704153E-1
6.464089748E1,6.099309921E-1,2.157207012E0,-3.451287150E-1
6.469170310E1,-1.580414534E0,1.557202339E0,-7.062921524E-1
6.474250789E1,-1.393953443E0,3.165715933E-1,-1.330425382E0
6.479331190E1,7.269082665E-1,1.250557065E0,-2.779355086E-2
6.484411669E1,1.018587798E-1,1.910424829E-1,-4.173613787E-1
6.489492232E1,-6.762079000E-1,-2.410097837E0,-5.955760926E-2
6.494572706E1,-2.574263096E0,-1.852852464E0,3.089359999E-1
6.499653107E1,-2.367949486E0,-2.429186821E0,3.695625961E-1
6.504733596E1,-2.174921751E0,1.090362310E0,-5.204418898E-1
6.509814154E1,-1.798945189E0,-4.978405237E-1,-8.038749695E-1
6.514894628E1,-1.302326322E0,-1.421288848E0,-1.461452097E-1
6.519975029E1,-1.299272060E0,-2.934510231E0,3.261924386E-1
6.525055508E1,-2.764236450E0,-2.545706034E-1,5.865660906E-1
6.530136071E1,-5.686988235E-1,-6.960604787E-1,1.557660475E-2
6.535216544E1,9.521581531E-1,1.362189353E-1,-1.551551968E-1
6.540296925E1,3.554825544E0,1.191915751E0,-7.963921428E-1
6.545377404E1,4.153455734E0,2.115058601E-1,-3.616215885E-1
6.550457966E1,2.709413052E0,2.286706686E0,2.663294077E-1
6.555538440E1,2.591977596E0,5.969504714E-1,3.293993771E-1
6.560618841E1,2.675358295E0,1.181073189E0,2.637332976E-1
6.565699320E1,1.583468795E0,2.132773161E0,-1.513374150E-1
6.570779883E1,-4.462239146E-1,2.202257156E0,-6.552863717E-1
6.575860357E1,-1.749008417E0,8.307522535E-1,-1.526201844E0
6.580940758E1,3.799470067E-1,1.070051670E0,-2.707580328E-1
6.586021237E1,9.478822351E-1,1.552621007E0,-4.541649222E-1
6.591101800E1,-6.694886088E-1,-1.452289343E0,-6.725428104E-1
6.596182274E1,-1.182294846E0,-2.767443419E0,2.405211031E-1
6.601262675E1,-2.974368095E0,-3.136242628E0,3.721587062E-1
6.606343154E1,-2.565405846E0,-2.055042982E0,6.119162440E-1
6.611423716E1,-1.934247851E0,3.671191931E-1,-3.584146202E-1
6.616504190E1,-1.880493283E0,-1.261705041E0,-5.827482939E-1
6.621584586E1,-7.258392572E-1,-2.910381794E0,-1.191152185E-1
6.626665065E1,-1.339588046E0,-2.695668936E0,2.594573796E-1
6.631745628E1,-2.549523830E0,1.025918007E0,6.137487888E-1
6.636826102E1,-2.225011140E-1,-1.401283622E0,-2.478512824E-1
6.641906503E1,1.495048642E0,3.254288733E-1,-4.885250926E-1
6.646986982E1,4.432307720E0,1.258192658E0,-6.230641901E-2
6.652067545E1,3.748158693E0,5.160132051E-1,-1.062874198E-1
6.657148018E1,2.717659473E0,1.927375793E0,3.439069986E-1
6.662228414E1,2.968106747E0,2.457133085E-1,2.270824611E-1
6.667308893E1,2.589534283E0,2.426743507E0,2.076880634E-1
6.672389456E1,8.655705452E-1,2.802414417E0,-6.077930331E-1
6.677469930E1,-1.289956689E0,2.102536201E0,-1.038898468E0
6.682550331E1,-1.121973753E0,3.373403847E-1,-1.538571477E0
6.687630805E1,7.751652002E-1,1.535059214E0,5.039490014E-2
6.692711367E1,4.353813827E-1,3.095468581E-1,-4.813476503E-1
6.697791841E1,-8.704573512E-1,-2.775842667E0,1.113269106E-1
6.702872242E1,-2.649549961E0,-2.300756216E0,4.078932703E-1
6.707952722E1,-2.604347229E0,-3.308043242E0,8.950439692E-1
6.713033284E1,-2.872814655E0,6.751389503E-1,-5.431959033E-1
6.718113753E1,-1.966470003E0,-1.213448048E0,-1.360814929E0
6.723194154E1,-1.338824511E0,-2.374516010E0,-5.499152541E-1
6.728274633E1,-1.249946237E0,-3.817642689E0,3.048127890E-1
6.733355196E1,-2.458660126E0,8.298360109E-1,9.367342591E-1
6.738435664E1,-3.765873313E-1,-1.414874911E0,-4.062134400E-2
6.743516065E1,8.284615874E-1,6.543701291E-1,-6.960604787E-1
6.748596544E1,4.239432812E0,1.153432369E0,-2.948864996E-1
6.753677102E1,3.771523714E0,-3.895678520E-1,-1.392731816E-1
6.758757576E1,2.882130146E0,2.929776192E0,4.474456310E-1
6.763837977E1,2.558228254E0,4.445441067E-1,3.180987239E-1
6.768918461E1,2.727127552E0,2.386733055E0,4.329380095E-1
6.773999013E1,1.390441060E0,2.741940737E0,-4.720322192E-1
6.779079487E1,-8.292251825E-1,2.460950851E0,-8.915315866E-1
6.784159888E1,-1.767181158E0,2.620534599E-1,-1.530935884E0
6.789240362E1,1.067913771E0,1.185349107E0,1.220167428E-1
6.794320925E1,1.003163934E0,7.418739796E-1,-4.642439187E-1
6.799401399E1,-6.282563806E-1,-2.657490969E0,4.642439187E-1
6.804481794E1,-2.768665314E0,-2.460798264E0,7.947123051E-1
6.809562274E1,-2.528602123E0,-3.277500868E0,8.333483934E-1
6.814642836E1,-3.438001156E0,1.109145880E0,-9.028322697E-1
6.819723305E1,-2.313278675E0,-1.047297597E0,-1.661199093E0
6.824803706E1,-1.582705259E0,-2.753241301E0,-5.777087808E-1
6.829884180E1,-1.286902428E0,-3.224051714E0,4.920374751E-1
6.834964742E1,-2.163010120E0,5.885513425E-1,9.440644383E-1
6.840045216E1,-9.257390499E-1,-6.748335361E-1,4.016320780E-2
6.845125612E1,5.549547076E-1,-1.614163816E-1,-7.356128097E-1
6.850206091E1,3.306210756E0,1.187028885E0,-9.339854717E-1
6.855286649E1,4.267073631E0,-7.391251922E-1,-1.531699449E-1
6.860367123E1,3.386995316E0,2.222414970E0,6.068767309E-1
6.865447524E1,2.881519318E0,1.021183848E0,6.783458591E-1
6.870527998E1,3.096079350E0,2.199966431E0,6.563553810E-1
6.875608560E1,1.690825224E0,2.852351189E0,-3.686463237E-1
6.880689029E1,-4.430169761E-1,2.525242567E0,-9.454388618E-1
6.885769430E1,-1.995332599E0,1.498102844E-1,-2.042367697E0
6.890849904E1,5.114318728E-1,1.197413325E0,1.481304597E-2
6.895930466E1,1.047297597E0,1.229635477E0,-5.850389600E-1
6.901010940E1,-3.892624080E-1,-2.534252644E0,2.086043358E-1
6.906091336E1,-2.711856365E0,-1.689450860E0,3.978142738E-1
6.911171815E1,-2.759807825E0,-3.443040609E0,6.745280623E-1
6.916252373E1,-2.757517338E0,1.027597785E0,-6.105418205E-1
6.921332846E1,-2.297243834E0,-5.891621709E-1,-1.464658976E0
6.926413242E1,-1.697849989E0,-2.265937805E0,-3.645231128E-1
6.931493722E1,-1.523605824E0,-2.712161779E0,5.885513425E-1
6.936574279E1,-2.002815485E0,5.717530251E-1,1.092805743E0
6.941654753E1,-5.095993280E-1,-1.406017661E0,1.832541777E-3
6.946735149E1,8.244910836E-1,1.410904408E0,-5.349494815E-1
6.951815628E1,4.027468681E0,9.043593407E-1,-9.159654379E-1
6.956896190E1,3.897205591E0,-5.899257660E-1,-5.251759291E-1
6.961976659E1,2.838759899E0,2.976658583E0,2.577775419E-1
6.967057055E1,2.725600481E0,-8.191461563E-1,4.346178174E-1
6.972137534E1,2.731709003E0,1.921114683E0,3.257342875E-1
6.977218091E1,1.306296825E0,3.076990366E0,-4.645493329E-1
6.982298565E1,-9.729269743E-1,2.875105381E0,-8.136485219E-1
6.987378961E1,-1.483900666E0,4.514161348E-1,-1.560256600E0
6.992459440E1,9.268079996E-1,1.413195133E0,9.193251282E-2
6.997539998E1,1.513374090E0,8.959602118E-1,-2.951919436E-1
7.002620466E1,-7.070556879E-1,-2.679634094E0,5.419742465E-1
7.007700867E1,-3.241308212E0,-2.977116823E0,8.849649429E-1
7.012781341E1,-2.890987396E0,-1.772067904E0,5.505260825E-1
7.017861904E1,-3.258411884E0,3.335226178E-1,-1.231468081E0
7.022942373E1,-2.464463234E0,-1.717855215E0,-1.502226114E0
7.028022774E1,-1.673110604E0,-2.364895105E0,-2.031067200E-2
7.033103248E1,-1.781688690E0,-1.852699757E0,8.846595287E-1
7.038183810E1,-1.878355265E0,-1.679830020E-3,7.925743461E-1
7.043264279E1,-8.261708915E-2,-1.679066420E0,-4.550812021E-2
7.048344675E1,1.305838704E0,1.104717255E0,-2.977880239E-1
7.053425154E1,4.532792091E0,1.209782958E0,-8.093726039E-1
7.058505711E1,3.906520844E0,8.658760041E-2,-6.102364063E-1
7.063586185E1,3.085084200E0,1.721520305E0,-7.330167107E-3
7.068666581E1,2.928707123E0,4.782933891E-1,-8.032641560E-2
7.073747055E1,3.019723415E0,2.844715595E0,1.780619770E-1
7.078827617E1,1.052489877E0,2.961845636E0,-7.204943299E-1
7.083908086E1,-1.109451294E0,2.567238331E0,-1.296370625E0
7.088988482E1,-1.034317136E0,4.231644273E-1,-1.459772229E0
7.094068961E1,4.547757804E-1,1.357913494E0,-6.383354217E-2
7.099149518E1,6.455128193E-1,3.761292100E-1,-4.289674759E-1
7.104229987E1,-6.656708121E-1,-2.895568609E0,2.678565085E-1
7.109310388E1,-3.019265175E0,-2.008007765E0,8.304468393E-1
7.114390862E1,-2.924278498E0,-2.502641201E0,7.551599145E-1
7.119471420E1,-2.883962631E0,4.807367921E-1,-8.521319032E-1
7.124551893E1,-2.197828531E0,-1.137855768E0,-1.484206080E0
7.129632289E1,-1.537349820E0,-2.311140537E0,-3.356605768E-1
7.134712763E1,-1.383874416E0,-3.076226711E0,8.483141065E-1
7.139793326E1,-2.492256880E0,8.909206986E-1,9.559759498E-1
7.144873794E1,-3.359659910E-1,-1.792225838E0,2.228065431E-1
7.149954190E1,3.999522328E-1,1.113116384E0,-3.319954872E-1
7.155034664E1,3.847879648E0,1.397313118E0,-3.171824515E-1
7.160115227E1,4.298837662E0,-7.789829373E-1,-7.902836204E-1
7.165195696E1,2.878770351E0,2.694294453E0,-2.896943092E-1
7.170276091E1,2.826848507E0,9.639169574E-1,1.785201132E-1
7.175356565E1,3.070881844E0,1.699987888E0,3.924693763E-1
7.180437128E1,1.767333865E0,3.061719179E0,-5.697677732E-1
7.185517596E1,-5.838172436E-1,3.520312786E0,-1.080130696E0
7.190597992E1,-1.689603567E0,7.762341499E-1,-1.619356036E0
7.195678466E1,4.647020400E-1,8.163973689E-1,1.521009654E-1
7.200759024E1,1.136786699E0,8.759549856E-1,-6.615476012E-1
7.205839498E1,-6.554391384E-1,-2.048781633E0,9.269607067E-2
7.210919893E1,-2.045880079E0,-2.630919218E0,6.534538269E-1
7.216000367E1,-3.247722149E0,-2.840745211E0,5.215108395E-1
7.221080925E1,-2.713994265E0,-5.054761097E-2,-2.924431264E-1
7.226161399E1,-2.084516287E0,-6.850652099E-1,-1.300035715E0
7.231241794E1,-1.932262540E0,-2.208518267E0,-8.996253014E-1
7.236322268E1,-9.926267862E-1,-3.350191832E0,3.962871730E-1
7.241402826E1,-1.869498014E0,-9.206995368E-1,8.811471462E-1
7.246483294E1,-1.660435557E0,8.047912270E-2,4.271349311E-1
7.251563690E1,3.655920923E-1,-7.812736630E-1,-3.987305462E-1
7.256644164E1,2.823336124E0,7.203416228E-1,-4.862344265E-1
7.261724727E1,4.434751034E0,2.687727809E-1,-4.100312293E-1
7.266805196E1,3.271545172E0,1.133579850E0,7.635590737E-4
7.271885591E1,2.556854010E0,1.032179117E0,2.397575416E-2
7.276966065E1,2.933899403E0,1.611720443E0,1.530172378E-1
7.282046623E1,2.111393452E0,3.071950912E0,-2.275405973E-1
7.287127091E1,2.545706034E-1,2.748507261E0,-7.291989326E-1
7.292207487E1,-1.699224353E0,1.157402873E0,-1.496423125E0
7.297287961E1,1.221694518E-3,5.499152541E-1,-6.762079000E-1
7.302368518E1,1.025765300E0,1.890266895E0,-4.115583301E-1
7.307448987E1,-1.922641695E-1,-9.153546095E-1,-5.221216679E-1
7.312529383E1,-1.089140654E0,-2.312056780E0,1.162136942E-1
7.317609857E1,-3.287885427E0,-2.612441063E0,7.098045349E-1
7.322690420E1,-2.502946615E0,-1.531394124E0,7.316423059E-1
7.327770888E1,-2.885184288E0,-1.939439960E-2,-1.196191669E0
7.332851284E1,-1.643026471E0,-1.823989868E0,-1.168245435E0
7.337931753E1,-1.276518106E0,-3.077448606E0,5.039490014E-2
7.343012315E1,-1.859877229E0,-1.191610336E0,9.602518678E-1
7.348092784E1,-1.760614514E0,6.218425035E-1,6.963658929E-1
7.353173180E1,1.945548505E-1,-1.149614573E0,-3.625378609E-1
7.358253654E1,2.486759186E0,1.319277406E0,-6.264238358E-1
7.363334211E1,4.476593971E0,3.741439581E-1,-9.837695360E-1
7.368414680E1,3.396157980E0,5.793886185E-1,-1.258345395E-1
7.373495070E1,2.782562017E0,2.478054523E0,7.117897868E-1
7.378575555E1,2.850213289E0,2.657185495E-1,6.610894203E-1
7.383656107E1,2.084668875E0,2.282125473E0,-1.293469071E-1
7.388736571E1,2.425063550E-1,3.268491030E0,-7.356128097E-1
7.393816966E1,-1.697391868E0,1.877133608E0,-1.143506050E0
7.398897440E1,5.176930502E-2,7.117897868E-1,-6.074876189E-1
7.403977998E1,1.377918720E0,1.127624035E0,-2.299840003E-1
7.409058466E1,5.832064152E-1,1.904316396E-1,-1.250709742E-1
7.414138862E1,-1.852852464E0,-3.507332325E0,4.648547769E-1
7.419219336E1,-2.954210043E0,-4.361602306E0,1.048672080E0
7.424299893E1,-3.068438530E0,1.924168877E-2,3.628432751E-1
7.429380362E1,-2.585716486E0,2.724378705E-1,-1.017366052E0
7.434460753E1,-2.326717138E0,-1.548955917E0,-1.269798756E0
7.439541227E1,-1.719993114E0,-2.523868084E0,-1.959292591E-1
7.444621784E1,-1.419303656E0,-2.532725334E0,6.461237073E-1
7.449702253E1,-2.072757483E0,1.018435121E0,6.071822047E-1
7.454782649E1,-8.246437646E-3,-1.734653473E0,-2.556395829E-1
7.459863123E1,1.012632012E0,5.233433843E-1,-3.335226178E-1
7.464943680E1,4.133145332E0,9.455915689E-1,-2.238755226E-1
7.470024143E1,3.594072580E0,-4.734066315E-3,-4.453076422E-1
7.475104539E1,2.923820496E0,2.039618969E0,2.099787444E-1
7.480185013E1,2.569529057E0,-1.588202827E-2,7.391251624E-2
7.485265570E1,2.768817902E0,2.806537628E0,1.143811494E-1
7.490346039E1,1.158471823E0,3.049960375E0,-7.073611021E-1
7.495426430E1,-1.221694469E0,2.805315971E0,-1.232231617E0
7.500506904E1,-1.376086116E0,6.803311110E-1,-1.619356036E0
7.505587461E1,1.491841674E0,2.272962570E0,7.482878864E-2
7.510667925E1,8.061656952E-1,5.044071078E-1,-8.422056437E-1
7.515748320E1,-7.553126216E-1,-2.855100155E0,3.119902313E-1
7.520828795E1,-2.386885643E0,-1.828724027E0,5.427377820E-1
7.525909352E1,-2.621298313E0,-2.112920761E0,6.980457306E-1
7.530989815E1,-3.115168333E0,3.599417508E-1,-9.095515609E-1
7.536070211E1,-2.226538181E0,-1.243990421E0,-1.378987670E0
7.541150685E1,-1.596143842E0,-1.695101142E0,-1.572931707E-1
7.546231237E1,-1.200314879E0,-3.168922901E0,6.621584296E-1
7.551311706E1,-2.097191334E0,1.560714692E-1,6.546755433E-1
7.556392102E1,-6.163448691E-1,-7.553126216E-1,-1.553079188E-1
7.561472570E1,6.441384554E-1,-2.550287247E-1,-5.564818382E-1
7.566553128E1,3.221761227E0,9.669712186E-1,-4.451549351E-1
7.571633596E1,4.204308987E0,3.781144619E-1,-8.185353130E-2
7.576713987E1,2.990555525E0,2.484773874E0,3.316900730E-1
7.581794461E1,2.537306786E0,4.216373265E-1,2.744231224E-1
7.586875018E1,2.785921574E0,1.410904408E0,4.837910235E-1
7.591955482E1,1.778787255E0,2.252804756E0,-7.360709459E-2
7.597035878E1,-1.484358907E-1,2.460950851E0,-6.473453641E-1
7.602116346E1,-1.958681703E0,8.790091872E-1,-1.371199369E0
7.607196904E1,2.753393948E-1,8.686248064E-1,-4.314108789E-1
7.612277367E1,1.136481285E0,1.189625025E0,-6.334486008E-1
7.617357763E1,-6.765133142E-2,-9.150491953E-1,-2.962609231E-1
7.622438232E1,-1.258956194E0,-2.483094215E0,-2.502946556E-1
7.627518789E1,-3.340723753E0,-3.413414478E0,1.048213840E0
7.632599253E1,-2.477291107E0,4.069769979E-1,4.216373265E-1
7.637679649E1,-2.349623919E0,-1.806580722E-1,-1.338213682E0
7.642760117E1,-2.010145664E0,-8.006680608E-1,-8.984035850E-1
7.647840675E1,-1.204438090E0,-2.042215109E0,3.461976945E-1
7.652921138E1,-1.742899895E0,-2.166522503E0,6.563553810E-1
7.658001534E1,-2.052446842E0,4.981459379E-1,6.621584296E-1
7.663082003E1,1.320957243E-1,-1.726254344E0,-6.795676053E-2
7.668162560E1,1.502989650E0,6.467345357E-1,-3.920112252E-1
7.673243024E1,4.211181164E0,9.904888272E-1,-7.142331600E-1
7.678323414E1,3.826347113E0,1.592784226E-1,-4.874561131E-1
7.683403888E1,2.919697285E0,2.668028116E0,1.892099380E-1
7.688484440E1,2.816311359E0,-5.467082933E-2,7.895200700E-2
7.693564909E1,2.873120070E0,1.973036647E0,1.795890927E-1
7.698645300E1,1.195275426E0,2.623130798E0,-5.685460567E-1
7.703725768E1,-7.449282408E-1,2.573499441E0,-1.035386086E0
7.708806326E1,-6.693359017E-1,2.713688910E-1,-1.773136854E0
7.713886789E1,5.239542127E-1,1.649592996E0,-1.681357026E-1
7.718967180E1,5.222744346E-1,2.631224692E-1,-5.202891231E-1
7.724047654E1,-1.237882018E0,-2.934968472E0,-8.383878320E-2
7.729128206E1,-3.018501759E0,-2.321219683E0,5.018110275E-1
7.734208670E1,-2.961234808E0,-3.167395830E0,9.376505613E-1
7.739289065E1,-2.391619682E0,7.279772162E-1,-3.403946459E-1
7.744369534E1,-2.187902212E0,-1.021794796E0,-1.233605981E0
7.749450086E1,-1.666238666E0,-2.206991196E0,-4.034646153E-1
7.754530550E1,-1.079214454E0,-3.187401056E0,5.642701387E-1
7.759610946E1,-1.928597450E0,1.175880954E-1,8.481613994E-1
7.764691414E1,-1.015686274E0,-5.109737515E-1,1.776038408E-1
7.769771966E1,5.688515306E-1,2.443389036E-3,-4.277457893E-1
7.774852430E1,3.087985516E0,7.094991207E-1,-8.131904006E-1
7.779932826E1,4.192397594E0,2.000524700E-1,-2.194468826E-1
7.785013294E1,3.122193098E0,1.844606042E0,3.345915973E-1
7.790093847E1,2.529976606E0,6.624638438E-1,2.144073844E-1
7.795174310E1,2.760571480E0,1.376238823E0,3.758237660E-1
7.800254701E1,1.761836171E0,2.325495481E0,-4.398100078E-2
7.805335170E1,-1.018587798E-1,2.428728819E0,-6.429167390E-1
7.810415722E1,-1.736486077E0,1.482068181E0,-1.436101913E0
7.815496190E1,-1.389677543E-2,5.745018721E-1,-6.458182931E-1
7.820576581E1,8.092198968E-1,1.932415247E0,-5.239542127E-1
7.825657050E1,-4.057552814E-1,-2.095969677E0,-3.895678520E-1
7.830737602E1,-6.841489077E-1,-2.324273825E0,-1.869192570E-1
7.835818065E1,-3.129828691E0,-2.746369362E0,8.420529366E-1
7.840898456E1,-2.358633995E0,-1.111283898E0,8.729007244E-1
7.845978925E1,-2.402156830E0,1.093416587E-1,-1.041647315E0
7.851059477E1,-2.004647970E0,-1.203979969E0,-1.049130201E0
7.856139940E1,-1.330578089E0,-2.205769539E0,1.646233350E-1
7.861220331E1,-1.586523056E0,-2.157512426E0,7.751652002E-1
7.866300800E1,-2.093068123E0,7.521057129E-1,6.551336646E-1
7.871381352E1,5.344913341E-3,-1.376697063E0,-4.104893506E-1
7.876461815E1,1.984490037E0,4.720322192E-1,-4.382829070E-1
7.881542206E1,4.188426971E0,1.019962192E0,-7.250757217E-1
7.886622675E1,3.505347013E0,7.172874212E-1,-1.044548824E-1
7.891703227E1,2.835247517E0,1.961583257E0,2.783936262E-1
7.896783690E1,2.783783674E0,-1.853921413E-1,1.262926757E-1
7.901864081E1,2.380777121E0,1.857739210E0,1.528645307E-1
7.906944550E1,7.942541242E-1,2.659018040E0,-5.839699507E-1
7.912025102E1,-1.217265844E0,2.449650288E0,-7.997517586E-1
7.917105560E1,-1.065317631E0,6.252021790E-1,-1.190999389E0
7.922185951E1,1.072495103E0,1.353179336E0,-1.181989461E-1
7.927266420E1,7.085828185E-1,1.905843467E-1,-4.524851143E-1
7.932346972E1,-7.492041588E-1,-3.077295780E0,-2.050919682E-1
7.937427435E1,-2.851893187E0,-2.693378210E0,8.060129285E-1
7.942507826E1,-2.651535273E0,-1.881409526E0,1.045617819E0
7.947588289E1,-2.500197887E0,-2.626643181E-1,-7.769976854E-1
7.952668841E1,-2.243489265E0,-1.122737288E0,-1.095401883E0
7.957749305E1,-1.471378326E0,-1.716328144E0,-1.895153672E-1
7.962829696E1,-1.163358569E0,-3.102493286E0,4.541649222E-1
7.967910170E1,-2.419413328E0,-2.867927849E-1,7.815790772E-1
7.972990711E1,-6.093201637E-1,-1.083795786E0,2.576248348E-1
7.978071175E1,2.513636351E-1,-1.235438585E-1,-8.715263009E-1
7.983151565E1,3.784504175E0,8.412894011E-1,-8.154810965E-2
7.988232029E1,3.961802721E0,-2.336490750E-1,-9.513945878E-2
7.993312581E1,2.912214279E0,2.347027779E0,1.583621502E-1
7.998393044E1,2.518676043E0,-2.002051920E-1,2.812951505E-1
8.003473430E1,2.837843657E0,1.660588264E0,3.753656447E-1
8.008553899E1,1.648982167E0,2.621909142E0,-2.423536479E-1
8.013634451E1,-4.665345848E-1,2.870982170E0,-6.914790869E-1
8.018714909E1,-1.284153700E0,9.451334476E-1,-1.553537250E0
8.023795300E1,9.077190161E-1,1.414569497E0,1.039967462E-1
8.028875768E1,1.075243831E0,8.967237473E-1,-5.998520255E-1
8.033956315E1,-1.053406119E0,-2.640692711E0,-2.764083818E-2
8.039036779E1,-1.907523274E0,-2.249444962E0,6.310052276E-1
8.044117164E1,-2.884268045E0,-2.847922564E0,1.129762053E0
8.049197633E1,-3.155484200E0,3.377985358E-1,-5.572454333E-1
8.054278180E1,-2.091541052E0,-9.135220647E-1,-1.502836943E0
8.059358643E1,-1.764432311E0,-1.841399074E0,-5.175403357E-1
8.064439029E1,-1.251931429E0,-3.080655336E0,4.966188073E-1
8.069519498E1,-1.868581772E0,-6.174138784E-1,9.811733961E-1
8.074600050E1,-1.121821046E0,-2.038702667E-1,2.756448388E-1
8.079680508E1,8.368607610E-2,-3.625378609E-1,-6.248967648E-1
8.084760893E1,2.669555187E0,1.147476554E0,-3.095468581E-1
8.089841362E1,4.351522923E0,7.838697433E-1,-5.865660906E-1
8.094921909E1,3.113183022E0,1.372268319E0,-1.389677543E-2
8.100002373E1,2.567085505E0,1.145185947E0,3.255815804E-1
8.105082758E1,2.811271906E0,5.198310018E-1,-4.657710344E-2
8.110163227E1,1.974105597E0,2.682383060E0,-3.710896969E-1
8.115243774E1,1.707318127E-1,3.059123039E0,-7.653915882E-1
8.120324232E1,-2.028470993E0,1.152363300E0,-1.351804972E0
8.125404623E1,7.666133344E-2,1.047297597E0,-2.539597452E-1
8.130485086E1,1.033400893E0,1.651425600E0,-5.054761171E-1
8.135565638E1,-1.763821393E-1,-2.371461868E0,-1.905843467E-1
8.140646097E1,-1.029583097E0,-1.492758036E0,2.206685692E-1
8.145726482E1,-3.038201571E0,-2.907633066E0,1.132816195E0
8.150806946E1,-2.633057117E0,-1.718007922E-1,5.500679612E-1
8.155887498E1,-2.558533669E0,-2.693836391E-1,-1.297439575E0
8.160967956E1,-1.673416018E0,-1.405254126E0,-8.342646360E-1
8.166048341E1,-1.214822531E0,-2.853725672E0,6.933116168E-2
8.171128810E1,-1.770540833E0,-1.627297044E0,7.252284288E-1
8.176209357E1,-1.979603291E0,8.869501948E-1,7.113316059E-1
8.181289815E1,6.154286116E-2,-1.102732062E0,-3.188622594E-1
8.186370201E1,2.226538181E0,1.221694469E0,-3.533751369E-1
8.191450670E1,4.436125278E0,5.546492934E-1,-5.781669021E-1
8.196531216E1,3.152735472E0,9.822424054E-1,-4.291202128E-1
8.201611675E1,2.552730799E0,1.594005942E0,3.677300513E-1
8.206692060E1,2.896637678E0,4.240806997E-1,3.173351586E-1
8.211772524E1,2.208823681E0,2.437433243E0,7.605048269E-2
8.216853076E1,2.060082406E-1,2.690934896E0,-5.951179266E-1
8.221933534E1,-2.050919771E0,1.720298648E0,-1.420678020E0
8.227013920E1,2.029540092E-1,9.801044464E-1,-6.852179170E-1
8.232094383E1,1.453511000E0,1.677233815E0,-5.661026835E-1
8.237174930E1,-1.214058921E-1,-1.952115178E0,-7.391251624E-2
8.242255388E1,-1.538571477E0,-2.077644348E0,6.734591126E-1
8.247335774E1,-3.173198700E0,-4.563639641E0,1.174964666E0
8.252416237E1,-3.231534719E0,7.052231431E-1,3.622324169E-1
8.257496789E1,-2.317401886E0,-6.134433746E-1,-1.477028728E0
8.262577248E1,-1.464811683E0,-2.623130798E0,-9.584193230E-1
8.267657633E1,-1.451678514E0,-2.087875843E0,4.588989913E-1
8.272738097E1,-2.007549524E0,1.207950488E-1,1.094485521E0
8.277818643E1,-8.550334573E-1,-1.325843930E0,6.581879258E-1
8.282899102E1,-3.280249834E-1,3.336753249E-1,-2.739650011E-1
8.287979487E1,2.197981119E0,8.376243114E-1,-5.218162537E-1
8.293059951E1,4.312276363E0,1.572320819E0,-6.533011198E-1
8.298140498E1,3.452050686E0,6.398624778E-1,-2.053973973E-1
8.303220956E1,2.662683249E0,1.405101418E0,5.225798488E-1
8.308301341E1,2.894805193E0,3.587200642E-1,3.013004065E-1
8.313381805E1,2.302283287E0,2.301061630E0,-1.181989461E-1
8.318462352E1,5.532749295E-1,2.938328028E0,-7.353073955E-1
8.323542810E1,-1.343711257E0,2.377875566E0,-1.207645059E0
8.328623190E1,-5.311316848E-1,2.899997234E-1,-1.285375357E0
8.333703654E1,7.829535007E-1,1.092194915E0,-2.626643144E-2
8.338784201E1,7.327113152E-1,7.162184119E-1,-1.710372269E-1
8.343864659E1,-9.590302110E-1,-2.397117376E0,5.387672782E-1
8.348945044E1,-3.475415468E0,-2.237380743E0,3.671191931E-1
8.354025508E1,-2.704679012E0,-2.859681368E0,3.121429384E-1
8.359106055E1,-2.763473034E0,-7.391251624E-2,-1.051573515E0
8.364186513E1,-1.912410021E0,-1.872399569E0,-1.450304151E0
8.369266893E1,-1.154806733E0,-2.972229958E0,-2.202104330E-1
8.374347357E1,-1.547123432E0,-3.192287683E0,6.555918455E-1
8.379427904E1,-2.646342993E0,1.108382344E0,9.349017143E-1
8.384508362E1,-1.733279079E-1,-1.841857195E0,-5.757235363E-2
8.389588748E1,1.091584086E0,9.046648145E-1,-5.024218559E-1
8.394669211E1,3.942560911E0,8.927532434E-1,-1.010952234E0
8.399749753E1,3.941033840E0,-5.225798488E-1,-2.583884001E-1
8.404830211E1,2.945963621E0,1.976090908E0,3.823903799E-1
8.409910596E1,2.751408815E0,-4.115583301E-1,3.101576865E-1
8.414991060E1,2.898317575E0,1.897138834E0,4.124746025E-1
8.420071607E1,1.341420531E0,2.810660839E0,-5.972558856E-1
8.425152060E1,-7.609629631E-1,2.823641539E0,-7.287407517E-1
8.430232446E1,-2.493325710E0,2.951919436E-1,-1.576138616E0
8.435312909E1,2.635805905E-1,1.011410356E0,-9.025268257E-2
8.440393451E1,1.451983929E0,1.448013425E0,-3.959817290E-1
8.445473909E1,-1.189625040E-1,-2.385816574E0,4.039227366E-1
8.450554294E1,-2.975895166E0,-2.903509617E0,9.604045749E-1
8.455634753E1,-2.489966154E0,-2.756142855E0,8.874083757E-1
8.460715300E1,-3.579717636E0,1.068219185E0,-9.926267862E-1
8.465795758E1,-2.186985970E0,-1.732210159E0,-1.487107635E0
8.470876138E1,-1.195733547E0,-2.974978924E0,-3.151971996E-1
8.475956602E1,-1.565754294E0,-2.409639835E0,6.617003083E-1
8.481037149E1,-2.183168173E0,1.123958945E0,7.589777112E-1
8.486117607E1,-1.905843467E-1,-1.360662222E0,-3.440597057E-1
8.491197987E1,1.818339586E0,8.619054556E-1,-3.016058207E-1
8.496278451E1,4.540122032E0,3.006895781E-1,-2.412846684E-1
8.501358992E1,3.392187595E0,6.810946763E-2,-2.860292196E-1
8.506439451E1,2.627101421E0,2.543109894E0,4.213318825E-1
8.511519831E1,2.468433857E0,-3.564293683E-1,6.963659078E-2
8.516600294E1,2.530740261E0,2.949017763E0,1.221694499E-1
8.521680841E1,8.160919547E-1,3.121276855E0,-6.259657145E-1
8.526761295E1,-1.789171576E0,2.274795294E0,-1.482526302E0
8.531841675E1,-9.556705356E-1,1.919587553E-1,-1.350277901E0
8.536922138E1,1.501309872E0,2.003426313E0,-3.588727489E-2
8.542002685E1,2.399102598E-1,-1.005912781E0,-3.323009014E-1
8.547083138E1,-6.977402568E-1,-2.244558334E0,3.895678520E-1
8.552163524E1,-3.377985239E0,-2.892514467E0,6.221479177E-1
8.557243982E1,-1.969524264E0,-1.722436547E0,1.032026410E0
8.562324529E1,-3.390813112E0,6.450546980E-1,-1.373031974E0
8.567404982E1,-1.548803210E0,-2.207449198E0,-1.407850266E0
8.572485367E1,-1.235743999E0,-3.341029167E0,-5.787777901E-2
8.577565826E1,-1.733126402E0,-1.004843712E0,1.068219185E0
8.582646367E1,-1.743663549E0,4.819584787E-1,6.594096422E-1
8.587726826E1,2.713688910E-1,-8.843541145E-1,-4.037700295E-1
8.592807206E1,2.768665314E0,1.272547603E0,-3.947600424E-1
8.597887670E1,4.580590725E0,1.302631795E-1,-4.624113739E-1
8.602968211E1,3.227564096E0,1.128845692E0,-2.440334857E-1
8.608048670E1,2.796611547E0,8.944330812E-1,4.526378214E-1
8.613129050E1,2.697654247E0,9.987352490E-1,-1.343864016E-2
8.618209508E1,2.150640488E0,3.276432037E0,-3.510844707E-1
8.623290055E1,6.154286116E-2,3.111655951E0,-7.760814428E-1
8.628370508E1,-2.244252920E0,1.617065430E0,-1.744427085E0
8.633450888E1,1.756185852E-2,8.267817497E-1,-4.718795121E-1
8.638531352E1,1.385707021E0,2.040688038E0,-6.106945276E-1
8.643611893E1,-2.267770469E-1,-1.763974190E0,-2.254026383E-1
8.648692346E1,-1.577207565E0,-2.176295996E0,2.738122940E-1
8.653772732E1,-3.086763859E0,-4.171628475E0,7.576032877E-1
8.658853190E1,-2.668180943E0,2.434226274E-1,6.546755433E-1
8.663933732E1,-2.952072144E0,-7.748597264E-1,-1.412431598E0
8.669014190E1,-1.645927906E0,-2.656880140E0,-1.054475069E0
8.674094570E1,-1.247808218E0,-3.524588585E0,1.901262105E-1
8.679175029E1,-2.038549900E0,1.638597846E-1,1.047908425E0
8.684255571E1,-1.325538516E0,-5.317425132E-1,4.815003574E-1
8.689336029E1,1.849340051E-1,-6.093201414E-2,-2.991624475E-1
8.694416409E1,2.923209667E0,1.125333309E0,-5.427377820E-1
8.699496867E1,4.512023449E0,3.637595475E-1,-6.163448691E-1
8.704577409E1,3.279333591E0,1.243685007E0,-1.588202864E-1
8.709657862E1,2.748049021E0,9.666658044E-1,4.335488379E-1
8.714738248E1,2.958944082E0,1.224443316E0,4.491254389E-1
8.719818706E1,1.912410021E0,2.770803213E0,-2.993151546E-1
8.724899248E1,-8.078455180E-2,3.208933353E0,-7.711946368E-1
8.729979701E1,-2.160566807E0,8.254073858E-1,-1.848881960E0
8.735060081E1,6.580352187E-1,1.271783948E0,-8.399149776E-2
8.740140539E1,1.425106645E0,1.347681761E0,-6.365028620E-1
8.745221081E1,-5.743491650E-1,-2.553341627E0,2.428117841E-1
8.750301539E1,-2.664821148E0,-2.507833481E0,5.943543911E-1
8.755381920E1,-2.922446012E0,-3.218401432E0,7.084301114E-1
8.760462378E1,-3.277959108E0,7.427902818E-1,-5.584670901E-1
8.765542920E1,-2.185000658E0,-1.820630312E0,-1.541473031E0
8.770623373E1,-1.364938259E0,-3.013462305E0,-4.799732268E-1
8.775703753E1,-1.272700310E0,-2.746980190E0,6.849125028E-1
8.780784211E1,-2.197828531E0,8.383878469E-1,9.011524320E-1
8.785864753E1,-7.168292403E-1,-1.189777732E0,-3.054236248E-2
8.790945206E1,1.517497301E0,3.941491842E-1,-2.904578745E-1
8.796025586E1,4.326783657E0,1.025918007E0,-5.083776116E-1
8.801106045E1,3.678522110E0,-4.147652984E-1,-5.147915483E-1
8.806186586E1,2.912519693E0,2.350234747E0,4.308000207E-1
8.811267039E1,2.652604103E0,2.580829561E-1,2.927485406E-1
8.816347420E1,2.392841339E0,2.498212576E0,1.928750277E-1
8.821427878E1,9.440644383E-1,2.999259949E0,-6.250494719E-1
8.826508420E1,-1.589119196E0,2.598086119E0,-1.184127450E0
8.831588873E1,-1.035691500E0,1.382805467E0,-8.710681796E-1
8.836669253E1,1.732210159E0,1.972425818E0,-1.082726792E-1
8.841749711E1,6.870504618E-1,-4.089622498E-1,-2.791571915E-1
8.846830253E1,-1.193290114E0,-2.966732502E0,7.571451664E-1
8.851910706E1,-3.103562117E0,-3.641260624E0,8.183826208E-1
8.856991086E1,-2.952530146E0,-1.569877416E-1,3.329117596E-1
8.862071544E1,-2.920002699E0,3.956763148E-1,-1.554606318E0
8.867152086E1,-2.043284178E0,-2.197675705E0,-1.589424610E0
8.872232539E1,-1.323553324E0,-3.130897522E0,5.344913527E-2
8.877312920E1,-1.815285325E0,-1.014770031E0,1.057834744E0
8.882393373E1,-1.901567459E0,2.858765125E-1,6.679614782E-1
8.887473914E1,1.386623234E-1,-1.362342119E0,-3.584146202E-1
8.892554367E1,1.864305854E0,1.297286868E0,-3.022166789E-1
8.897634748E1,4.447884083E0,7.024743557E-1,-7.956285477E-1
8.902715206E1,3.440902710E0,2.828222811E-1,-5.150969625E-1
8.907795748E1,3.020334244E0,1.821088433E0,5.596888065E-1
8.912876201E1,2.659628868E0,1.311794519E-1,2.345653474E-1
8.917956581E1,2.410250664E0,2.679634094E0,-3.558185324E-2
8.923037034E1,4.987567961E-1,3.028275251E0,-7.162184119E-1
8.928117576E1,-2.061762094E0,2.147128105E0,-1.486802220E0
8.933198029E1,-5.570927262E-1,1.160457134E0,-9.659022093E-1
8.938278404E1,1.788560748E0,2.216001034E0,-3.174878657E-1
8.943358862E1,6.794148684E-1,-1.166870952E0,-1.608055383E-1
8.948439404E1,-1.307976723E0,-2.476222038E0,3.927747905E-1
8.953519857E1,-3.417537689E0,-3.788169384E0,8.452599049E-1
8.958600237E1,-2.924278498E0,1.543916464E-1,4.173613787E-1
8.963680690E1,-2.623130798E0,-1.061347127E0,-1.503447771E0
8.968761232E1,-1.725796223E0,-2.454231501E0,-8.800781965E-1
8.973841685E1,-1.072800517E0,-2.864262819E0,3.500154912E-1
8.978922060E1,-1.972120404E0,-6.134433746E-1,8.948912621E-1
8.984002518E1,-1.673416018E0,3.764346242E-1,4.283566475E-1
8.989083060E1,1.620272398E-1,-6.171084642E-1,-3.168770075E-1
8.994163513E1,2.189734697E0,7.343910933E-1,-4.758500159E-1
8.999243888E1,4.544703484E0,5.665608048E-1,-4.500417113E-1
9.004324346E1,3.262229681E0,5.656445622E-1,-3.074088693E-1
9.009404883E1,2.465837717E0,2.125442982E0,5.109737515E-1
9.014485336E1,2.634126186E0,2.958027720E-1,3.700207174E-1
9.019565716E1,2.102230787E0,2.735068560E0,1.485885978E-1
9.024646170E1,2.895416021E-1,2.456675053E0,-7.800519466E-1
9.029726711E1,-1.962652206E0,1.404185176E0,-1.470003963E0
9.034807164E1,-3.852919042E-1,5.431959033E-1,-7.531746626E-1
9.039887539E1,1.135106921E0,1.695559263E0,-3.249707520E-1
9.044967998E1,4.329380095E-1,-2.046796560E0,3.541387022E-1
9.050048534E1,-1.748703003E0,-2.474389553E0,2.741177082E-1
9.055128987E1,-3.076990366E0,-4.003951073E0,1.119988441E0
9.060209362E1,-2.837843657E0,1.029124975E0,1.053711548E-1
9.065289820E1,-2.247307062E0,-9.115368128E-1,-1.432436824E0
9.070370357E1,-1.597823739E0,-2.321066856E0,-7.148439884E-1
9.075450810E1,-1.203521848E0,-2.781798363E0,3.261924386E-1
9.080531185E1,-2.095969677E0,5.314370990E-2,9.294040799E-1
9.085611643E1,-1.199551344E0,-6.227588058E-1,5.178457499E-1
9.090692180E1,2.446443290E-1,4.474456236E-2,-4.610369802E-1
9.095772633E1,2.990555525E0,8.020424247E-1,-8.122741580E-1
9.100853008E1,4.427421093E0,2.721324563E-1,-4.162923992E-1
9.105933466E1,3.250623703E0,1.508181930E0,1.107160673E-1
9.111014003E1,2.642830610E0,7.122479081E-1,5.573981404E-1
9.116094456E1,2.730487347E0,1.269493341E0,4.614951015E-1
9.121174831E1,1.781841397E0,2.766985416E0,-1.133121699E-1
9.126255284E1,-2.912214398E-1,2.588312626E0,-7.713474035E-1
9.131335826E1,-2.266090631E0,9.022213817E-1,-1.737249613E0
9.136416274E1,5.428904891E-1,8.997780085E-1,-3.524588645E-1
9.141496654E1,1.224137902E0,1.218640327E0,-6.678087711E-1
9.146577107E1,-1.840177327E-1,-2.331909418E0,7.452336699E-2
9.151657643E1,-1.681051612E0,-1.660130143E0,4.115583301E-1
9.156738097E1,-3.038506985E0,-3.876589298E0,7.084301114E-1
9.161818472E1,-2.819365501E0,3.112266660E-1,-6.306997687E-2
9.166898925E1,-2.097191334E0,-9.605573416E-1,-1.209935665E0
9.171979466E1,-1.586523056E0,-2.050003290E0,-5.219689608E-1
9.177059914E1,-1.179240584E0,-2.844104767E0,4.810422063E-1
9.182140289E1,-2.221193314E0,-9.530744553E-1,9.782719016E-1
9.187220742E1,-1.543916464E0,4.072824121E-1,4.593571424E-1
9.192301284E1,3.985778242E-2,-5.460974574E-1,-5.233433843E-1
9.197381732E1,2.457591295E0,7.415685654E-1,-2.684673667E-1
9.202462107E1,4.233324051E0,7.698202729E-1,-4.167505503E-1
9.207542565E1,3.314762592E0,9.846857786E-1,-9.009997360E-3
9.212623102E1,2.626643181E0,1.020420313E0,5.781669021E-1
9.217703550E1,2.708191395E0,3.457395434E-1,3.944546282E-1
9.222783925E1,2.257233381E0,2.277696609E0,6.383354217E-2
9.227864378E1,2.666348219E-1,2.842730522E0,-6.700994372E-1
9.232944920E1,-1.820935726E0,1.760461807E0,-1.524522066E0
9.238025367E1,-7.727217674E-2,9.842276573E-1,-7.689039707E-1
9.243105742E1,1.163205862E0,1.779398084E0,-4.792096615E-1
9.248186196E1,3.538332880E-1,-1.052947998E0,-3.729222417E-1
9.253266732E1,-1.084101200E0,-2.011672735E0,1.507265568E-1
9.258347180E1,-3.067674875E0,-3.119138718E0,8.851176500E-1
9.263427555E1,-2.513789177E0,-2.544178963E-1,3.689517379E-1
9.268508008E1,-2.543262482E0,-3.707842827E-1,-1.396854997E0
9.273588550E1,-1.720604062E0,-1.491994381E0,-9.179506898E-1
9.278668998E1,-1.046381354E0,-2.533794403E0,9.773556143E-2
9.283749373E1,-1.663795233E0,-2.402615070E0,7.342383862E-1
9.288829826E1,-2.341072083E0,9.674293399E-1,7.482879162E-1
9.293910362E1,-1.421747059E-1,-1.617523551E0,-1.521009654E-1
9.298990810E1,8.047912717E-1,4.944808483E-1,-3.463504016E-1
9.304071185E1,3.859333038E0,1.123958945E0,-6.904101372E-1
9.309151638E1,4.025025368E0,-6.229115129E-1,-4.737120569E-1
9.314232175E1,2.746521950E0,2.465379477E0,1.721062213E-1
9.319312623E1,2.503099442E0,7.995990515E-1,2.924431264E-1
9.324392998E1,2.638096571E0,1.736944199E0,3.434488773E-1
9.329473451E1,1.410751700E0,2.422162056E0,-4.796678126E-1
9.334553987E1,-7.226322889E-1,2.369934559E0,-8.160919547E-1
9.339634435E1,-1.628060699E0,5.228852630E-1,-1.479624748E0
9.344714810E1,8.044858575E-1,1.512763262E0,-2.626643144E-2
9.349795263E1,7.333221436E-1,6.337540150E-1,-6.285618544E-1
9.354875800E1,-8.348754644E-1,-3.004605055E0,1.924168915E-1
9.359956248E1,-2.053515673E0,-2.051072359E0,4.164451063E-1
9.365036617E1,-2.293578863E0,-3.453424931E0,1.426175594E0
9.370117071E1,-3.383635759E0,1.209172130E0,-4.501944184E-1
9.375197607E1,-2.271130085E0,-1.501157165E0,-1.591867924E0
9.380278055E1,-1.517344594E0,-2.504321098E0,-4.726430774E-1
9.385358430E1,-1.288124204E0,-3.540318012E0,7.754706144E-1
9.390438883E1,-2.298618317E0,1.672194362E0,9.726215601E-1
9.395519420E1,-1.522536725E-1,-1.966011882E0,-2.183778882E-1
9.400599862E1,1.305685997E0,1.007134438E0,-2.055501044E-1
9.405680237E1,4.229048252E0,1.393495321E0,-5.650337338E-1
9.410760690E1,4.259438038E0,-4.130854607E-1,-4.176668227E-1
9.415841227E1,2.686048031E0,2.628781080E0,2.327328026E-1
9.420921675E1,3.013920307E0,2.916795574E-2,1.704263836E-1
9.426002045E1,2.840592384E0,2.737817526E0,2.962609231E-1
9.431082498E1,1.207645059E0,2.663599491E0,-4.068242610E-1
9.436163034E1,-1.253764033E0,2.570445299E0,-1.057223916E0
9.441243477E1,-2.040688038E0,6.780404449E-1,-2.032136202E0
9.446323852E1,9.052756429E-1,1.464200854E0,-1.501157135E-1
9.451404305E1,4.390464723E-1,3.268032968E-1,-8.107470274E-1
9.456484836E1,-7.160657048E-1,-2.482941389E0,5.201364160E-1
9.461565284E1,-2.955431700E0,-2.586021900E0,1.006829023E0
9.466645659E1,-2.175532579E0,-2.353289127E0,9.263498783E-1
9.471726107E1,-3.688448429E0,8.163973689E-1,-1.178324342E0
9.476806643E1,-1.971356869E0,-1.851478100E0,-1.482373595E0
9.481887091E1,-1.249946237E0,-3.257953882E0,-1.705790907E-1
9.486967461E1,-1.602710485E0,-1.870261550E0,8.347227573E-1
9.492047914E1,-2.359550238E0,9.744541049E-1,8.984035850E-1
9.497128446E1,2.901524492E-2,-1.316070437E0,-1.235438585E-1
9.502208893E1,1.905385256E0,1.384943485E0,-4.503471553E-1
9.507289263E1,4.550048351E0,9.906415343E-1,-6.578825116E-1
9.512369716E1,3.653477430E0,1.942494214E-1,-1.041494608E-1
9.517450253E1,3.112266779E0,1.221847177E0,4.929537475E-1
9.522530696E1,2.765763760E0,1.722589284E-1,-2.382304333E-2
9.527611071E1,2.560671806E0,3.297506332E0,-5.039490014E-2
9.532691518E1,6.433748603E-1,3.227258682E0,-6.817055345E-1
9.537772055E1,-1.780008912E0,2.102994442E0,-1.536738992E0
9.542852498E1,-2.605263591E-1,1.074174881E0,-9.064973593E-1
9.547932873E1,1.267966151E0,1.730682969E0,-4.698942602E-1
9.553013321E1,2.501419485E-1,-8.423583508E-1,-4.048390090E-1
9.558093857E1,-9.384140968E-1,-2.319386959E0,3.277195692E-1
9.563174300E1,-3.074088812E0,-2.984599590E0,8.965710402E-1
9.568254670E1,-2.677496195E0,-9.926267713E-2,5.410579443E-1
9.573335123E1,-2.726516724E0,3.281776905E-1,-1.426328301E0
9.578415654E1,-1.941119909E0,-1.920656443E0,-1.364021897E0
9.583496102E1,-1.261246920E0,-2.256317139E0,1.444653720E-1
9.588576472E1,-1.684258580E0,-2.584647417E0,7.571451664E-1
9.593656920E1,-2.565253019E0,1.503447771E0,6.846070886E-1
9.598737456E1,4.156815708E-1,-2.172325611E0,-1.629435122E-1
9.603817899E1,1.606528282E0,1.905996203E0,-5.068505406E-1
9.608898268E1,4.528058052E0,9.320002198E-1,-6.558972597E-1
9.613978722E1,3.588269472E0,-1.142284349E-1,-3.646758199E-1
9.619059253E1,2.859681368E0,1.688687205E0,3.579564989E-1
9.624139696E1,2.726822138E0,2.153236568E-1,2.733541429E-1
9.629220070E1,2.522799253E0,2.354663372E0,2.214321308E-2
9.634300518E1,7.446228266E-1,3.313999176E0,-7.365291119E-1
9.639381050E1,-1.724269152E0,2.382609844E0,-1.251473308E0
9.644461492E1,-6.814001203E-1,2.043284029E-1,-1.180156946E0
9.649541867E1,9.448279738E-1,1.048366666E0,-1.285833418E-1
9.654622315E1,4.103366435E-1,-7.070557028E-2,-2.921377122E-1
9.659702847E1,-6.700994372E-1,-3.125858068E0,4.141544402E-1
9.664783289E1,-3.288343430E0,-2.462172508E0,6.697940230E-1
9.669863659E1,-2.635042429E0,-2.868080616E0,8.782456517E-1
9.674944107E1,-3.101729631E0,4.460712075E-1,-9.433009028E-1
9.680024643E1,-2.010756493E0,-1.885838151E0,-1.553689957E0
9.685105086E1,-1.260483265E0,-3.882392406E0,-2.701472044E-1
9.690185456E1,-1.437628984E0,-2.222567797E0,9.165763259E-1
9.695265904E1,-2.100856543E0,1.189777732E0,8.376243114E-1
9.700346435E1,5.955760926E-2,-1.677844763E0,-3.863608837E-1
9.705426883E1,1.674026966E0,8.826742768E-1,-3.917058110E-1
9.710507253E1,4.273487568E0,1.296370625E0,-4.175141156E-1
9.715587701E1,3.636831760E0,7.788302749E-2,-6.994201243E-2
9.720668232E1,2.847006321E0,1.723963618E0,3.529170156E-1
9.725748675E1,2.457438469E0,-1.056765765E-1,1.067455560E-1
9.730829045E1,2.533030987E0,3.152124643E0,1.915006191E-1
9.735909492E1,8.619054556E-1,2.872203827E0,-7.325585485E-1
9.740990024E1,-1.441752195E0,2.474389553E0,-1.246891975E0
9.746070466E1,-1.219251156E0,6.678087711E-1,-1.143964171E0
9.751150836E1,1.187028885E0,1.660435557E0,-2.635805905E-1
9.756231284E1,7.310314775E-1,-5.322006941E-1,-2.782409191E-1
9.761311815E1,-7.650861740E-1,-2.147433519E0,2.594573796E-1
9.766392258E1,-3.366990089E0,-3.188317299E0,7.319477201E-1
9.771472628E1,-2.624352455E0,-3.797942698E-1,6.798729897E-1
9.776553076E1,-2.824863195E0,6.077930331E-2,-1.223068953E0
9.781633607E1,-2.035343170E0,-2.155985355E0,-1.380056620E0
9.786714050E1,-1.146254897E0,-2.896943092E0,1.226275861E-1
9.791794420E1,-1.648371339E0,-1.426022887E0,9.501729012E-1
9.796874867E1,-2.122388840E0,5.502206683E-1,5.801522136E-1
9.801955399E1,-3.130592033E-2,-1.352721214E0,-9.361234307E-2
9.807035841E1,1.718313336E0,8.455653191E-1,-3.423798978E-1
9.812116211E1,4.200796604E0,1.372726560E0,-7.617265582E-1
9.817196659E1,3.632250547E0,-9.025268257E-2,-4.532486796E-1
9.822277190E1,2.853267431E0,1.993958116E0,3.729222417E-1
9.827357628E1,2.682841063E0,1.151447073E-1,7.849387079E-2
9.832437998E1,2.560518980E0,3.126010895E0,3.970507160E-2
9.837518446E1,9.594883323E-1,3.185568571E0,-6.073349118E-1
9.842598977E1,-1.485275149E0,2.233257532E0,-1.289651275E0
9.847679420E1,-8.762603998E-1,5.509842038E-1,-1.111131191E0
9.852759784E1,1.154654026E0,1.848576546E0,-2.183778882E-1
9.857840232E1,5.413633585E-1,-3.991886973E-1,-3.570402265E-1
9.862920763E1,-5.491516590E-1,-2.245321751E0,1.919587553E-1
9.868001206E1,-3.349275589E0,-2.983377934E0,4.947862923E-1
9.873081576E1,-2.251124859E0,-1.805817246E0,9.822424054E-1
9.878162024E1,-3.039117813E0,7.496622801E-1,-9.955283403E-1
9.883242555E1,-2.111851692E0,-1.502989650E0,-1.376391530E0
9.888322992E1,-1.477639556E0,-2.650619030E0,-3.968980014E-1
9.893403362E1,-1.449845910E0,-2.512109280E0,7.377507687E-1
9.898483810E1,-2.284263372E0,1.020267606E0,8.974873424E-1
9.903564336E1,-3.562766612E-1,-1.525132895E0,-1.261399537E-1
9.908644779E1,1.671736240E0,6.279509664E-1,-4.514161348E-1
9.913725149E1,4.432002068E0,7.175928354E-1,-6.904101372E-1
9.918805596E1,3.740675926E0,-2.904578745E-1,-1.152974218E-1
9.923886123E1,2.974520683E0,1.816812515E0,5.300627351E-1
9.928966565E1,2.428117752E0,-2.281514555E-1,5.131116882E-2
9.934046935E1,2.556395769E0,2.945505381E0,2.498365343E-1
9.939127378E1,8.733588457E-1,2.910839796E0,-5.013529062E-1
9.944207909E1,-1.516122937E0,2.353899956E0,-1.121057391E0
9.949288352E1,-8.686248064E-1,4.593571424E-1,-1.547581553E0
9.954368716E1,1.373948216E0,1.608666301E0,-1.233911440E-1
9.959449164E1,6.829272509E-1,-1.435491070E-2,-3.738385141E-1
9.964529696E1,-4.970769584E-1,-2.678107023E0,2.454078794E-1
9.969610133E1,-3.131966591E0,-2.420176744E0,8.586985469E-1
9.974690503E1,-2.532725334E0,-1.933026195E0,1.041494608E0
9.979770946E1,-2.964288950E0,5.001311898E-1,-1.223679781E0
9.984851477E1,-2.079476833E0,-1.851172566E0,-1.659824729E0
9.989931920E1,-1.317597508E0,-2.648939133E0,-2.003578991E-1
9.995012284E1,-1.472447276E0,-2.348096848E0,8.040276766E-1
1.000009273E2,-2.460798264E0,8.292251825E-1,8.611419201E-1
1.000517326E2,-3.185568452E-1,-1.418692708E0,2.434226274E-1
1.001025370E2,1.079672500E-1,8.020424247E-1,-4.555393457E-1
1.001533407E2,3.389286041E0,2.570139766E-1,-7.426375747E-1
1.002041451E2,4.123524189E0,5.192201585E-2,-4.674508572E-1
1.002549504E2,2.858459711E0,1.866749167E0,1.194206402E-1
1.003057548E2,2.635958672E0,3.061871827E-1,5.459447503E-1
1.003565585E2,2.406432867E0,5.502206683E-1,7.452336699E-2
1.004073629E2,1.812231064E0,3.015141964E0,-1.985253543E-1
1.004581683E2,-7.696675509E-2,2.927943707E0,-8.228112459E-1
1.005089726E2,-2.057486296E0,1.465117097E0,-1.620425105E0
1.005597763E2,3.393256664E-1,8.186880350E-1,-3.932329118E-1
1.006105808E2,1.511999726E0,1.611109614E0,-5.013529062E-1
1.006613861E2,5.543438718E-2,-1.343558550E0,4.524851143E-1
1.007121904E2,-1.732668281E0,-2.686964273E0,5.806103349E-1
1.007629941E2,-3.009033680E0,-3.813366652E0,1.160304427E0
1.008137986E2,-2.672151327E0,4.078932703E-1,7.559234649E-2
1.008646038E2,-2.594726562E0,-6.856760383E-1,-1.577665806E0
1.009154083E2,-1.776191115E0,-2.034732103E0,-9.614735842E-1
1.009662119E2,-1.254222155E0,-3.611329079E0,1.954711229E-1
1.010170164E2,-2.057944298E0,2.057028115E-1,1.058140159E0
1.010678216E2,-1.345085621E0,-6.704048812E-2,4.727957845E-1
1.011186261E2,3.417690396E-1,-6.911736727E-1,-5.099047422E-1
1.011694297E2,2.460798264E0,9.678874612E-1,-2.967190444E-1
1.012202341E2,4.577994823E0,4.671454430E-1,-2.919849753E-1
1.012710395E2,2.959554911E0,1.321109891E0,-2.811424434E-1
1.013218438E2,2.813562393E0,1.000262380E0,5.966450572E-1
1.013726475E2,2.682077646E0,1.115712523E0,4.198047817E-1
1.014234520E2,2.185153246E0,2.521119356E0,-2.596100792E-3
1.014742572E2,2.794626355E-1,2.700861216E0,-7.605048418E-1
1.015250616E2,-1.736333370E0,1.717244387E0,-1.712968469E0
1.015758653E2,2.336490713E-2,7.183563709E-1,-6.957550049E-1
1.016266697E2,1.225206852E0,1.320651770E0,-4.648547769E-1
1.016774750E2,3.836120665E-1,-8.858812451E-1,1.867665499E-1
1.017282794E2,-1.972883940E0,-3.150291920E0,4.978405237E-1
1.017790830E2,-3.257495642E0,-4.161244392E0,1.243685007E0
1.018298875E2,-3.037590742E0,8.448017836E-1,2.635805905E-1
1.018806928E2,-2.724225998E0,-2.214321308E-2,-1.567892194E0
1.019314972E2,-1.632642031E0,-2.348402262E0,-1.181225896E0
1.019823009E2,-1.356844425E0,-2.690476656E0,2.102841735E-1
1.020331053E2,-1.933789730E0,4.789042473E-1,1.070815206E0
1.020839105E2,-7.988355160E-1,-1.508945465E0,5.132644176E-1
1.021347150E2,-1.708845198E-1,1.798945218E-1,-5.723638535E-1
1.021855186E2,2.607096195E0,7.979192138E-1,-3.901786804E-1
1.022363230E2,4.423908710E0,4.288147688E-1,-4.608842432E-1
1.022871283E2,3.149528503E0,1.140604496E0,-4.601207078E-1
1.023379327E2,2.718423128E0,8.270871639E-1,2.457133085E-1
1.023887364E2,2.641303539E0,1.383569002E0,8.063183725E-2
1.024395408E2,2.395437479E0,3.449454546E0,-1.514901221E-1
1.024903461E2,3.968980014E-1,3.253372431E0,-7.881456614E-1
1.025411504E2,-1.659366608E0,1.792378545E0,-1.558118701E0
1.025919541E2,-4.176668227E-1,-3.067980409E-1,-6.783458591E-1
1.026427586E2,9.982771277E-1,9.582666159E-1,-1.039967462E-1
1.026935638E2,-2.029540092E-1,-1.590646267E0,6.551336497E-2
1.027443682E2,-1.495354056E0,-3.042935610E0,5.966450572E-1
1.027951719E2,-3.367753744E0,-4.217442036E0,8.096780181E-1
1.028459763E2,-2.555326700E0,-5.998520255E-1,6.253548861E-1
1.028967816E2,-2.877090693E0,2.046338283E-2,-1.262163162E0
1.029475860E2,-1.692505002E0,-2.383220673E0,-1.213448048E0
1.029983896E2,-1.186876178E0,-3.956763029E0,6.108472589E-3
1.030491940E2,-1.910272121E0,-1.267508119E-1,1.118308663E0
1.030999993E2,-1.311336398E0,-2.292204350E-1,4.535540938E-1
1.031508037E2,2.422009408E-1,-8.699992299E-1,-5.163186193E-1
1.032016073E2,3.351718903E0,1.139688253E0,1.734806150E-1
