,acc_Acceleration x (m/s^2),acc_Acceleration y (m/s^2),acc_Acceleration z (m/s^2),gyr_Gyroscope x (rad/s),gyr_Gyroscope y (rad/s),gyr_Gyroscope z (rad/s),mag_Magnetic field x (µT),mag_Magnetic field y (µT),mag_Magnetic field z (µT),lin_acc_Linear Acceleration x (m/s^2),lin_acc_Linear Acceleration y (m/s^2),lin_acc_Linear Acceleration z (m/s^2)
1970-01-01 00:00:00.000,2.911766052,3.669692516000001,7.831708431,0.2015796006,-0.3649812340999999,-0.7146912812999999,,,,,,
1970-01-01 00:00:00.100,2.9944679735,4.0645084385,7.5121173855,0.1186570786,-0.5118136406,-0.3488701433,1.3847000005,-45.335197445,-28.737099645,-0.03887832165000005,0.19670295715,-0.2586669923
1970-01-01 00:00:00.200,3.3068808315,3.6862927675,6.632156610499999,-0.008475504815,-1.91500622,-0.17264070359999995,0.8478999436500001,-45.54870033,-28.127099989999998,-0.5883368254,-0.34288942812,-0.37982988356499997
1970-01-01 00:00:00.300,5.5823056695,3.5977584125,6.7926254275,-0.91168950495,-1.19405367955,0.08101361617499996,-0.7869000138500001,-45.36569786,-27.468298915,0.91304755205,0.27261912825,0.083892822265
1970-01-01 00:00:00.400,4.64865613,1.8296120765000001,7.6387870315,-2.6320645805,-0.25289076580000003,-0.4175141118499999,-1.787299931,-44.18840027,-28.42599964,-0.19634711724999998,-0.4868045449,0.2629160881
1970-01-01 00:00:00.500,2.8124638795,-2.8974090815499998,6.7770717145,-1.6206541065,-0.39544724441,0.35406232625000006,-3.165899873,-41.101799015,-31.04289913,-2.7326896190000003,-3.6672782895,-0.6244556905
1970-01-01 00:00:00.600,5.716453313500001,-5.5860445499999996,5.716453314,-2.8578488825,-0.3224509861425,1.4716838,-5.056900024499999,-35.58739853,-34.99569893,0.5289702413949999,-3.7253085375,-1.5389845375
1970-01-01 00:00:00.700,9.099306344,-5.9056358335,8.755786895,-2.467288375,0.21616357565,0.8270871934999999,-6.581899881,-26.51059914,-40.28439903,4.079672337,-1.63019561755,2.5548760890000004
1970-01-01 00:00:00.800,10.929666045000001,-3.5654553174999997,9.8964152335,-1.13984096055,-1.03958567985,0.46882525829999994,-8.369199753,-15.512300015000001,-44.38359833,5.5043120385,2.4015487435000002,4.9860835075
1970-01-01 00:00:00.900,8.625228407,-2.1146570445,8.862267253999999,0.17775654795,-1.481075525,-0.33504970928499994,-11.406999585,-5.4228999615,-45.676797865,2.4180805683,3.560051918,4.1694500445000005
1970-01-01 00:00:01.000,6.416652918,-4.297958254999999,5.770291805,0.06894938275,-0.6903337538500001,-1.04218176025,-15.152400020000002,1.9764000177,-44.908199315000005,-0.9418227670499999,0.85207533855,1.815225124
1970-01-01 00:00:01.100,9.1280202865,-3.0171997545,4.6055853365,-0.1548497751,-0.2786227092,-0.9205468296999999,-18.964899064999997,4.8616998195,-42.5230999,0.119312763215,0.26996815215,0.353113413
1970-01-01 00:00:01.200,6.1556859015,-3.9161533115,2.27363020195,-1.1689325570000002,1.18611270185,-0.7920398117,-22.27719879,4.361500025,-40.144098279999994,-1.8484539985000001,-0.67164838315,-1.6080883739999998
1970-01-01 00:00:01.300,7.953742265499999,-2.757429004,5.69252491,0.0,0.49860407409999996,-0.11224318667500001,-23.15559864,3.0865999459999998,-39.491399765,-0.29956436157,1.5487212540000002,2.0821657185
1970-01-01 00:00:01.400,9.974331854999999,-4.6440199615,5.4638609885,-0.11323580894999999,-0.60573141275,-0.096819289,-22.368699075000002,2.1349999905,-40.040399550000004,2.408361435,-1.111353278,1.2414433958500002
1970-01-01 00:00:01.500,7.9764740465,-5.9536418915,2.02956224965,-1.2724711893,0.6233696341499999,0.10789089091000006,-21.18529987,2.19599998,-41.21159935,0.061662673925,-1.8713395595000002,-2.39793908605
1970-01-01 00:00:01.600,7.8195948605000005,-3.154787004,1.5877873299499998,-2.1087974910000002,-0.85564432295,-0.008933641049999996,-19.61759949,4.0808999539999995,-42.5291996,-0.7035212515,0.12189292949999997,-3.018238783
1970-01-01 00:00:01.700,7.5191459655,-4.1781675815,1.7913268205000001,-1.2598724959,-1.16312950855,1.7552695870000001,-19.922599795,7.820199728,-41.58370018,0.20353221885,0.8286850452,0.8058273791999999
1970-01-01 00:00:01.800,7.452147245500001,-3.864707589,1.1473584175,-0.79998083415,1.600114405,2.1228469311000002,-20.166599275000003,14.060500144999999,-39.16199875,-0.2038609979999999,3.8262102605,0.5233355160000001
1970-01-01 00:00:01.900,5.565705538,-7.141080141,-0.36221353719999994,-1.0770764348500002,-1.2465865316,0.85091023145,-18.116999625,21.89900017,-36.69149971,-0.0018897056499999898,0.09987521199999994,-1.3253225683499998
1970-01-01 00:00:02.000,6.253941237,-9.845268728,2.4496521950000005,-1.022863790615,-2.868615091,2.715903342,-16.18939924,29.755799295000003,-32.38489914,1.6792565584999999,0.44967436799999994,2.1438624259999997
1970-01-01 00:00:02.100,5.0316574575,-14.814114570000001,2.5383361575,2.840134382,1.941807032,-0.07383615897899999,-12.395199774999998,36.33160019,-28.523599625000003,2.9274978640000002,-6.2247357365000004,6.061807752
1970-01-01 00:00:02.200,8.8443212505,-15.291632175,-5.473581672,1.3844852967499999,1.3224079610000001,-0.71201881765,-7.2407000065,38.71059799,-28.554099085,6.0113286975,-6.459932327,-7.5539889335
1970-01-01 00:00:02.300,1.348505140975,-9.1855974185,-0.7117153409999999,1.5422366259999998,2.31450015315,-0.12171131743500001,-2.537599862,37.789499285000005,-29.889999385,-0.8527764083499999,-0.7798120975,-2.239794731
1970-01-01 00:00:02.400,2.4927230475,-3.4229328635,-1.935045838,-0.6164212376,1.682578802,-0.9147437511000001,3.598999858,34.544298170000005,-33.299898145,0.9519511461,5.047397136500001,-6.363665819
1970-01-01 00:00:02.500,0.0004486590999999984,-5.176722288000001,3.261267662,-0.572898373,2.018315673,-0.83258479835,9.35739994,31.0977993,-36.770799635,-1.48613405245,3.6124830245,-2.610502601
1970-01-01 00:00:02.600,5.678168058500001,-11.3786191955,11.512467865,0.4656946957,0.7090409844500001,-1.5057384969999998,13.755499364999999,30.44509888,-36.31329918,2.697903514,-2.70536232,5.4312062265000005
1970-01-01 00:00:02.700,0.3200399875000002,-11.792727468999999,-8.9702432764,-1.316452205,0.8165500761,-0.04718795419999999,15.963699815,31.95789909,-34.275897979999996,-2.498205304,-3.573105335,-9.093080996
1970-01-01 00:00:02.800,4.898855924249999,-14.54596853,-0.79785678899,-2.118341982,0.21425467914,0.2732777894,16.469999315000003,35.203098295000004,-30.585399629999998,3.2521748545000007,-4.3334913255,-1.93864047525
1970-01-01 00:00:02.900,0.13339984449999998,-6.687340975,4.357928157,-2.511498451,0.1319430023,-0.06963659078,16.323599815,38.66180038500001,-25.302799225,-1.5138695241,2.8296597005,2.3649312255
1970-01-01 00:00:03.000,3.2493035795000003,-7.429415226,1.5686447620000001,-0.6956023276000001,-2.6670354605,0.66276928785,15.445199965,41.589797974999996,-19.526099205,0.7789645195,2.1770713329999998,1.8746622205
1970-01-01 00:00:03.100,3.4731820824999997,-9.2549891495,-0.6746264100000001,-0.9301677050499999,-2.1478153465,0.175160445275,11.126399995,43.255098345,-14.145899775,1.379604757,0.7804389,0.1474313734999999
1970-01-01 00:00:03.200,5.4411290885,-13.07468224,10.187292815,0.1411057710000001,3.152659178,0.8675558269999999,10.96169996,44.963098529999996,-8.387499809000001,1.8458623885,-4.2950105665,12.286567215
1970-01-01 00:00:03.300,4.728815555500001,-12.31107235,-2.8316064968599997,3.482974768,0.41461259149999996,-0.22036315128,11.13249969,45.292497635000004,-6.4049999715,2.9777976275,-2.5870361324999998,-3.6608723405
1970-01-01 00:00:03.400,5.6410794255,-17.357834335,3.30673124665,2.443312705,0.03710901700000013,-1.0253834573499998,11.84009981,44.938697815,-9.613599778000001,3.6179440021000002,-7.626804828499999,-0.27079689504000004
1970-01-01 00:00:03.500,1.071834922,-5.3502020240000006,-1.17861473575,-0.2861819416,-0.668648701405,-1.2611705364999999,9.583099842,43.01719856,-13.767699715,-1.5490580795000004,1.1945786475000004,-5.6743667124999995
1970-01-01 00:00:03.600,4.093222022,0.95578309142,8.260173677000001,-0.639328018,0.55365666745,0.89176067695,7.5945000645,42.626798629999996,-19.904299735000002,-1.994578123,9.352793694999999,-1.6507952214999997
1970-01-01 00:00:03.700,0.28549364215000006,-7.570741417,-4.46680176,0.29412295671500005,1.21459346615,-1.3805911545,4.9287998675,42.931798935,-24.210899355000002,-4.195270419,1.2332768438,-7.11247921115
1970-01-01 00:00:03.800,8.148907186499999,-27.796224594999998,-3.928267002,-5.662172198,0.294504702,1.3748644589999999,1.6957999464999998,44.32869911,-24.387799264999998,2.360577583,-22.66007614,-8.616549014
1970-01-01 00:00:03.900,-0.27113676050000013,-13.807483672499998,7.587490796999999,-2.372607112,-0.67483350635,-0.32779590785,0.15249999610499995,46.067199705,-15.359799385,1.2903990735000002,-5.631365299,14.760825397000001
1970-01-01 00:00:04.000,2.43065923149,-1.4946167469999998,4.919194521,2.16904231155,-2.2967093585,0.54525752735,0.073199998585,49.056198124999995,-4.922699809,-0.6585860255000004,7.572667601,8.01086676085
1970-01-01 00:00:04.100,4.525425910999999,-0.27233314499999994,2.14920342,2.330916822,0.9454388918000001,-0.9835404157000001,0.7014999985499999,52.26479912,1.51889999185,1.2046803830000001,9.818677427499999,4.369234322
1970-01-01 00:00:04.200,10.832756756,-40.507646565,5.538038373,3.2588700055000004,2.8314297794999996,-2.6019039155000003,0.5489999801,53.765399935,3.5440998075000003,8.055527211000001,-27.601574420000002,2.8096063135
1970-01-01 00:00:04.300,5.99177742,-4.122085692,-2.360070944,0.8308286368,1.1826002821,-0.54556295275,-0.5428999737,53.015098574999996,-5.3985000845,1.0296757221,-0.2926983835000003,-6.568268299
1970-01-01 00:00:04.400,-2.515604377,0.744018316,-6.4048383235,-1.7186187505,-0.09155070799999998,1.10784786915,-2.1654999855,51.9109993,-17.586299895,-6.084091425,7.720714330500001,-11.092711925
1970-01-01 00:00:04.500,-0.15987044575,-7.785048606,16.087695122,0.702092528,1.2063471075,-0.17035001515,-3.3183999060000002,50.593399045,-23.997400284999998,-0.8320611715000003,4.7856769545,20.6823864005
1970-01-01 00:00:04.600,-1.677667797,-14.175978898,-10.874630928999999,1.13739760975,-4.933202505000001,0.30198764794999994,-3.9466998575,48.842699055,-28.474799155,-5.833493829,-1.2330570225000002,-17.52910423
1970-01-01 00:00:04.700,26.34751892,-27.132963179999997,23.374137667899998,-5.668662548,-2.08123293505,2.3755086362,-5.7217998505,48.28759956,-26.31539917,16.7610950465,-22.32617998,-5.647259712
1970-01-01 00:00:04.800,-0.9762716290000002,-5.692524848,6.958926677500001,-1.6982317569999998,0.604891483,0.31069217625,-5.855999946500001,50.947198865000004,-18.281700129999997,-0.7841072080000004,2.01681590085,6.6510739325
1970-01-01 00:00:04.900,4.092025757,0.4471588135,-2.218744755,2.1372018455000004,0.593667171985,0.08200624585,-7.3565998075,51.01429939,-10.1564998605,1.1445749997999999,9.1704843045,1.2189741135
1970-01-01 00:00:05.000,8.679216383,-7.2678996115375,3.0877881346000002,2.4728624220000004,3.2429881094999997,-2.0895557703,-7.57619977,53.143198014999996,-4.2394998075,4.0477874275,4.3188681585,2.161078453
1970-01-01 00:00:05.100,7.886593819,-35.130375385,3.807280004,2.522341013,-0.5289937407,-1.6712781190000001,-7.1674997805,53.631198885,-3.4037997725,6.32927250925,-27.42011261,-0.9945560694000002
1970-01-01 00:00:05.200,1.432253897,0.40289152415,-3.3236306905,-1.3198881745,0.6951441987000001,0.7949413359499999,-9.5342998505,50.806900025000004,-10.7847995745,-3.7222690585000002,7.217570781999999,-7.311791658500001
1970-01-01 00:00:05.300,0.8445168730000001,-1.14257282,-2.416302204,0.1856975555,0.307408876705,0.13744062199999996,-10.992199894999999,48.42180061,-18.41589928,-3.9463722705,6.9042110445,-6.190453529499999
1970-01-01 00:00:05.400,-0.669691265,-13.220793725,-5.669942856,-0.56953874235,-1.7088452578,0.98292958735,-12.450099945,46.585699085,-22.771299364999997,-1.5271713729999996,-3.89130592355,4.190035819999999
1970-01-01 00:00:05.500,7.757531344000001,-23.326282499999998,0.8826525209999998,-4.236073017,0.5063923895,1.86361867195,-12.511099815,45.957399365,-23.22879982,1.2316060065000007,-14.77916288,-2.5785710815000007
1970-01-01 00:00:05.600,2.3336001635,-10.5143620975,3.4265221357,-0.9184088407500001,-1.21879300475,0.9409338532,-9.454999445,48.00699806,-16.43949938,2.6764194964999994,-4.243008613550001,8.0539131155
1970-01-01 00:00:05.700,6.3987070345,4.907230734999999,1.9637596015,0.7113316653,0.28602922709,-0.7770740837,-5.2642998695,47.76299858,-8.747399569999999,3.3378033040000004,13.220728399999999,3.5571162705
1970-01-01 00:00:05.800,-1.115055386,-1.9936699865000003,2.8818557855,3.3198020460000004,3.7246410845,-0.13003410935150003,-2.6534999605,48.85490036,-2.4643999935,-3.4178858995,8.708112955,3.682730675
1970-01-01 00:00:05.900,2.1480068560000003,-40.618911745,-2.4629622100000006,2.9986492394999997,-0.9100860949999999,-1.9473047255,-0.17689999194,48.921998975,-0.4757999705,0.6574451924999999,-27.634360315000002,0.702688097775
1970-01-01 00:00:06.000,2.6161028447000003,-2.4797120095,-1.20134651655,-0.66895410395,-0.5737382821015001,0.48134765005,-0.15250000354999999,46.469799045,-7.2223997115000005,-0.679336667,4.3466272355,-5.6799330715
1970-01-01 00:00:06.100,-0.21969103810000007,2.0008484273,-3.436242938,-2.691545725,-0.4088095427,2.012283564,-1.3114999532,44.19449806,-15.7013998,-3.9228287935,10.056745054499999,-7.113998651499999
1970-01-01 00:00:06.200,-1.1606686115000002,-5.021039247499999,3.803541422,3.422119141,-1.7406855819999998,-1.2574290335,-2.1166999935,42.05340004,-22.795699120000002,-3.5343825825,1.7663075924999996,21.649307253
1970-01-01 00:00:06.300,7.2234828922,-28.297670365000002,-6.4935222265,-2.9501632449999997,-3.7301387784999998,2.84059253315,-4.379799962,40.125799175,-27.334098814999997,-0.9323847294999998,-15.070321081,-11.2739281675
1970-01-01 00:00:06.400,15.7621207215,-15.242579222500002,13.372738003,-3.7305204275,-0.18355956655,1.5019207448,-5.0569000245,41.717899325,-22.917699815,12.815911295,-10.75146770385,5.3954646585
1970-01-01 00:00:06.500,-1.3485051390000002,-0.81460653995,2.41136693975,-0.5480064152499999,0.9877400396300001,1.02744507765,-4.4651999475,43.46249962,-15.286599635,-1.1548867824,7.5435507295,4.0659377575
1970-01-01 00:00:06.600,1.6190436634,2.3180469276,0.7595716713,2.7987494470000005,-0.4844019114499999,-0.63467031715,-3.489199877,45.103399275,-8.8266999695,0.548835099,12.884504320000001,2.4318494795000003
1970-01-01 00:00:06.700,11.079217435,-35.65829134,2.0546867845000003,2.8489153385,1.86270231,-2.6734493375,-0.39649999232999994,46.945598605,-5.1666998865,8.725693225,-24.894323348999997,-1.0982990265000003
1970-01-01 00:00:06.800,4.6607699395,-9.839286327,0.309421897,1.2263522495635,0.04642440379999996,-1.6476078035000001,-1.25659996295,45.194898605000006,-9.491599798,0.654749751,-5.4698407625,-1.1246323585000002
1970-01-01 00:00:06.900,-2.032104671,-0.3764209155,-2.356481671,-1.70067513,-0.32855946198,1.3815837948,-3.6661000254999996,42.74880028,-17.76319933,-7.056226730500001,7.066163063,-4.9959545135
1970-01-01 00:00:07.000,1.1868400274,0.35249280900000013,-6.2313590045,2.93244856595,0.8079218564499999,-0.20890975,-5.9352998735,41.382398605000006,-23.942499159999997,0.07572531700000029,8.2259180525,4.906486513000001
1970-01-01 00:00:07.100,-2.1924237015,-17.209480164000002,-6.647859335,-1.5830106437,-3.8077163695,0.7172109782,-8.0458996295,39.406000135,-27.718400000000003,-8.3160357475,-7.0324413775,-9.0740857125
1970-01-01 00:00:07.200,19.882262705,-26.73919487,30.670005800500004,-4.823402643,-0.09277224549999996,2.4693499805,-8.0031998155,40.290500640000005,-26.059199335000002,12.627173901,-21.213619235,-4.7759181260000005
1970-01-01 00:00:07.300,-0.5753242375000001,-2.7131619455,6.3856957545,-1.2240615784500002,0.17958909265,0.71950173385,-4.7702000145,42.315698625,-19.37359905,-1.6069259050000002,4.84587717165,7.970014572
1970-01-01 00:00:07.400,3.1787153485,1.9015461802,1.00483597825,1.5730080605,0.09376508000000006,-0.47989687324999997,-2.48269999,43.95659828,-12.340300079999999,2.9037321805,11.4694175725,2.8004802465000003
1970-01-01 00:00:07.500,9.160472634000001,-12.0883901125,6.082704544,3.027740717,3.33179009,-2.59472641365,0.09149998405000004,46.59180069,-6.258599758500001,5.5546453595,0.9861717219999995,4.208258271
1970-01-01 00:00:07.600,6.9421765805,-35.934812545,2.145614207,2.628857553,0.279691673815,-1.8362831474999999,0.76250000305,46.811399460000004,-6.325699806,4.20747661603,-30.32657528,-4.1291247605
1970-01-01 00:00:07.700,-1.19177526225,-1.8499509695,-2.6569304464999997,-0.8829033521499999,-0.15584240849999997,0.81242687635,-0.5368000119,43.15749931,-13.47489977,-5.559484482,4.801968336,-6.2533278464999995
1970-01-01 00:00:07.800,-0.7667500825000001,3.6635609865,-3.45059979,-0.23968121425,0.18439950982499997,1.2270394713000001,-2.934100032,41.41289902,-20.922999385,-4.781907439,12.27855778,-6.4599561695
1970-01-01 00:00:07.900,0.9402297734999998,-5.034199834,-0.48664033400000006,1.4724473955000001,-2.874876261,-1.23543862275,-4.361500025,39.44259834,-26.54719925,-3.0757980325,1.3761439325,12.578617096999999
1970-01-01 00:00:08.000,8.68041291161,-35.94079399,-13.459178925,-5.0438421964,0.28129516545,3.4493018389999994,-6.0877997875,38.307998655000006,-28.27349949,2.1105861655,-20.949414255,-9.209539414999998
1970-01-01 00:00:08.100,10.43764215855,-10.0079808255,21.164367435499997,-1.7012096343,-1.109298587,0.74874604859,-3.910099864,40.59549904,-23.094599725000002,13.34941124835,-8.76660823725,33.8469533925
1970-01-01 00:00:08.200,1.0504490139999998,2.1337996720000003,7.3313096125,1.08341398815,0.58740597965,0.39155308899999997,-2.1898999215,42.63290024,-15.048699375,-0.20026731500000006,10.0271165395,9.2207274415
1970-01-01 00:00:08.300,3.303142071,2.1768703907,3.306880951,3.1628142595,0.27060544499999994,-0.7338566489600001,-0.21349996305000002,44.353099825,-6.935699701000001,1.522933364,11.58309078,1.865698456595
1970-01-01 00:00:08.400,14.328072545,-39.001662255,2.24491633495,2.9080146549999997,1.0449305775000002,-4.238363623500001,2.7327998875,46.48810005,-3.3305999039999996,11.908296585,-28.47866583,-2.85240840895
1970-01-01 00:00:08.500,3.364308715,-7.415207773250001,-1.1126624943999999,-0.389796883,1.5911807121000001,-0.28259322045,1.0613999514,44.505598065,-8.198399784,-1.6298270224999998,-3.6379568555000006,-4.3939778805
1970-01-01 00:00:08.600,-2.1888344880000004,1.2743276061,-4.276572227,-2.0913882255000003,-0.008628211950000006,1.823302746,-2.14109993,42.5291996,-16.68959951,-6.7521083355,9.0020318025,-7.598997831
1970-01-01 00:00:08.700,2.194816649,-5.4722356805,1.5255739685,2.9033570290000004,-0.16836476300000003,-1.2491062880000001,-4.2883000375,41.74839973,-22.600499149999997,0.8444967269999997,4.6112098674999995,19.24934292
1970-01-01 00:00:08.800,-3.2614173295,-17.706140042999998,-6.410820246,-1.15809005515,-2.8493734596,2.2261565274049997,-6.8197999,40.217300415,-26.43739891,-10.33433247,-9.203751564500001,-12.81244612
1970-01-01 00:00:08.900,27.44537735,-28.308438305,29.271997331,-4.3781712354,-2.5451714099,1.46458263675,-7.69209981,41.303098680000005,-24.595199585,18.804694175999998,-24.403611185000003,0.8067522050000001
1970-01-01 00:00:09.000,0.3644567730000001,-0.8397312165000006,9.914511204,-1.15014897285,1.6737214328999999,1.17045971765,-6.3683998585,43.279499055,-15.969799515,0.32553935049999994,6.02299022575,7.9244129655
1970-01-01 00:00:09.100,4.009473443,2.901148021,1.8967606282775,2.7829437255,0.22135578095000008,-0.37536565398999994,-5.691299915,43.858999255,-7.1674997805,2.424557328,12.01578474,4.0170285705
1970-01-01 00:00:09.200,8.195566953,-12.563664796,6.732655407,3.489617586,2.340919495,-2.739039183,-3.0133999585,46.512498855000004,-0.45140001155000004,4.47899109135,-0.03264903999999991,5.6495454315
1970-01-01 00:00:09.300,7.3586772705,-37.07080555,-0.2041376829,3.227793336,1.1951227189999998,-3.8146648405,-3.0195000175,46.890699385000005,-1.2504999936,5.124779226999999,-34.24443245,-3.8123146295000003
1970-01-01 00:00:09.400,-0.005383849000000218,1.4238789675999999,-2.29067901535,-1.23192617305,1.2794959545,0.30389651654999994,-7.2955999375000005,44.292099,-9.5403997885,-5.1278645995000005,8.014406204,-6.167159319
1970-01-01 00:00:09.500,-1.3520942926000001,3.294916749,-2.2043877839999997,-1.6104988454,-1.7414492365,2.0191556215,-10.96779966,42.63289833,-17.970599174999997,-5.6809380055,11.5259594915,-5.5631029605
1970-01-01 00:00:09.600,4.372135803,-5.5417773725,0.20518469800000005,2.5024885236000003,-0.9861365554999997,-1.14747661355,-14.23739958,41.742298125000005,-23.22879982,-1.2092106345,3.328657627,11.12338257
1970-01-01 00:00:09.700,6.84048163715,-33.61018467,-4.06346149765,-1.18870879699,-3.13234841825,2.5243262348499997,-16.909199715,42.5352993,-24.357299804999997,-0.3281438350000001,-24.43221569,-8.756195068
1970-01-01 00:00:09.800,21.1284742345,-15.62453413,22.071695088000002,-4.22484855355,-0.649788796815,2.015490616475,-14.993799684999999,45.914697645000004,-16.707899570000002,16.0896580235,-9.441615103499998,-0.9987068175
1970-01-01 00:00:09.900,0.1561317445000001,0.20772689599999994,4.32427927875,-0.6275692284,1.6626499295000001,0.6393280329,-13.89579964,47.5189991,-6.825899601,0.34085392949999993,7.6271498205,5.2565300465
1970-01-01 00:00:10.000,1.3100704253,1.60827583085,2.4819552895,2.9637544755,0.39430190620000005,0.03451287750000001,-12.004799845,49.580799105,2.305799909105,-1.3736137150449999,10.711036204500001,4.5726742745
1970-01-01 00:00:10.100,16.438541885,-36.54782295,2.649602473,3.4741173985,2.5576175450000003,-3.8455889225,-8.3752999305,52.496599195,6.307399988,11.145404575,-18.936708928399998,1.26998925215
1970-01-01 00:00:10.200,5.044967413,-10.1156581635,0.39556348325,1.0982270245000003,-0.023059487000000045,-0.8757258803,-11.3703999535,51.325399399999995,-0.5124000310000001,0.49826216700000003,-9.7584075935,-1.6395590305
1970-01-01 00:00:10.300,-2.27632212615,1.3508979079999999,-4.093371868,-2.24272573,1.2685770840500001,1.6898325685,-16.01249981,50.568998335,-12.016999722000001,-6.297840357,9.223434447999999,-7.7421991825
1970-01-01 00:00:10.400,1.7662023306499999,-2.0355441570000004,19.901405812,1.419303596,0.52036550645,-0.123314798,-18.220700264999998,50.812999725,-21.045000074999997,-3.4501971005,9.9103221875,5.2705683715000005
1970-01-01 00:00:10.500,-5.717799187,-17.07892122955,-13.06047487,1.1252570149999999,-4.2495881319999995,-0.18821734200000007,-21.563499450000002,49.30629921,-26.791199685,-9.3397650695,-1.3307616709999999,-15.599185940000002
1970-01-01 00:00:10.600,31.259237289999998,-37.426439285,-2.521586418,-5.1358511445,-3.4272349475,4.632741928,-21.862400055,51.935400009999995,-25.375999450000002,19.247853042,-27.098599435,-11.4006595635
1970-01-01 00:00:10.700,1.6799110769999999,-3.1188947261,5.627918481,-1.9729602935,1.9798322915,0.9700254647000001,-16.83599949,57.803598405,-17.2324996,6.7693737464999995,5.9089617725,3.6877548705
1970-01-01 00:00:10.800,4.228566289,2.696262479,4.056133476709,1.5612492563,0.66811421525,-0.66223477585,-15.469599725,60.383899685,-6.6489999295,3.2212764025,13.15383291,6.618972062999999
1970-01-01 00:00:10.900,5.2076792105,-6.9696942570000004,0.9222836495,3.5680351260000003,2.8419668675,-2.0193846522000003,-14.109299660000001,64.58069992,2.4887999295000003,0.6115674974999998,4.984021664,3.10494560025
1970-01-01 00:00:11.000,13.4002552035,-42.066122055,6.840481996,3.384552002,0.2935121060000001,-3.3632487060000003,-14.450899605,65.074796675,0.9516000150000002,10.639259339999999,-30.43496132,7.527297734
1970-01-01 00:00:11.100,0.34755754500000013,0.7619644401000001,-3.406332612,-1.7145718935,2.2722754475,0.9713235199499999,-22.374799725,57.7852993,-13.0052003855,-4.415000319000001,6.7497577675,-7.234006405
1970-01-01 00:00:11.200,-3.9127135275,4.143621087,-6.913612604000001,-1.3205754460499999,-2.2529574635,1.4290771783,-26.96199989,51.319299695,-29.719198225,-7.819001913,11.4597563755,-9.8879985815
1970-01-01 00:00:11.300,1.7171493765,-2.34556442485,10.402796744500002,2.8658663035,-1.1145672800000002,-0.98896172635,-29.084799765,44.2981987,-41.99239922,-1.7851359844999999,7.222496986,11.319991115
1970-01-01 00:00:11.400,4.4822053895,-27.681218145,-7.578069209000001,-4.195833564,-1.03966200375,2.8750290571500003,-30.646399494999997,35.947299959999995,-46.988298415,-2.949798584,-17.333586452604997,-10.6699290275
1970-01-01 00:00:11.500,20.522791863,-26.892335414,-3.5331518634999997,-2.656269312,-1.9692952035000002,1.879958749,-30.591499329999998,37.5394001,-40.522300720000004,19.51779175,-15.578227044,-2.3058359625000007
1970-01-01 00:00:11.600,2.3994028565,2.6878874899999996,3.6071801485,0.36513397119999996,1.21085194485,0.315960765,-31.488199235,40.1928997,-30.26210022,2.1956524845,10.28234196,7.243334770000001
1970-01-01 00:00:11.700,1.7913268804,1.4454143645,4.150799513,3.244973302,1.1593881247000002,-0.72660282255,-31.317399025,41.888698575,-23.50329971,0.36741089800000004,11.0013361,3.42890250675
1970-01-01 00:00:11.800,17.00220108,-40.99473333500001,1.41894379275,3.6752389670000003,0.31023407000000014,-4.9378601315,-27.24259949,41.852100375000006,-21.246299745,14.415329933,-19.2288913738,2.7936140295
1970-01-01 00:00:11.900,4.828267336,-9.071789263000001,-0.8063812254,-0.76623147735,4.055567622,0.17348062990000002,-22.2894001,29.914399145,-28.316199304999998,0.9226486685,-9.6945438395,-2.8817248345
1970-01-01 00:00:12.000,-1.3867902755000001,3.4948670267499997,-9.791280747,-2.4183443785,-0.6581879260000001,0.8682430385000001,-14.920599935,15.61599922,-38.173799515,-6.0203385355000005,9.960768223,-13.18951416
1970-01-01 00:00:12.100,1.5243775844999998,-5.574080466500001,21.1069388375,1.709226966,-0.16607410089500002,-0.98690009105,-5.4960997105,4.117499948,-44.127399445,-4.334466934,7.16355061745,4.14126492
1970-01-01 00:00:12.200,-4.45364123575,-13.7594776175,-13.7666564,-0.054899870999999933,-5.627125025,0.9292514325,3.29399991,-3.6966000795,-44.450700760000004,-8.5995008925,-1.9527060990000003,-19.6651268
1970-01-01 00:00:12.300,35.93600845,-36.47349548,29.541339399,-3.9644749907999994,-1.2655228597500001,3.785496831,6.618499756,-3.769799948,-41.974100115,19.418219564999998,-32.57541466,-10.21864736
1970-01-01 00:00:12.400,3.1165019275,0.8409276010000002,2.8627132775,-1.528950691,0.6517740488,1.693879485,5.270399809000001,-0.20739999409999998,-38.753299715,2.4464254399999996,8.995297907,9.8909966955
1970-01-01 00:00:12.500,3.0566814242500002,1.5112170874500002,1.1940184829,1.00759255875,0.30595815170000007,-0.07689040899999999,4.6359999179999996,1.67749995,-35.770399095,2.5966693759,10.82969141,4.972790122
1970-01-01 00:00:12.600,10.24965566505,-12.103943944500001,2.7693930865,3.774043441,1.4697748425000001,-1.17473562075,5.3984999655,3.232999921,-32.82409954,5.404153586,0.5403671265000001,1.2254276869999998
1970-01-01 00:00:12.700,10.3945710655,-38.966817855,0.8036893009999999,3.531995177,0.575418115,-4.680235386,11.193499566,4.2943999765,-28.77369881,9.335452081,-31.183847425,-0.05799066999999991
1970-01-01 00:00:12.800,-0.506979346,1.4190933706,-3.7115670888000003,-1.6279079319500003,3.092795968,0.10483667229999999,15.701399799999999,4.8616998195,-25.72369957,-5.6661241055,7.149559021,-8.7886772175
1970-01-01 00:00:12.900,-2.6724838015,5.444718361,-5.078467011500001,-2.3923832175,-2.6912403705,1.4154858292,17.787600515,7.490799665499999,-21.392700195,-7.768490314499999,13.000062465,-8.9040942205
1970-01-01 00:00:13.000,4.5288652776000005,-6.620342074500001,16.651503565499997,1.74404525775,0.42087364199999966,-0.5816793216,17.94009972,12.96249962,-16.476099015,-2.2952240705,5.203351736,-5.3660969755
1970-01-01 00:00:13.100,1.7878870965,-29.50066185,-8.498408793,0.03863608849999989,-3.0806554559999997,1.191992044,15.51229954,19.056400295,-14.298399925,-5.12286877655,-16.513935565,-9.286476137
1970-01-01 00:00:13.200,21.709033015000003,-24.0242376335,-10.4615704995,-4.32082830345,-1.2010020313999998,3.157087624,15.701399805000001,22.4296999,-11.553399559999999,17.829746245,-12.1198353767,-4.7906057835
1970-01-01 00:00:13.300,2.9560332299999996,2.0283658505,7.0785677435,-1.001102287205,0.37948888545000004,1.60759726185,17.342299465,23.265399934999998,-8.6498000625,0.5359997750000001,12.35565233,11.1649122225
1970-01-01 00:00:13.400,1.0239785314999998,0.3261716364999998,4.324129701,1.5707173643,0.8632035855000002,-0.30939413235,19.434599875,23.6191988,-5.001999855,1.0215955975,9.2602100355,5.8662831785
1970-01-01 00:00:13.500,12.4319100375,-20.8710969675,7.5382888318,3.3573693034999996,3.5359656809999995,-3.2524561285,21.960000035,26.034799575,-0.7502999752,8.228058459,-7.489233732000001,8.5183213935
1970-01-01 00:00:13.600,6.9267728325,-31.42793083,2.6460130214999995,3.353322327,-0.16469970350000002,-2.0435895325,19.48339939,31.47599888,0.21959999195000002,2.3091175555000003,-31.72303486,-1.0302593705
1970-01-01 00:00:13.700,-0.7966603635,3.811915994,-4.640430808,-1.8438424465,1.97990863025,0.52975729456,13.724999905,37.331998825,-3.0804998875000003,-4.9718425275,10.4396762865,-9.1376185395
1970-01-01 00:00:13.800,-2.0500508545000002,3.463610768,-3.94486731295,-1.1981769502,-1.3100382874,-0.31878590585,7.631099701,43.755298615,-6.1121997834999995,-6.718080520500001,12.04713583,-7.3803336605
1970-01-01 00:00:13.900,1.3425230980000002,-3.7389347535,-0.8243274094999999,2.3855876919999996,-1.0164499280000001,-0.77638685705,0.7441999317500001,49.586900715,-9.0828998075,0.9176383019999999,-0.8201718349999991,1.907922267
1970-01-01 00:00:14.000,4.5984070285000005,-35.05245781,-7.9609211234799995,-3.103562176,-2.4756876230000002,3.4582354425,-4.2577999835,53.435998915,-11.596099855,-2.4557745454999997,-23.262310030000002,-9.300945163
1970-01-01 00:00:14.100,19.441834449999998,-23.965464115,-6.7555363205,-3.7154784795,-1.9055380225,1.765883088,-3.9161999224999997,56.278598785,-5.3130999805000005,17.098748682,-13.451025485499999,-6.4728431705
1970-01-01 00:00:14.200,2.435295343,1.2838988305000003,4.3075295838,-0.15049746644999995,0.68491250275,0.6029062569500001,-0.8783999533500001,56.68119812,3.0255999565000002,1.5393841265,9.673379898,10.699636458
1970-01-01 00:00:14.300,2.43649172785,1.7027922870000003,4.9706404205000005,3.1885463595,0.47004696735,-0.73828524355,3.3061999085,57.907299045,11.6022000315,-0.6598548295,9.6067266455,4.3488496545
1970-01-01 00:00:14.400,14.262120245,-40.717017174999995,1.3028919695,4.3242640495,2.0379390500200003,-3.9631006715,7.106499672,61.628297805,16.872599605,9.8999152195,-21.728169917,-0.7894195319999999
1970-01-01 00:00:14.500,5.912814379,-9.29566741,-1.6921743153500002,0.5636593100000002,1.0656994579999999,-0.5851916672,1.7202000318500001,63.72669791999999,10.089400053999999,-0.3544430734999999,-9.65865755,-4.5859861375
1970-01-01 00:00:14.600,-0.954736227985,3.5545381305,-8.9570827495,-2.0240423675,1.50963261705,1.275830865,-6.8747000695,66.36190033,-3.51969985675,-5.4852380755,10.44227648,-11.6897597305
1970-01-01 00:00:14.700,2.9165518284999994,-4.162613868,20.157586095,0.7066739795000001,1.8381922244999997,-1.4998591244000001,-15.054799555,70.40009689499999,-15.378099915,-1.3642370700000002,8.103331088000001,20.01592064
1970-01-01 00:00:14.800,-4.374528408,-8.480462728000001,-13.542778013,1.817499638,-6.555230856,0.42629504214999997,-23.0092001,71.2602005,-24.27799988,-9.8072390535,0.629029273925,-18.298353195
1970-01-01 00:00:14.900,21.546170710000002,-39.19921875,-10.6340029225,-5.2806220055,-1.8532342910000001,3.992268622,-25.882299425,73.91369629,-26.71189976,14.0476438994,-29.75116062,-10.0552675745
1970-01-01 00:00:15.000,3.7580775020000003,-5.144269588,6.6548883915,-1.849569142,0.51838025455,1.48558050395,-22.46019936,80.892097475,-16.567599774999998,6.0453658085,3.8344674110000003,9.431119920499999
1970-01-01 00:00:15.100,6.806982040499999,0.5344967542,2.9524439575,1.50054627655,0.23578703410000001,-0.74454647305,-19.70300007,84.88149643,-4.4590999485000005,5.8519605395,10.7604317675,6.914467095499999
1970-01-01 00:00:15.200,1.2311072349999999,-0.9318548737,2.6842983663,3.896136522,2.0477127435,-1.0492828416,-15.780699729999998,89.493099215,6.1548998355,-0.8278434276,9.3419618605,3.1163734197
1970-01-01 00:00:15.300,15.7105255115,-46.231725690000005,11.998510359499999,3.7549544575,0.24349904049999993,-3.8217658995,-10.91899967,92.475997925,5.4045999049999995,11.060284614499999,-37.409503935,3.8592629435
1970-01-01 00:00:15.400,4.2548873425,-0.37881374349999986,-1.03848503545,-1.4772577285,5.1621937755000005,0.84274017825,-17.262999535,84.90589905,-12.492799284,-1.5935127733999999,1.9892807019999994,-5.3030961755
1970-01-01 00:00:15.500,-1.4252250120499999,5.1167520285,-6.991528511,-2.718652129,-1.3767733276,-0.7713473533999999,-19.818899154999997,76.140197755,-34.952999115,-3.619363785,12.870491985000001,-14.33431196
1970-01-01 00:00:15.600,1.2095718384999998,-12.417552650000001,13.797763107,2.401546001,1.63371098,-2.296174765,-21.508599285000003,68.15530014,-50.251800535,-4.535596609000001,1.9831473839999996,11.069354055000002
1970-01-01 00:00:15.700,-3.0293133781000003,-20.93944051295,-13.523785115,1.29644694935,-4.1643749475,0.20837527509999998,-24.46709919,57.876798629999996,-56.01019859,-9.066162109,-9.0825510005,-21.04063892
1970-01-01 00:00:15.800,27.75659418,-32.18555832,-9.14970535,-5.1637210845,-1.8546849485,5.042620659000001,-25.662699699999997,56.589698795000004,-49.19039917,22.263067008,-28.04532051,-7.47488293165
1970-01-01 00:00:15.900,2.70224452,-1.2599709049999999,6.116204262,-0.8502230344499999,-1.5536899570000002,1.59591478125,-27.15110016,60.51199913,-31.793200489999997,2.6650371550000003,7.477795125485,14.621318815
1970-01-01 00:00:16.000,4.877320409,0.5548357965000001,3.6575788855,1.1328925788,-0.006719321,-0.6010736971999999,-25.96159935,61.414798739999995,-17.06169987,5.1305294035,9.6781747335,4.5223486425
1970-01-01 00:00:16.100,1.0935199260000004,-2.075025797,3.22776824245,3.9807389975000005,1.06936448805,-0.7765395641499999,-22.698099135,64.226898195,-6.5147998335,-0.26022863399999996,9.1529016485,4.39912086715
1970-01-01 00:00:16.200,18.76436591,-47.160739899999996,11.4777718546,3.336982131,1.0920422367335,-5.492433071000001,-17.378899575,60.841398240000004,-6.953999758,14.7352888595,-37.021921155,5.907797692
1970-01-01 00:00:16.300,-0.4112663865,1.63579335795,-3.6527934075,-0.5337277949,3.622782409,-0.15981289745,-18.15359974,47.62879944,-19.00759983,-5.6908922195,6.03930735563,-7.094468593999999
1970-01-01 00:00:16.400,-2.5695923565000003,5.8398330210000005,-7.628168820999999,-2.6457321645,-0.49035763749999983,0.785167791,-16.933599475,36.282798764999995,-32.000598905,-5.4172713755,13.537456035,-11.677585601499999
1970-01-01 00:00:16.500,2.0164016635000004,-5.5320562998,0.79546397925,0.7599703670000001,-1.28308463095,-1.261552274,-15.93929958,29.133600235000003,-38.03960037,-0.9525218009999996,0.6817574500000001,2.4221179484999995
1970-01-01 00:00:16.600,-0.004337012499999959,-25.069303515,-5.605336547,1.27346382675,-6.4755916595,1.3385954495,-16.695699689999998,24.497599605,-37.88710022,-7.883141994500001,-16.811754942649998,-8.8844361305
1970-01-01 00:00:16.700,23.62553501,-18.542880056,9.3267737625,-3.9156835675,-0.5085303779999997,4.532562971000001,-17.4642992,27.138899805,-30.981900214999996,28.226154325,-12.829846384,25.443261621
1970-01-01 00:00:16.800,3.597758294975,-0.11201405499999995,2.1946671010000003,-1.35485918055,1.888816178,1.2413943114,-19.099100110000002,31.768798829999998,-20.42279911,2.9812173840000002,9.6438751215,8.195209502
1970-01-01 00:00:16.900,2.01041963685,1.2107682825000001,-0.4854438305000002,1.5718627126000002,0.8834378199999999,-0.98323503115,-18.257299425,34.09899902,-12.08409977,2.3176958560500003,9.733210086,5.322143435499999
1970-01-01 00:00:17.000,8.388338757625,-10.9296656413,4.864010036000001,3.380504966,2.0500033495,-2.43514254715,-14.658299920000001,36.740299225,-7.0576996805,2.9318943025,2.381556511,1.756578475205
1970-01-01 00:00:17.100,10.947611811,-45.28267479,-1.6909778714,2.830437064,-0.08933642505,-3.513517201,-10.290699960000001,33.513399125,-9.5525999055,8.7330391415,-36.108067515,0.11211442949999961
1970-01-01 00:00:17.200,-0.9224331374999999,2.28828611955,-2.6844478845,-1.543534696,4.1238298415,1.08448296775,-9.4549999235,25.424798965,-16.128399375,-6.1106717585,8.359283686,-6.7556297785
1970-01-01 00:00:17.300,-2.514407933,5.8171014785,-9.107831002000001,-1.524445653,-2.2265381592,0.7518766036850001,-6.9722998144999995,18.78189945,-22.057600025,-5.9344258305,13.00988388,-13.0397706
1970-01-01 00:00:17.400,3.18589389305,-3.3128628730000003,17.642580034999998,2.29716748,-1.4994008540000003,-1.0908205209,-4.4834998850000005,14.304499625,-23.98519993,-4.1289429665,5.37876391595,-10.1912808432
1970-01-01 00:00:17.500,0.9294619559999999,-31.80853939,-7.725228369000001,-1.2730820180000002,-2.2530336379999993,3.7696909905,-3.678300023,11.852299695,-22.86279964,-4.8552861212,-20.161081315,-9.52815169
1970-01-01 00:00:17.600,21.23017025,-25.137350085,-1.4609680150000006,-3.9198831915000003,-1.8688871865000003,2.694065511,-2.232599914,12.529399869999999,-19.135699275,21.418720725,-13.765733243,6.7218489645
1970-01-01 00:00:17.700,4.381856382,0.339332223,2.8434211615000002,-0.20661908410000002,1.3019445685500002,0.25212717100000004,-0.7320000084499999,13.712800025,-13.65789986,3.9195826052500005,8.528157711,7.6198887825
1970-01-01 00:00:17.800,1.2324531075,2.7285656925,5.147858858,2.4654558895,0.3549785911,-0.7085064352499999,2.1410999295,14.621699809999999,-8.6497998235,1.8284962180000002,11.32029438,3.3287215230000005
1970-01-01 00:00:17.900,15.087045493,-20.1924323425,9.25364353465,3.3996704815000003,1.7350352408,-4.427344501,6.685600042500001,17.15320015,-4.233399987,9.046105086799999,-4.2307667755,4.84226632115
1970-01-01 00:00:18.000,7.424629567,-28.145725964,1.717149377,0.6734591124999999,1.3197355864999998,-1.62011958645,8.533899784,20.874198915,-2.8547999855,2.3769083019999995,-30.10621929,-3.4639106395
1970-01-01 00:00:18.100,-3.2027930025,3.8575291634999997,-7.895267961,-1.9102721214999998,2.319692541015,0.9896489382,6.093899727,25.778599735,-4.9287998675,-7.389288902500001,10.75990105,-10.400660754
1970-01-01 00:00:18.200,-1.6274185775,3.36670133495,12.8316612255,0.1823379989999998,0.9575030800000001,-1.2412416634999999,2.9218999145,32.281198505,-5.984099864999999,-8.535078525500001,13.417207715,-7.2059226039999995
1970-01-01 00:00:18.300,1.2741780877,-6.8837020405,-6.474379778,1.3317997457,-5.141119599,-0.05482354385,-2.854799986,40.302700045,-6.2036998274999995,-2.0413887499999994,-0.7644886975,-2.8366115105
1970-01-01 00:00:18.400,12.133853676500001,-39.98077774,-4.9181479516,-3.6125506165,-4.592502356,5.964618206000001,-7.9116997719999995,47.57389832,-5.3862998485,2.642738102,-33.393680575000005,-7.6273968210000005
1970-01-01 00:00:18.500,13.06750369,-3.7773696185,-1.72328084685,-0.9564341008499999,0.29939150434999995,1.47595971835,-3.7697998285,53.01509857,-0.26839999854999996,19.81867245085,3.2657911776,14.413866995
1970-01-01 00:00:18.600,6.240780592,1.9685453177999999,-0.016301154999999845,0.9836167991,-0.011071622399999925,-0.55648183825,2.16549998525,56.400598525,4.581099868,5.2046933175,12.323562143500002,4.34018135082
1970-01-01 00:00:18.700,1.2335000630000001,1.5975082519,3.012264609,2.7950843575,2.39482677,-0.80776914935,7.9239001275,59.365200045,10.5651998505,0.34255897999999996,11.8270483,6.7392854695
1970-01-01 00:00:18.800,18.10469484,-36.154952525,0.7366902830000001,2.717812061,3.916294575,-6.787429333,11.760799885,64.08049774,13.035699845,17.034155847999997,-22.08505010765,5.2247099855000005
1970-01-01 00:00:18.900,5.2555357215,-11.6214913145,0.32736802099999995,1.8821730988499998,0.56236124035,-1.37303187715,2.03129994865,68.27119827,3.9771999119999997,-0.20572185515,-11.1826801315,-2.69133877735
1970-01-01 00:00:19.000,-1.9159032705,3.29850593235,-11.008779050000001,-1.8251352905,3.9652385115,0.7114843577000001,-8.546099663,72.236198425,-10.5590999135,-4.062430978,11.3597850795,-16.321712495
1970-01-01 00:00:19.100,-1.325773239,-5.678167939,12.490533828,-0.09208524250000005,-0.51547872275,-0.8237275220500001,-17.537499905,75.725399015,-22.86279964,-2.5270099640000003,7.210580586,13.673703194999998
1970-01-01 00:00:19.200,-3.3930225965,-12.68465177635,-15.016307835,1.6169890164999998,-1.384485304,-0.599317506,-26.43739891,74.298000335,-33.8793993,-6.805321693,-0.3396396639999999,-18.1674757
1970-01-01 00:00:19.300,28.921298985,-43.35181427,-10.7442224045,-6.488954067,-5.0141396525,4.529585123,-27.791599275,75.52409743999999,-36.240098955,20.5791854865,-32.765415194999996,-15.46394348
1970-01-01 00:00:19.400,4.13629293425,-1.3173985485,6.423831463,-0.99774268572,-0.6772768494999999,1.8188740908,-25.84569931,80.51390075500001,-22.691999435,4.1448438175,5.6610398285,16.393135545
1970-01-01 00:00:19.500,4.4727837445,1.76156607255,4.72881558886,1.1717577576,0.061542868599999995,-1.4320550564999999,-24.802599905,82.88069916,-8.295999526,5.5881426335,12.73432064,9.489652633
1970-01-01 00:00:19.600,1.714756489,-5.551348686000001,2.3095225395,3.9445462225,1.4015890360499998,-0.93054944275,-24.058400155,86.144199375,3.056099892,-2.593199372,6.118828058,3.9657747745
1970-01-01 00:00:19.700,15.873536470000001,-45.35684967,6.1640608304999995,3.6204154490000002,0.879314661,-4.552033782,-24.265799525,82.551300045,-0.2928000689999999,13.5927639005,-39.053333285,7.322624208
1970-01-01 00:00:19.800,0.8325527910000001,1.025324464,-2.0391336680000003,-1.0582928566349998,2.93336477865,0.22731152179999997,-30.603699685000002,66.79499817,-20.495999814999998,-4.699509859000001,5.36937189,-6.5538237095
1970-01-01 00:00:19.900,-3.5977584125,5.109573603,-8.280661823500001,-2.650848031,0.6265765919849999,1.3870050313,-32.25069904,52.03299904,-43.279499055,-6.620513439000001,12.61627722,-10.273294447000001
1970-01-01 00:00:20.000,0.4637589604,-2.63285258395,1.9133608340000003,1.652952701,-2.8430357875,-1.6584503055,-29.12749958,39.174200055,-59.029699324999996,-2.902237296,3.7224187845000003,-0.35110449799999977
1970-01-01 00:00:20.100,1.38903355615,-23.346620322499998,-10.7561864865,-0.08231162999999997,-2.714070797,1.51688644285,-25.998199460000002,26.473999974999998,-63.75109863,-6.614491939500001,-17.6690857435,-17.101203918
1970-01-01 00:00:20.200,28.34552574,-22.00963068,11.7855490455,-3.342479844604,-4.299754023499999,4.260048747,-24.027899745,26.32149887,-59.127298355,32.582449435,-17.66901112,28.028057932
1970-01-01 00:00:20.300,4.5696930885,2.164756775,-2.4904794689999994,-1.1658783106500001,2.4835522773000003,1.17809525145,-27.15110016,31.347899435000002,-47.726398465,4.6149421335000005,12.069289207499999,3.6443877221
1970-01-01 00:00:20.400,2.930908561,1.2886845098,2.0582761765,1.8891214729,1.0698226391499999,-1.06111803675,-28.645599365000002,32.97049904,-40.070898055,2.6043605506500005,9.180297375,3.6618304249999998
1970-01-01 00:00:20.500,9.38420209125,-9.73983499445,2.0714367035,3.9656966925,1.6436372102999999,-2.472938843265,-25.369899750000002,33.93429947,-36.03269768,3.1887307165,2.9933800694999997,0.8459784985000002
1970-01-01 00:00:20.600,11.0935744055,-38.421103474999995,2.3694927095000002,1.2765943558000001,0.27014720162000005,-3.2491728366,-15.573299885,24.09499931,-38.45439911,8.5557944755,-35.595051765,5.1680690025
1970-01-01 00:00:20.700,0.5871388915000002,1.2705887555,-5.00802838785,-2.1456773279999997,4.264172018,1.2096302809,-3.9588997959000003,8.0275998115,-44.505599974999996,-4.6292438505,7.9257049550000005,-7.7412612437
1970-01-01 00:00:20.800,-4.6630129815,5.3801121714999995,-5.964409590000001,-1.36646530045,-1.2159678638,-0.2595337629499999,7.978799817500001,-4.288299799000001,-45.835399625,-7.494087219500001,13.463270665,-11.44935465
1970-01-01 00:00:20.900,0.825224757,-7.74422109055,14.86421347,3.226876974,-1.975556433,-1.028055947295,18.604999545,-10.248000143,-42.248600005,-4.387396574,3.10672783875,0.7406282449999999
1970-01-01 00:00:21.000,5.8576295394999995,-38.095531465,-12.2907333375,-5.1710513235,-1.7296902833499999,4.526454568,24.73549938,-9.52209997,-37.588199615,-0.6555051799999996,-22.595022200000002,-11.0791399495
1970-01-01 00:00:21.100,28.994280579,-20.1900401095,37.9637751555,-1.8293348253000001,-1.9851009845000003,1.9295138120000002,26.589900014999998,-6.0633997915,-35.050598144999995,24.480593207,-18.2706065185,-3.1591782549999987
1970-01-01 00:00:21.200,5.268696307999999,4.2644586575000005,2.896212578,0.51876203715,0.43484690795,-0.30672167240000003,24.66839981,-2.8547999859999997,-33.659799575,4.207148254,12.973414658500001,7.1306605329999995
1970-01-01 00:00:21.300,-1.0360922513500002,1.1078769194,4.998157858500001,3.753198266,0.69682401405,-0.30679803345,23.52159977,-0.34769998495,-32.031100269999996,-1.4304323195000002,11.191246508,10.111233711499999
1970-01-01 00:00:21.400,17.9406361605,-34.627583025,10.0474622855,4.027392387,0.14889401219999998,-5.5449659825,24.125499724999997,2.1166999935,-29.31049919,15.891762138499999,-16.2476739865,8.6379740821
1970-01-01 00:00:21.500,3.7005003690000002,-14.827275159000001,-0.13594222050000004,-0.5053997337,3.3237726428000003,-0.6408551334999999,24.54640007,4.8982999325000005,-26.534998895,-1.64525282375,-14.9196615225,-4.067155360999999
1970-01-01 00:00:21.600,-2.3193929195000003,2.9741289319000006,-10.9645113925,-2.19584316,0.9652913805000001,1.171834141,24.54640007,7.6310999395,-24.13769913,-5.695815325,10.453664304499998,-15.5654492375
1970-01-01 00:00:21.700,0.8168497084999999,1.3485051390000002,17.818602564499997,0.7279008625000003,-0.8572478295,-1.755498707,23.820500375,11.43139982,-21.29510021,-7.018934011000001,11.2915625565,-7.241492511000001
1970-01-01 00:00:21.800,-2.7478577196,-12.0273737925,-11.752049445,0.8187643887000001,-3.1201315223,1.4149512799500001,20.172699925,17.70219898,-19.696899415,-6.531659363,-3.8560857769999997,-11.958195685
1970-01-01 00:00:21.900,20.152950289499998,-39.540346145,-8.904440639999999,-9.106511116,2.44537425,4.342513084,17.476499555,22.063699725,-18.44639969,11.239363433000001,-31.26080418,-7.31259799
1970-01-01 00:00:22.000,4.356582254399999,-4.874927523,10.787143468,-2.8056977985,-3.5875059965,1.7629815338500001,17.677799225,24.759899134999998,-14.8961997,7.0212094800000004,0.7780013084999995,13.596031665
1970-01-01 00:00:22.100,4.8988558055,-0.7511967419000001,-1.1678470224,0.7721109687000001,0.46897804749999994,-0.2202104479,18.0437994,26.358098984999998,-11.67539978,5.2783972025,9.185415268,3.3791321516500004
1970-01-01 00:00:22.200,0.007627129499999996,0.7428218725000001,2.7142086325499997,3.1935094,-0.021608710500000017,0.3523825109,19.892100335000002,27.30359936,-8.112999916,-0.38757067945000007,10.887755871,4.843455672
1970-01-01 00:00:22.300,20.571844105,-48.107549665,10.3501539225,3.7350256440000003,0.3858264014,-5.604065418499999,21.03889942,28.54189873,-7.0149998665,15.971763135,-38.41801834,-0.23044824499999983
1970-01-01 00:00:22.400,0.4363909960000001,-2.2905292509999997,-2.306082815,0.06245911100000001,3.69180822355,-0.80166064225,15.860000135,29.963199615,-12.053599835,-4.9281885625,2.3226413705,-5.779602528
1970-01-01 00:00:22.500,-3.0506993529999997,5.621936798,-11.797662255,-2.2803691625000004,1.0851701495000001,0.9906415643500001,12.077999595,31.451600075,-18.281699179999997,-5.7822375295,12.551476958,-16.161829949999998
1970-01-01 00:00:22.600,2.964557648,-4.8619163021,16.572391269999997,0.8309050200000002,-0.650094211,-1.6865492465,8.149600029,33.34869957,-22.38089943,-3.0939662455,0.5035867700000001,6.910310983499999
1970-01-01 00:00:22.700,-0.11201399599999995,-21.571446299,-8.429166556,0.2557159362,-4.252489686,0.94879850755,3.4037998915000003,34.3185997,-25.01609993,-8.462781906,-12.911567687000002,-17.532961845
1970-01-01 00:00:22.800,26.62164688,-24.965066911,3.9185460789999995,-3.955999553,-3.9762338400000004,4.592884302,2.8913999795,35.855798719999996,-22.612699505,26.340649125,-14.598648550500002,22.706973078
1970-01-01 00:00:22.900,1.0875380039999998,2.0476579665,5.1239306925,-1.0529479982,1.50550937675,1.3032426386,1.8665999471499999,41.406799320000005,-15.31709957,1.9428884979999999,12.0805459035,5.937415838900001
1970-01-01 00:00:23.000,1.5556337239999998,1.1724831459999998,1.4250755309999998,1.7487030027500001,0.3384857473999999,-0.8470160663,1.8116999864999999,45.676797865,-9.339099884500001,1.8292763533,9.317470074500001,3.19405043135
1970-01-01 00:00:23.100,11.216804502999999,-13.55130269955,4.9060341715,3.5872768165,1.6772338748999998,-2.438120417125,5.2093999385,46.591798785,-6.490400076,7.1125911485,-0.04964351649999976,2.7362452150000003
1970-01-01 00:00:23.200,7.8436725745,-37.707595345,-1.6728820773850002,2.638249338,0.9975899162499999,-3.2308474179999997,6.417199850499999,45.36569977,-9.5586998445,6.295285225500001,-37.99096298,-3.642391622
1970-01-01 00:00:23.300,0.26994031685,3.6958642005000004,-4.306482479,-1.615232885,5.403020381999999,0.98621287945,3.043900013,41.9375,-17.299599649999998,-3.3331866265,10.487200261,-9.2571979735
1970-01-01 00:00:23.400,-2.1421744824999998,4.837838768999999,-9.0647597295,-2.4036839605,-3.2471114100999996,-1.0824976859,2.2264999149999998,39.619499205,-23.783899305,-5.1508450505,13.225967885,-17.1717906
1970-01-01 00:00:23.500,1.496860206,-9.37358409,5.226821895,2.70742774,-0.593896151,-0.9392539934500002,0.9272000196,38.094499585,-26.626499175,-3.3155229095000003,0.8067402839999995,4.178028104999999
1970-01-01 00:00:23.600,3.6169010394999996,-35.690594669999996,-6.962665558,-3.3104103205,-4.757812858,4.288605809,-0.030500002195,37.045299529999994,-26.559399605,-2.0722887515000004,-26.7380867,-10.021821258500001
1970-01-01 00:00:23.700,23.8781273645,-18.103498459999997,22.437945844999998,-2.7940917015,0.20463383200000007,2.2696793675,0.7319999635999999,39.54019928,-20.337400435,22.6254074,-17.89062643195,8.5599148285
1970-01-01 00:00:23.800,2.91191571195,2.5287647245000002,3.0110682845,0.51899110157,0.06291729200000007,-0.13041585694999996,0.4696999788499999,41.303098675,-12.974699975,0.07436609250000004,10.488098860000001,8.4220173375
1970-01-01 00:00:23.900,1.19880414,2.5419253111,7.702346681500001,3.0726380349999998,0.045660853249999966,-0.46989427510000004,0.96990001205,42.614599229999996,-7.1186995505,1.3243337870000003,12.505152705,10.635627033
1970-01-01 00:00:24.000,20.6532001475,-34.482817175,10.10488969055,3.7899255755,1.09776885815,-5.4801397325,2.6351999045,43.596700665,-3.781999946,15.2381074435,-16.9101853385,10.38853984855
1970-01-01 00:00:24.100,4.7024948,-15.063117623999998,-2.2701904475,-0.270605326,3.562843006285,-0.7653152051000001,0.76859997235,40.339300155,-8.6131999485,1.3802788255,-16.3938541435,-3.6354923245
1970-01-01 00:00:24.200,-2.6005495785,5.986991884,-10.86386347,-2.337177932,1.711746812,0.42682951685,-0.66490000485,37.28929901,-17.378899575000002,-5.4537637235,12.373730182500001,-17.706326485
1970-01-01 00:00:24.300,-3.6732819679999995,-0.9545867444999998,3.5078778259999996,0.4319454435000001,-1.013319254,-1.549261332,-1.2199999689,35.36779976,-23.08849907,-6.546275973,8.7287681085,5.86487961
1970-01-01 00:00:24.400,0.0652043819999999,-13.113116741499999,-11.1966152205,1.538800597,-5.881619215,0.775546968,-3.6599998475,33.62930107,-24.97949982,-2.760587215,-1.8621366026500001,-4.959459543
1970-01-01 00:00:24.500,25.2356040475,-39.654006955,-10.904691218,-4.54332912,-2.9728407860000003,5.2238128185,-4.208999872,34.15999985,-23.49109936,13.470021606,-29.484396935,-9.5235123615
1970-01-01 00:00:24.600,2.9045875669999996,-2.327618121000001,14.6010036445,-1.2544511559,1.187410772,1.5898062887,-3.5379998685,36.94159889,-17.38499975,8.764341475,6.32518339145,11.1102795595
1970-01-01 00:00:24.700,5.6074302195,1.2299108505,4.740779981,1.39593868703,1.2795723377500001,-1.4225105645,-2.8425998685,38.826499935,-11.223999975,8.097867011999998,12.2833375935,11.662452461500001
1970-01-01 00:00:24.800,-0.9882357120000003,-3.2530423404999995,2.584996164,3.864754319,0.71110256738,-2.4795052855999997,-0.890599973655,40.991998675,-6.4842998985,-3.3908774257500003,7.237596035,3.4939581160000004
1970-01-01 00:00:24.900,22.66780758,-45.60585403,10.0915796175,2.7597315905,0.42988374840000004,-4.106115341000001,1.6042999624999998,41.20549774,-6.3439998625000005,16.965734480000002,-33.657533645,4.0455324655
1970-01-01 00:00:25.000,1.962563142,-0.5584249499999998,-1.846511364,-2.0899375675,6.067775011,1.05668941115,-1.7811999319999998,36.136398315,-12.37689972,-4.161857127999999,2.819432497,-6.4857900145
1970-01-01 00:00:25.100,-5.0750272270000005,3.7461134195,-10.085747721,-2.768817902,-2.699181318,0.8532009125,-2.519299984,32.982700345,-19.81279945,-7.1160771845,10.930775164,-14.9534235
1970-01-01 00:00:25.200,2.7201907634999998,-4.726572454,19.225133895,1.1917629834999999,0.18653750400000013,-1.5284161565,-2.9706999065,31.506499295,-24.58299923,-4.869088768499999,2.3808674824999994,3.0105196239999996
1970-01-01 00:00:25.300,2.4809084234999994,-22.830668927,-8.637341738,0.9678111372,-6.1501629355,1.1329689619999999,-3.8796000479999995,29.993699075000002,-26.583799364999997,-6.4946706295,-13.687239408499998,-15.597917559999999
1970-01-01 00:00:25.400,28.875837330000003,-27.4764838235,-5.229364154999999,-4.365648985,-3.4314344170099997,4.9663410185,-2.7937999959999997,32.14699936,-24.717199325000003,25.5670681,-16.1566834455,10.436831950000002
1970-01-01 00:00:25.500,3.5594730969999997,2.7693931686299997,3.9124146250500003,-0.98193693165,1.1632822156,1.1312127558499998,-3.5806999205,34.586997984999996,-18.238999364999998,4.15149246155,10.5465002055,5.716979503499999
1970-01-01 00:00:25.600,1.0851449969999998,3.29476732,6.651299,1.74457982205,0.78249534955,-0.6467345506,-3.452599883,35.64229965,-13.261399745,0.21836602699999985,11.39244032,4.030952513
1970-01-01 00:00:25.700,15.254543779,-17.490785599000002,7.39232640734,3.8399386405,0.8441908954999999,-3.0559160410499997,-0.92109995702,37.014799115,-10.21140003,9.613954484999999,-3.4267740269999996,3.91669551632
1970-01-01 00:00:25.800,11.0229861755,-28.580022335,1.5495021935,1.7090742663,0.8282325269499999,-3.9577558045,-0.21349999305000003,34.849298475,-12.65749979,5.997174264,-30.6355946075,-5.026617169
1970-01-01 00:00:25.900,-3.5283664465,3.218196869,-8.5091762525,-1.9841082695,6.002948761000001,1.14472776635,-1.323699951,30.59149933,-19.202799794999997,-7.114511251,9.340756893,-11.607051851000001
1970-01-01 00:00:26.000,-0.5321040150000003,4.1650070545,13.256686684999998,-1.2901857643999999,-3.190149784,-0.22876229874999998,-0.35379998384999994,27.010799405,-24.241399765,-7.0908718109999995,13.696125985,-4.0275621425
1970-01-01 00:00:26.100,-1.12821587905,-11.6490082755,-15.110974315,2.1481971145,-1.8714069427000002,-0.21608722209999998,-0.5794999897499999,25.626099585,-26.449599265000003,-1.74553620825,-7.8073203565,-4.8493554605
1970-01-01 00:00:26.200,25.626980305,-42.018116000000006,-9.2214896705,-6.4884958269999995,-3.1258580685000004,4.8226389885,0.914999962,26.193400385,-25.918899539999998,14.99214458525,-30.61469078,-16.077765945
1970-01-01 00:00:26.300,5.975027560999999,-1.7566308959999999,5.790780186499999,-0.99766626945,-0.15523153570000003,2.119029105,3.3488999605,29.310500145,-20.520400045000002,4.9648166895,6.125415324499999,13.526925561999999
1970-01-01 00:00:26.400,5.5452170375000005,0.40752756599999995,3.0613173844,0.9694909752,0.8687774988,-1.0252307354499999,3.9650000335,29.79849911,-13.822599884999999,7.694882152,10.482130526,9.441140532
1970-01-01 00:00:26.500,1.0706384179999997,-4.16500696525,0.816999364865,3.7496858834999998,0.65207945555,-1.5662887097,5.8803999425,31.92129993,-8.60710001,-2.2289469834999998,8.378014803,2.67045673725
1970-01-01 00:00:26.600,18.8612746,-46.818416595,5.9953669314999996,3.7373161315,1.12762400525,-5.159826755499999,6.838099956500001,33.83059883,-6.8076000215,17.119090797,-41.074502945,8.302128675
1970-01-01 00:00:26.700,1.123430252,2.6735305785000003,-6.580860616,-1.1447277665,5.939420699999999,0.47508646545,3.9528000355,32.336099625,-11.888899805000001,-4.444429159,6.316740274,-11.440724851999999
1970-01-01 00:00:26.800,-6.543771744000001,7.179215787,-11.86705446,-3.090658069,-3.6662288904,-0.52479416875,2.4460998775,31.97009945,-17.866899495,-9.0125589375,14.0429554,-18.385294915
1970-01-01 00:00:26.900,0.9894321782000001,-4.9491050245,4.329064370000001,2.436975181,-1.7833685874999998,-0.47165045149999996,-0.5306999982,32.20800018,-21.2767992,0.05291461950000009,1.65344047545,10.742084505000001
1970-01-01 00:00:27.000,4.810321095,-32.304151535,-6.1654067040000005,-2.2158483860000002,-1.5334557295,3.4725902079999997,-3.5867999795000003,32.64719963,-22.11859989,-0.6569263934999996,-17.1720924395,-9.23773241
1970-01-01 00:00:27.100,24.937399984,-25.2344083775,-1.3331012725,-3.3417927030000003,-1.8056645395,3.0239229205,-2.7694000005,35.319000245,-17.28129959,22.924402239,-17.8156385398,0.4346485150000001
1970-01-01 00:00:27.200,6.243173361,2.8471598625,1.3698909279999998,0.24250634759999995,-0.07643228749999997,-0.24166646600000002,-1.8726999164999998,35.691099165,-9.503799913,3.7590550484,11.79898882,6.1513783935
1970-01-01 00:00:27.300,-0.7296614650000002,1.4228321908,5.15384078,2.855481863,1.0062945037,-0.568775179565,0.51850001525,36.79519844,-4.5322999955,1.4241831305,11.806552889999999,11.3912653945
1970-01-01 00:00:27.400,17.5912840385,-23.319104076000002,10.14078220701,3.6380535365,2.6001476644999997,-4.775298595500001,4.1540999415,38.338499065,-1.2199999691999999,11.3063246005,-7.3525295265,6.9754980211
1970-01-01 00:00:27.500,6.73400116,-28.643582344,2.559871614,0.6881957650000001,0.09277248350000011,-1.43236041095,2.9157998565,37.069698335,-4.5383998155,-0.08017432700000016,-29.493335723999998,-3.0082234145
1970-01-01 00:00:27.600,-3.0243782031000004,1.2107682225,-4.857130766,-1.8374285099999998,2.00617522767,1.4568707349,-2.1532999875,34.88589859,-11.821799755,-6.243465424,9.5468864435,-7.321636794
1970-01-01 00:00:27.700,-3.4984562395000003,5.206632376,-4.2885363100000005,0.5167767999999999,0.6609367135000002,-0.8533535898499999,-5.008100033,33.952598574999996,-18.013299940000003,-8.5046539305,13.607078075,-10.4567141535
1970-01-01 00:00:27.800,-1.9950159190499999,-11.261221410000001,-11.698210715,1.3689850269,-5.918117523,0.69850384637,-7.771399975,32.94000053,-21.831899640000003,-3.9913196565,-5.0282464035,-5.9496176235
1970-01-01 00:00:27.900,16.195370912,-33.85799217,-13.4686000355,-5.0636947155000005,-3.3188858927,5.480063438,-9.3878998755,32.988798145000004,-21.81969929,5.27712679,-27.860294340000003,-5.867209675
1970-01-01 00:00:28.000,10.449605704,-3.0961627959999998,23.027029036,-0.519525613555,1.188785138565,1.018358707,-6.868599891500001,35.154298784999995,-15.73189974,24.334495546,-0.2891719340000001,39.0357064005
1970-01-01 00:00:28.100,7.2019474505,1.3173984290000003,3.0457640884999995,1.27468553195,0.85289552825,-1.5538427235,-4.5322999955,36.441398625,-9.5586996055,7.713883637,11.716926575,2.16167068485
1970-01-01 00:00:28.200,-1.5830016733,-0.10109676420000002,3.0924240949,3.7735853195,1.5192534925,-1.174964763375,-3.098799944,37.30150032,-3.9283999205000004,-2.3484129905,9.988685606,3.928921044
1970-01-01 00:00:28.300,22.691884995000002,-42.435961725,3.7005003095,3.575136185,-0.6129852533,-7.913220882,-0.28059998901,38.173799515,-2.976799846,18.110332489999998,-39.928246973499995,-0.4105394481
1970-01-01 00:00:28.400,-1.0791630299000001,-2.7333511114999998,-4.362714051999999,-0.15439164649999992,3.8998016715,-1.2086377142,-3.958899975,33.99530029,-9.9429998405,-7.265630483499999,0.6863079055000005,-8.5807061195
1970-01-01 00:00:28.500,-4.8019464014999995,5.456831932,-10.130014897999999,-2.3881073595,1.9117229585,0.87160269935,-6.17930007,31.408899305,-18.202399255,-7.279335499,12.92998266,-14.154881
1970-01-01 00:00:28.600,2.85897451625,-7.405487059,12.478570463,-0.2263188359999999,-0.8531246185000001,-1.40533044925,-7.545699834500001,30.32919979,-23.039699555,-1.7068011760000004,-0.3497982000000004,14.247439859
1970-01-01 00:00:28.700,-1.6790138483000003,-24.9399423893,-15.612569571,1.4244957564999998,-3.7060103415,0.38590276239999993,-9.6257996555,29.572799685,-24.485399245,-8.8662662505,-15.549150466,-15.320166589
1970-01-01 00:00:28.800,28.712973595,-23.915215015,36.8062498545,-4.657939433999999,-4.9697768689999995,5.0695741175,-8.637599945,31.634599684999998,-20.422800065,30.43182182,-23.27328873,38.3230955312
1970-01-01 00:00:28.900,2.4293130635,0.46989059450000026,2.7453152535,-1.12815847985,0.937650502,1.330578029,-8.314299583499999,34.861499785,-12.340299609999999,3.23358786125,9.96954012,3.825483203
1970-01-01 00:00:29.000,4.473830521,-0.10483553984999999,0.04007983199999998,1.06432498063,1.17473560545,-0.9581902919499999,-7.338299989999999,36.246198655,-6.1548998355,4.534337520499999,8.512945652,3.2389906643
1970-01-01 00:00:29.100,10.632806541,-11.46117193895,2.969193816,4.0349514485,0.63131064925,-2.1889711914,-4.2639000415,37.697998045,-1.9276000265,4.047568796,2.3771338484999998,1.6296346786
1970-01-01 00:00:29.200,10.473534109500001,-38.41272974,-2.8292137385,2.553188801,1.3178265988,-4.6514492035,-4.361500025,36.862298965,-4.6420999765,10.096041440999999,-38.489037515,-1.3116073605
1970-01-01 00:00:29.300,-1.36884415498,2.0475084333,-4.298107773199999,-1.8846927885000002,5.393094063,1.09227123875,-7.002799749499999,32.311698915,-12.968599795,-5.527444839499999,8.438438892499999,-9.251055956
1970-01-01 00:00:29.400,-3.1896325350000003,5.426772237000001,-7.4247791764999995,-2.5605952739999998,-2.99269345405,0.061084717500000024,-5.6486001015,29.645999905,-21.16089916,-6.700809002,14.581647874999998,-15.276547905000001
1970-01-01 00:00:29.500,2.995664417999999,-10.4964151976,9.5038428285,2.53272551285,-0.7628718614999999,-0.8010498284500001,-5.9108998775,27.407299039999998,-25.369899750000002,-3.49857676005,1.2362172605000001,7.576012615
1970-01-01 00:00:29.600,9.80668419675,-39.661333084999995,-11.511570451499999,-2.9829199162999998,-3.7587723134999997,3.9298859235,-5.1117999549999995,27.01689911,-25.85789871,1.5465352540000001,-29.079435349999997,-12.554796936
1970-01-01 00:00:29.700,17.532510756500002,-9.39751172,35.5420899375,-2.8885439635,-0.6560498474999998,2.977880478,-3.2268999815,29.926599500000002,-20.483799935,22.4283075020655,-15.182686328,7.8232811675
1970-01-01 00:00:29.800,8.267501592999999,4.0633120163,2.072633028,0.15591876210000005,0.4802023175,-0.2464005202,-2.2691999674999996,30.841599465,-13.987299440000001,6.9563486574999995,12.9968345145,4.6226317285
1970-01-01 00:00:29.900,-0.04845464200000005,0.16570293950000003,2.9225337505,3.7260919809999997,0.80074441445,-1.13968825355,-0.27449998255,32.055500030000005,-8.515599966,-1.9122021789999997,9.763856885500001,5.7176358700000005
1970-01-01 00:00:30.000,20.72752762,-46.107297900000006,1.0981562134999998,4.173537612,1.0426398963,-5.7117271425,2.42779994,33.800100325,-6.026799679,15.965492249,-31.398294928000002,2.4209183455
1970-01-01 00:00:30.100,1.6716856955,-5.474778416000001,-1.95538473125,-0.50181099785,4.9794740675,-0.37276953465000007,1.5005999208,31.293000220000003,-10.113799571000001,-3.3032619954999998,-4.796113015,-6.2248308655
1970-01-01 00:00:30.200,-3.8934216499999996,4.250251293,-10.926076885,-2.704831719,-0.34031832200000034,0.3994940967,0.22569999094999993,30.579298975,-16.884799479999998,-6.497951746,11.5252070415,-17.92595482
1970-01-01 00:00:30.300,0.6529414654999997,-3.7796130185,13.703097107,0.7597412470000001,-2.0002958174999996,-0.746378988,-0.9637999832499999,30.243800165,-20.53259945,-4.6702201367,5.173155545,8.25213957
1970-01-01 00:00:30.400,-1.3664512635,-22.882264612,-13.2963168595,0.7038488088000001,-3.763506293,1.71342659721,-2.9340999125,31.12829971,-22.95429993,-6.9206602575,-12.239201308,-14.37451124
1970-01-01 00:00:30.500,32.9708519,-28.332365035000002,38.67952820425,-4.95580360305,-3.2683382332999997,3.763888061,-2.287499964,33.708599095,-19.94699955,25.91674948,-27.137327194999997,-5.6757912635
1970-01-01 00:00:30.600,4.004687905,0.2962613105000007,2.7859933375,-0.596186936,0.6622347234999999,1.2404781284,-1.0674999954,37.33810043,-13.261399749999999,4.755827665,8.908291337949999,4.8117613795
1970-01-01 00:00:30.700,4.520640254,1.0574780480500001,0.12023937699999987,1.479930229595,1.3993746640000002,-0.9647568761,1.3724999131000002,38.448299405,-7.502999783,5.4093153475,9.358865976499999,5.110544741
1970-01-01 00:00:30.800,6.406034707,-11.7388885005,4.732554436,3.888882637,1.8772864046,-3.9831821915,4.4347000125000005,40.217300415,-2.2936000224999997,0.29215717299999966,2.2386260035,2.9146101475
1970-01-01 00:00:30.900,13.7090795035,-46.875845909999995,-4.581806779,2.1464408711,1.1955808995,-2.415137455,4.0504000184999995,41.0773983,-2.647399962,12.233987568499998,-37.788768770000004,-0.8600525855000005
1970-01-01 00:00:31.000,0.13698911650000012,4.0334017275,-7.7120674865,-2.1236867905,3.4420479238500006,0.9580375852,0.7929999682000001,39.247398375,-10.546899794,-4.3532035350000005,8.9593534465,-12.3031535135
1970-01-01 00:00:31.100,-5.325077057,7.386344193499999,-5.4843494889999995,-1.23459872625,-1.24093621965,-1.19298467035,-2.586399913,39.473098754999995,-17.561899185,-9.49011755,15.767704965,-12.768345830000001
1970-01-01 00:00:31.200,-0.36939191800000004,-8.871838869500001,11.0217900275,1.88820523,-2.6590944530000002,-0.48249295329999997,-7.3504998685,40.81509781,-20.758298875,-4.7971086505,2.1698052885,2.3113508200000004
1970-01-01 00:00:31.300,4.083651068,-35.514722825,-8.68056205075,-4.5665412397,-3.3614161015,5.598873377,-10.211400035,41.260398865,-21.288999555,-0.7075285909999995,-20.022232532,-10.021872997
1970-01-01 00:00:31.400,29.129625438999998,-22.436900138,30.029774308,0.3677300513,-3.16693759,1.568350315,-6.960099935500001,44.38359833,-16.354100225,24.98376751,-16.0379576685,-2.1472663899999995
1970-01-01 00:00:31.500,6.850053072,3.9113676545000002,1.3387843374999997,-0.80150797945,1.7776419225,1.32622578745,-4.7518999575,46.23800086999999,-7.795799971,4.8823154719,12.042566538,7.7875504515000005
1970-01-01 00:00:31.600,0.350099921,0.280708015,3.8406299355,2.0397717652500003,1.09639450895,-0.7779139876500001,-0.9881999343000001,47.238399505000004,-1.04919999825,0.2571153640000001,10.00187874,7.730202198500001
1970-01-01 00:00:31.700,17.408083915,-44.790500640000005,1.6081263719,4.071067810000001,2.065885365,-4.8351614475,3.031699896,48.95859909,3.1049000025,13.784104346,-23.594160556,6.7346806525
1970-01-01 00:00:31.800,3.6059836149999995,-7.085895775,-0.869641423,1.5866758821000002,0.4437805415,-1.6026341172,-0.835700035,46.762599945,-2.086199946605,-1.905425787,-5.982535360000001,-5.2187144755
1970-01-01 00:00:31.900,-2.4976582525,4.700251341,-8.458926916,-2.1940107345,2.9023644776500004,1.531241417,-6.716099739000001,45.396198275,-11.724199770999999,-6.1664619445,12.5241079315,-15.706549169999999
1970-01-01 00:00:32.000,3.243321659,-6.696912288000001,2.393420936,-0.1985253094999999,0.5515187979999998,-1.7241163849999999,-12.19389963,45.39620018,-18.702599525,-4.5228090285,5.1781742555,7.387475015000001
1970-01-01 00:00:32.100,-5.0834021565,-23.2102298145,-11.1178014285,1.464506328,-5.0805693865,-0.42087375652000003,-17.555799485,44.475099565,-22.26499939,-11.230674745,-11.229849577000001,-14.439465045
1970-01-01 00:00:32.200,35.593684675,-27.672844885,12.889088867000002,-4.2145406009999995,-4.2311861515,6.3603708745,-16.103999615,45.329099655,-18.56839943,27.755875588,-24.83669472,-7.17648380935
1970-01-01 00:00:32.300,4.913212538,1.6118652820000001,7.125377178,-1.4727528095500002,0.9701017739000001,1.06585209075,-12.797799585,48.177799225,-8.973099949,2.1165277363,9.5816912675,15.19361067
1970-01-01 00:00:32.400,3.52821701765,-0.7212864755,2.3347967269999996,1.8950009048999998,0.5807630124000001,-1.00522553945,-8.344799757,48.379098895,0.12199997899999993,3.73880511515,7.8743152625,5.702914357
1970-01-01 00:00:32.500,5.767898916,-8.4230347563,1.3772189615000001,3.9524872305,1.00385111575,-1.9414252489500001,-3.336700022,50.690999985000005,5.685199976,0.23197722450000002,2.935218334,0.929887295
1970-01-01 00:00:32.600,16.140485525,-44.79902363,1.5329020020000002,2.598391533,-0.6126034258499999,-4.7449852230000005,-2.2203999759,50.587299349999995,3.7149000165,16.002811668,-34.871674535,9.2114105245
1970-01-01 00:00:32.700,-0.33095717400000013,2.2630119915,-5.7501025622,-1.922107279,6.29501009,1.4252593818000001,-9.375699520000001,47.64099884,-5.496099949,-5.384397030000001,8.2921772005,-9.006013154
1970-01-01 00:00:32.800,-5.434100151,7.482057333,-8.312964917999999,-2.776911616,-2.3189288975,-0.48531815419999996,-13.73719931,47.756898879999994,-16.86039972,-8.218793868999999,15.07057905,-15.088969705
1970-01-01 00:00:32.900,2.3264216185,-8.78465034625,16.052998065,2.233410239,-1.5139086245,-0.30160582049999995,-17.940099715,46.786998749999995,-23.247099875,-5.0604269505,0.7702312469999999,4.046209335
1970-01-01 00:00:33.000,7.634150741999999,-36.88401413,-8.844470261,-1.5970600845000003,-2.6606979964999997,3.7291461824499996,-20.020199775000002,47.88500023,-24.70499897,-0.5895414365000002,-25.324914935,-9.706687690999999
1970-01-01 00:00:33.100,28.037749292,-20.443828344,35.455797314,-3.5409288405,-1.0835665459999997,3.069202065,-16.219899655,51.734098435,-16.354099275,24.188438656499997,-13.888040780499999,-7.7429500815
1970-01-01 00:00:33.200,8.9208912845,4.67751956,3.5199917258,0.36467581123699994,0.9876636863500001,0.012598752950000014,-12.84659958,52.54539871,-4.703099966,6.368920087999999,13.294611456,6.8376114365
1970-01-01 00:00:33.300,0.5235795006,-0.27472597350000005,2.720190704,3.734949112,1.732668281,-1.395022452,-8.7351999285,54.289999005,4.873899937,-1.36220446245,9.410539627,4.5988878015
1970-01-01 00:00:33.400,17.83056736,-44.074747085,0.7689933774999997,3.9159126279999996,1.0635614397500002,-4.9111356735000005,-4.416399955999999,55.88819885,8.497299671,13.3609561905,-32.115396025,-2.4611318709
1970-01-01 00:00:33.500,2.139781654,-4.7481079105,-1.6633108703500001,-0.8560260834000001,4.510114312000001,-0.05360183105000005,-8.7595996855,52.70400047,0.11589992049999998,-3.1351592545,-3.578311920000001,-5.8784241675
1970-01-01 00:00:33.600,-2.8555346725,4.1914775375,-10.650752785,-2.6754345895,0.03703260450000001,0.60557872055,-14.585099695,50.58119774,-13.389500143,-5.903502703,12.434183122,-17.433669090000002
1970-01-01 00:00:33.700,-1.95179542135,-8.037640929,8.639584782,1.8061226605000003,-1.9986922145000001,-1.05768200735,-17.580199245000003,48.494998929999994,-24.735499385,-5.273795724,-1.2537198050000002,8.914155959999999
1970-01-01 00:00:33.800,0.5835496185,-16.7533473945,-13.130015849,-1.049435556,-2.8165403600000003,2.13430027685,-20.166599275,44.90819931,-31.07339954,-7.90731287,-7.3932580935,-18.65570927
1970-01-01 00:00:33.900,24.000160694999998,-28.01277399,26.024339317,-5.6107085349000005,-3.039957702,2.5370014904500002,-18.519599915,46.603998180000005,-27.529299735,27.282567025,-28.088815689999997,38.934553862
1970-01-01 00:00:34.000,2.7189943785000006,-0.15134608750000011,6.2766730785,-0.26686394199999997,0.90764266255,0.6870504617500002,-16.689599035,49.8796978,-14.670499805,3.36483383,8.4333205246,6.68777763745
1970-01-01 00:00:34.100,1.7243276835,2.6352454721500003,6.493372917,3.3078143595,-0.15744587780000002,-1.4612230065,-15.23780012,51.447399135,-3.0987999439,1.7703561185,10.2659754775,4.795755267
1970-01-01 00:00:34.200,17.595920087,-24.777080299,10.7309125665,4.0433506965,2.6965088845,-4.1378793720000004,-12.779499529999999,54.08259964,4.0198999645,10.96831417115,-11.1703593735,7.0372293
1970-01-01 00:00:34.300,7.397112011,-25.291836022,1.4071293172500001,0.5255576370000001,2.625879586,-0.8330429195000001,-12.864899635,51.734098435,0.8295999765,1.2166650295,-25.975566624,-4.781319379499999
1970-01-01 00:00:34.400,0.30583262450000004,5.0425746445,-10.685598133500001,-2.350463927,2.105208695,0.6453601235,-15.249999525,45.280300139999994,-13.786000249499999,-2.485366106,11.862151145,-13.059392927000001
1970-01-01 00:00:34.500,-0.9248260260000003,2.2654048203,16.8299181485,0.6568135024999999,-1.247579217,-1.596907437,-14.84129953,41.67519951,-26.791199685000002,-7.4728369709999996,12.301355359999999,-5.651259898249999
1970-01-01 00:00:34.600,-0.05443671345000001,-6.256333947,-7.812566042,0.7369872331999999,-4.012655735,0.5887040496,-16.1954999,38.277498245000004,-33.604898455,-3.71653223055,-1.2360107899999995,0.5376310330000003
1970-01-01 00:00:34.700,17.5803668515,-40.30395699,-7.75872755,-2.8311242757999997,-2.1029180285,3.0951629874999997,-15.6953001,38.088399890000005,-33.89769936,7.5519433045,-31.514175414999997,-12.5455192305
1970-01-01 00:00:34.800,10.3453691002,-2.5861926054999995,19.49327898,-4.104817152,-3.0890545847,2.576630056,-13.737199780000001,43.852899555,-22.91159916,15.109274147499999,1.9159476755,45.675059795
1970-01-01 00:00:34.900,7.366005658000001,1.2047860625000002,6.2023460885,0.81555745005,0.010766208000000055,-0.68086562506,-13.035699845,46.634500505,-10.864099977,7.486873387499999,10.98620081,6.592792988499999
1970-01-01 00:00:35.000,0.03290128700000006,-1.9817058517,2.52263316505,3.8423056605,1.5278054027999999,-0.8145648538500001,-11.0836997,48.385198595,-2.22039991595,-1.8043662903500002,8.4306139945,3.4096691312
1970-01-01 00:00:35.100,17.5229394435,-43.651067735,11.255239786499999,4.2820391655,0.9507837294999999,-4.551881075,-8.417999744,49.958999635,0.012199997899999981,14.3995513925,-38.37471008,9.487730501
1970-01-01 00:00:35.200,2.4892832040000004,2.138435781,-4.5026940105,-0.4397336245,4.1502489444999995,0.32603970155,-10.4187998785,44.786199569999994,-10.3822000045,-3.4749616385000004,6.066267493,-9.494463918000001
1970-01-01 00:00:35.300,-4.28853631,3.8358442784999998,-11.7725379455,-2.4097160105,-0.11529743650000002,-0.36879903075000003,-11.309399605,40.49180031,-23.17389965,-6.81212163,11.807773115,-15.413161755
1970-01-01 00:00:35.400,2.4749264715,-3.2733813652199997,13.023235558499998,1.5755277875,-1.950816989,-1.01904596097,-11.864499565,36.898900985,-31.12829876,-0.49855947449999993,4.312084436,24.07007313
1970-01-01 00:00:35.500,2.910569668,-30.16496849,-9.9948201205,0.3403182691,-3.584757173675,2.2046240864,-13.82869959,34.08069992,-34.233198165000005,-3.59110021595,-17.205848455,-10.4228496555
1970-01-01 00:00:35.600,27.780371665,-23.6087856285,-1.3520936950000007,-4.048390448,-3.75503087,4.0283085110000005,-12.73070002,37.094099045,-28.822500225,29.663563725,-10.4608154305,12.894034383500001
1970-01-01 00:00:35.700,2.7524939180000003,1.646560967,3.07328157105,-1.23765289765,2.0786368252,1.05287165945,-11.644899370000001,40.906599045,-18.287799835,3.590391278,11.172095774999999,7.8995375635
1970-01-01 00:00:35.800,2.6521449085,2.7000012399999997,7.065407038,2.1019254029,0.59214007855,-1.0944855810499998,-10.333399775,44.023698804999995,-9.6624000075,2.6271159649999998,11.508803369999999,7.065715313
1970-01-01 00:00:35.900,16.8705964085,-21.4097807395,11.066056698999999,3.5348204374999996,2.5394448040000004,-3.9229373935,-6.655099868500001,47.104200365,-4.2272998095,9.7063925275,-5.936819793999999,2.7280882595
1970-01-01 00:00:36.000,6.422634861700001,-28.796722414,-1.465753413975,2.0998639239,-0.27213251550000006,-2.8165403900999997,-7.118699789000001,45.548698425,-7.7409000395,0.3527724744999996,-31.271422387500003,-6.668026209000001
1970-01-01 00:00:36.100,-2.1888345333499997,2.9045876265,-6.7197936775,-1.838573873,3.2491730004,1.2088667155000001,-11.43139982,40.13189888,-17.519199845,-6.5674171445,10.3711571695,-9.819588898
1970-01-01 00:00:36.200,-1.0169496535000002,2.085943114135,17.360227821000002,-0.5937435629999999,1.1685508489999998,-0.5463265181500001,-14.957199575,37.197799685,-25.601699824999997,-8.5302295685,13.83476877,5.7103967644999996
1970-01-01 00:00:36.300,-2.2332513335,-7.4318077559999995,-9.597462414999999,1.4477080105,-5.967672348000001,-0.6274164617499999,-16.82380009,34.44059944,-30.56709957,-6.743733644,0.39583730650000015,-10.401604414
1970-01-01 00:00:36.400,21.091385365,-39.598970415,-8.2567338935,-5.6365929244999995,-2.0067859290000003,5.8939888475,-17.763199805,35.25189781,-30.085199355,10.632722736,-33.68387413,-8.9680616835
1970-01-01 00:00:36.500,6.104240062,-0.7739284034999998,6.3006011245,-0.77058386785,-0.36406499150000005,1.2729293407,-14.761999605,39.86959839,-21.801400185,11.513224600500001,6.132874727,25.471906185
1970-01-01 00:00:36.600,7.687989471,-0.6014957430000001,3.613311827,1.7635923624999998,-0.02443391100000003,-1.03630238765,-11.91939974,42.272998805,-13.51760006,8.174773456,9.394547937999999,6.440587163
1970-01-01 00:00:36.700,1.9695922135000001,-1.4513964655000002,2.79676093175,3.1894625425000003,2.2068383695,-2.1236869095,-9.43669939,45.011898044999995,-6.960099697,0.026843309000000204,8.806984422,5.095390439
1970-01-01 00:00:36.800,19.12463498,-44.004009245000006,13.338041961,3.4919084309999997,-0.6607840359999999,-4.0460231305,-6.392799854,46.79309845,-6.289099931999999,13.651226283,-33.70508957,5.4023036935999995
1970-01-01 00:00:36.900,1.1413764061000002,1.43823598325,-3.044717312,-1.49054372335,4.331823349,1.3616548775,-9.869800092,42.87079811,-13.74939919,-4.2431203125,7.3178210235000005,-6.739948511000001
1970-01-01 00:00:37.000,-4.1615674495,4.1747276785,-11.173883201,-1.7020495530000002,-0.45454671604999997,-0.06681141255,-11.84009981,39.253499985,-23.277599334999998,-8.442797422,11.447523595,-11.354102137
1970-01-01 00:00:37.100,2.3288145365,-3.09257373215,11.197661875,1.73564612865,-1.9424942134999998,-1.522154987,-13.0539999,36.31939888,-29.77409935,-1.1243207454999997,5.305821657,14.363150595
1970-01-01 00:00:37.200,5.1885366445,-27.921848294999997,-5.788387537,-2.551050782,-0.5530458684999999,3.2166454194,-15.109699724999999,34.135599135,-32.336099625,-4.126369237995,-18.420634506425,-8.8352804185
1970-01-01 00:00:37.300,19.5542960155,-23.76925421,-11.619247794500001,-4.151394248000001,-2.0434367659,2.5116511585,-13.554199695,37.05139923,-27.59029865,18.128214835,-13.2664742459,-0.5189082625000005
1970-01-01 00:00:37.400,5.7260246854,0.8277671340000001,6.3843497314,0.6919372080499999,0.8984035850000001,-0.11041063099999993,-12.108500005,40.022100449999996,-17.012899875000002,3.768891575,8.867586613,13.441597940000001
1970-01-01 00:00:37.500,-0.5249254705,0.72846496105,0.5081756115,3.1435727475,-0.07811212550000002,0.4894413650499999,-10.345599652,42.43769836,-7.801899673,-1.6391749385,9.169738053,5.867673755499999
1970-01-01 00:00:37.600,16.0601767325,-25.9920363405,10.32144023405,4.114209056,2.214703083,-3.937063217,-5.740099907,45.823200225,-2.3728999495,11.60419440035,-12.242143629000001,10.966273306000001
1970-01-01 00:00:37.700,4.9156053065,-25.2332129475,-1.9494026601499999,0.855567932,3.5209235623,-0.7017871441000001,-3.952799916,44.670299529999994,-6.5574998855,-0.8770627974999998,-27.8377401845,-7.15983081
1970-01-01 00:00:37.800,-1.2384351489999998,6.2792150975,-10.872238638,-1.692199588,3.72906971,-0.06459710002,-4.0808999534999995,40.436899185,-18.19630003,-2.1876199244000003,13.58866787,-15.585979940000001
1970-01-01 00:00:37.900,-0.576371193,0.13818562,16.185800555,-2.0931444466499998,-2.46820478883,-1.159540802,-2.9584999085,37.795598985,-27.2730999,-4.605872452,11.2557849875,5.1735658650000005
1970-01-01 00:00:38.000,-2.970539689,-7.6054370405,-9.9972133645,2.9125196935,-3.171824276,-0.6355865897499999,-5.0141999725,35.611799239999996,-32.427598950000004,-8.240873337,-2.6893260480000003,2.5205006604999998
1970-01-01 00:00:38.100,26.8108294,-44.81696892,-11.1786692145,-2.861590266,-2.320226908,4.8059170245,-7.8933997155,35.03840065,-32.055499075,13.973545432000002,-32.390060425,-12.398578165
1970-01-01 00:00:38.200,4.6187460445,-1.0636098385000001,13.2698469175,-2.6973487735,-1.9613540170000001,2.189963818,-9.284199715,38.393400189999994,-23.661899570000003,11.442199229,5.737897395999999,26.6035157445
1970-01-01 00:00:38.300,9.7504529965,2.5861927270500003,7.345666405999999,0.10804360734999995,0.8929823636499999,0.04161396624999997,-10.321199889999999,40.28439903,-15.05479956,9.2504148505,13.118593215,7.7643482665
1970-01-01 00:00:38.400,-1.1617155075,-3.0853952170000003,2.9321050645,3.3446177245,1.0987615287999999,-1.326378465,-8.655899763,42.840299605,-8.1434998515,-3.0808677675,7.042241573,5.266750932
1970-01-01 00:00:38.500,19.631016255,-42.675394055,2.9644082785,3.895678401,1.7689373494999998,-4.5990691185,-5.4594998355,44.54829788,-6.0328998565,13.77117443,-31.29605007,-4.2945771215
1970-01-01 00:00:38.600,0.5715855101815,-3.6623644840000003,-2.315803647,-0.29366487250000006,2.350922048,-0.5954234002000001,-7.3809998035,40.314899444999995,-13.359000205000001,-4.7164942025,-1.1859359749999996,-6.4944131375
1970-01-01 00:00:38.700,-4.784149885,2.3875883815,-8.17283535,-2.2205824855,0.5186092855,1.30553329,-9.2231998445,36.54509926,-23.039699555,-8.7695627215,10.0138916955,-11.896467209
1970-01-01 00:00:38.800,-1.43479627385,-1.7961125374999998,-0.6230312585000002,1.63882684695,0.16447062976999996,-0.6351284233550001,-9.5342998505,33.97699928,-29.20679951,-2.7726483345500004,3.2803211214999997,0.21781444549999973
1970-01-01 00:00:38.900,1.1089237925,-19.830817222,-8.965457798,0.6665107161,-4.1338324545,1.2551383375,-9.9978995335,31.689498905,-32.14699936,-7.0552034379999995,-13.483092906000001,-12.603523611
1970-01-01 00:00:39.000,25.563571924999998,-22.178325174999998,16.275680123,-5.395766497,-3.3843229710999996,3.4661765100000004,-8.600999832500001,33.671998974999994,-29.462999345,27.97946358,-19.360281945,40.5868408695
1970-01-01 00:00:39.100,4.333850503,-2.0235802533,6.4239809515,-2.0215989499,1.8436133263499999,1.37516990315,-7.441999674,37.03310013,-21.179200175,4.8522948029,8.185137748,10.725094555
1970-01-01 00:00:39.200,1.4896817205000004,0.5667998866000001,2.6291138530500002,2.4491920470000004,0.60168454055,-0.6401679218,-6.075599909,39.033899305000006,-13.157699585,2.1383803485,8.3831772815,5.0707857605
1970-01-01 00:00:39.300,12.0596766455,-16.6923305387,8.049455035365,3.6759260895,2.7375119925,-3.3607289493000003,-3.556299925,41.711797715,-7.1430995465,6.2125435164,-2.9943633075000005,4.7815784815
1970-01-01 00:00:39.400,9.244071605,-30.0082390305,0.25199413299999973,2.3767303602,0.386819005,-2.0868070387000004,-3.8734998705000003,40.84559822,-7.8323998454999995,4.965017797,-33.0975165345,-5.979126572999999
1970-01-01 00:00:39.500,-2.492872550895,2.88305223,-7.156483652,-1.7312937975,2.71407061825,0.7465316951500001,-6.106099844,36.59389877,-15.939299585,-5.8231618405,10.3593726135,-10.507409573
1970-01-01 00:00:39.600,-1.470539093,1.2047860620000002,18.611076118,-0.015729308000000053,0.63344860095,-0.894204013085,-6.8197999,34.129499435,-24.162098885,-8.166262388,13.37862301,-2.119498728
1970-01-01 00:00:39.700,-1.1030912101,-5.5573306085,-11.184651376,1.5417020915,-4.4157384635,-0.6988092808499999,-8.3935997485,32.01279926,-29.170199394999997,-3.4683973788,-0.01503372199999986,-6.384778499499999
1970-01-01 00:00:39.800,20.819651603500002,-43.28107833999999,-12.67493105,-5.864286184499999,-3.5549019575000003,5.9033041,-9.851500034499999,31.49429989,-28.938399314999998,8.897166727,-33.21459198,-7.908352197500001
1970-01-01 00:00:39.900,6.8739807619999995,-0.8816056249999997,4.488187551,-1.30912202585,-0.20822256799999994,1.75045922395,-8.9242997165,34.916399,-21.044999125,8.798259735,4.702366352,11.673606396
1970-01-01 00:00:40.000,8.4625160715,0.5356931685,2.625674188,1.34516200405,0.387658894,-0.58519168195,-7.7530999185,37.905399325000005,-12.49279976,8.454554318,11.279523371,8.23057305726
1970-01-01 00:00:40.100,1.221535921,-2.6533410922850003,3.83105853225,3.7839696409999997,1.8365886805000002,-2.1045215426499997,-5.6486001015,40.937099454999995,-5.6547000405,-0.7417806980999999,8.048350571,6.930701257
1970-01-01 00:00:40.200,19.075582502,-45.098276139999996,9.677472411799998,4.325562119500001,1.2404016853500002,-3.7699203490000004,-2.561999917,42.510900495,-3.507499814,15.958665847999999,-39.612766265,6.376989485
1970-01-01 00:00:40.300,1.7123637497000002,0.28429734699999987,-5.375326633499999,-1.4887111185,4.9342713355,0.751952976,-3.7026999,38.98509979,-10.955599786,-4.365362406,4.415855885,-9.9951543795
1970-01-01 00:00:40.400,-5.364558935,6.462266207,-14.04556942,-1.8942373098499998,-2.37001100205,-0.49043399561999995,-4.196799993500001,36.12420082,-20.44719887,-7.845283508500001,13.2744751,-17.58020782
1970-01-01 00:00:40.500,0.269940317,-3.65279328805,12.853195665,2.1937816144999998,-2.183778882,-0.74187399445,-5.4045999049999995,34.300298690000005,-26.992500305,-3.031604051625,2.8588683605,20.19672775
1970-01-01 00:00:40.600,5.097609402,-30.17708206,-7.4463143365,-3.6090382633,-1.1241880655,4.1197829245,-7.2711999415,32.58620071,-30.00589943,-2.6495089529999998,-16.6104643365,-10.1333956735
1970-01-01 00:00:40.700,22.560130834,-26.554648874999998,-7.48579596215,-2.9070221185,-2.99536562,2.2256219385,-6.282999754,35.373899455,-25.46749973,23.63687515,-17.434872151,-2.9259076100000003
1970-01-01 00:00:40.800,6.377171516,1.7877376079999996,7.284649229175,0.5136462003,0.6960604191499999,-0.373914891855,-6.813699722,38.55809784,-16.415099145,4.1827253110000004,9.6984746475,12.078519821
1970-01-01 00:00:40.900,-0.8554340600000001,1.41789702128,6.903891324,3.5989594460000003,0.5057815313,-0.6562026739,-6.1609997750000005,40.729700089999994,-8.582700015,-0.6464886664999998,11.1100816745,8.6070332525
1970-01-01 00:00:41.000,18.1992106445,-34.8993191695,6.877570748,3.6040753125,3.133722782,-3.2190886438,-3.1292999985,43.297798155,-4.385899901,13.264332296,-13.534456253000002,7.951814844649999
1970-01-01 00:00:41.100,5.6685967445,-12.9311122905,-1.9567307235000002,2.60091118138,0.664525509,-2.2466962857999997,-4.21510005,41.888698575,-7.856800078999999,0.19485926600000003,-13.766160488999999,-5.185305357
1970-01-01 00:00:41.200,-3.779762328,3.75822711,-11.420493605,-1.942265213,3.260015450665,0.14179292320000006,-5.2093999385,38.753299715,-16.781099795,-6.1534142495,11.183077335,-17.06807995
1970-01-01 00:00:41.300,-3.4996525647,-2.611317396,2.700001001,-0.5709131954999997,-0.36406499150000005,-0.9462024197000001,-6.045099735499999,37.28319931,-23.765600205,-6.30175543,7.2007484455,9.291169165
1970-01-01 00:00:41.400,-3.9568314555,-12.0309630465,-11.93883896,1.8398720025,-4.7126102445,-0.6501705728999999,-8.899899721499999,36.21570015,-27.474399570000003,-7.2887592315,-0.35240602500000007,-14.054888725
1970-01-01 00:00:41.500,26.938996314999997,-36.562030789999994,-10.769347072,-5.85642153,-2.2537208795000003,5.174563408,-10.016200065,37.45400047,-25.870099070000002,18.96572709,-32.92581749,-9.1857211595
1970-01-01 00:00:41.600,4.615156531,0.7019944174999999,4.506283284499999,-0.58175569785,-1.4667969348,1.7435871064500001,-10.0588998785,41.309200285,-17.750998975,1.3423929214999997,5.722951413,10.962558747
1970-01-01 00:00:41.700,6.3725353479999995,-1.4968600269999999,3.98659217335,0.9565868079500001,0.47966779760000006,-0.3911713213,-8.948699951,43.4197979,-9.9795999525,8.1856186405,8.9166936855,10.030081508
1970-01-01 00:00:41.800,4.5708897115000005,-8.41107048105,3.715006828,3.8914024830000002,1.87064331785,-1.5745352207999999,-5.703499794,45.451099395,-4.385900021,0.247421503,4.39163446435,2.51485675585
1970-01-01 00:00:41.900,10.923683999,-47.37026119,-2.28589341035,3.9573738575,-0.009620904999999791,-4.3300670385,-3.2268998625,45.65849876,-4.8494999409999995,11.69095063246,-35.738323210000004,3.1780281065000002
1970-01-01 00:00:42.000,0.6577270030000002,4.421338081,-4.35314248505,-1.528874338,4.477968454,0.40224291385,-5.5448997025,42.39500046,-13.523699285,-4.1741276979999995,10.6695804595,-8.2905187595
1970-01-01 00:00:42.100,-5.5489556790000005,5.849404335,-8.017302036,-2.5245554445,-1.31889560835,-0.26151899995000005,-7.1247999669999995,40.302700040000005,-23.100699425000002,-9.689133168,13.063732145,-15.195557118
1970-01-01 00:00:42.200,1.3616656065,-6.21924507515,14.084902046,2.290830016,-0.38017606699999984,-0.8593857437000001,-9.888099668999999,38.75329971,-27.834299090000002,-2.9646301270000004,2.1853997707,6.1239481
1970-01-01 00:00:42.300,4.827071071500001,-33.65325546,-11.844322682,-1.6479896006499999,-2.01029836394,2.6952871459,-12.053599835,37.66139984,-28.852999685,-2.2406740190000005,-19.720900535,-11.8595192415
1970-01-01 00:00:42.400,24.950708865000003,-22.500308753,-6.0948182363,-4.0749621389,-4.31227639305,2.3397741020500002,-10.620099545,40.81509781,-23.247099875,23.09174395,-16.6019887935,-5.7059822105
1970-01-01 00:00:42.500,6.3053867815,4.9899325354999995,3.443271577,-0.05596888065,1.01950407045,0.16065281609999998,-9.6746001265,43.688199995,-15.036499975,3.0122888085,12.808661221,11.499317883
1970-01-01 00:00:42.600,1.2958630325,-1.5279668717500001,2.94765836,3.6375190020000003,1.5585767627,-1.5948458315,-7.637199879000001,46.695499420000004,-9.6928997055,-1.8202110530000002,8.218353033,6.5201482775
1970-01-01 00:00:42.700,18.474684715000002,-44.56916237,3.2995526765000003,4.01945138,1.4250302915000002,-3.8852939604999994,-5.349699974,49.599100115,-7.4724998475,13.615047455,-34.952858925,-5.4138659224
1970-01-01 00:00:42.800,2.16131708005,-2.5646572115,-5.491528034,-0.77615781125,4.769113540499999,0.8548807053,-4.9592998025,46.152599335000005,-13.71280003,-2.946279764415,0.9510593399999996,-8.862838745
1970-01-01 00:00:42.900,-4.223780751,2.9442186355,-11.3463165775,-2.557388425,-1.01782426245,-0.6341358125,-3.208599925,42.193698885,-23.576499935,-5.822838068,11.406519410000001,-16.23864031
1970-01-01 00:00:43.000,1.38918307405,-3.7247275114999994,5.135894656,1.6873891950000002,-2.7324724644,-1.0702044068,-3.3244999645,40.064798355,-29.83509922,-4.2657079695,3.438852308,-2.3198640345
1970-01-01 00:00:43.100,-3.5403307680000005,-21.57623104865,-12.873684644,1.10005957612,-4.602734282749999,1.723047495,-4.8555998805,38.137199405,-32.72649956,-10.809360985000001,-9.561730383499999,-16.005682469499998
1970-01-01 00:00:43.200,28.16352272,-26.22204542,41.393288133,-4.80797879415,-0.38926231850000015,3.893540442,-6.106099844,39.686599735,-29.749699595000003,25.298778535,-26.161566735,10.7779520745
1970-01-01 00:00:43.300,3.8730828750000006,1.3018451924999996,7.0440211295,-0.8036459086000001,1.17557555455,1.25391666975,-7.3322000505,43.047698975,-21.856299399999997,5.6747870445,11.489047048,6.5553077446
1970-01-01 00:00:43.400,2.58978194,0.40648072944999997,1.4250752925000003,2.4615617395,0.39819607160000003,-1.035157025,-6.1609997750000005,45.213199615,-15.018199445,4.246006191019999,8.6257290845,5.826481819
1970-01-01 00:00:43.500,15.685400846,-23.6135693785,8.6445206232,3.346297622,3.9647805094999997,-3.9755468370000004,-3.2025001050000004,47.98259926,-10.1687002165,9.8610640156,-9.3292200565,9.2048180695
1970-01-01 00:00:43.600,3.9915270205000004,-30.050114155,-4.050301075,1.696017295,1.2620104555000002,-1.624777350745,-0.9637999534999999,47.958198545,-12.35859966,2.4030466095,-28.98104095,-9.6162037855
1970-01-01 00:00:43.700,-2.92268335815,4.694119811,-11.567802193,-2.4792762995000004,0.9404757619999999,0.7446991503,-1.8299999235,43.956600185,-21.459799765,-6.2803156375,11.23156643,-14.235022067000001
1970-01-01 00:00:43.800,-0.7559823990000001,-1.533948779,17.6606767175,0.9717053174000001,-0.29763531690000006,-0.6547519117999999,-2.7266999485,41.19329834,-29.688699725,-5.0180852412,11.380387305,18.3739776625
1970-01-01 00:00:43.900,-0.520139873,-6.690930247,-8.174181223,1.0191986113,-5.463876009,0.6631510409000001,-3.4220998290000004,38.368999485,-35.306800845,-5.2293133735,0.8276655673195,-9.229753494499999
1970-01-01 00:00:44.000,21.3104789255,-41.144435885,-11.2386393545,-4.416349411000001,-3.5962105689,5.652551651,-5.069099903,37.08189964,-35.245798109999996,6.6100587855,-31.765922545000002,-7.7914150375
1970-01-01 00:00:44.100,7.775327682,0.27472591400000024,9.6332049365,-2.295716763,1.611262321,0.7010999322,-4.446899891,40.497900005,-28.22469997,14.9563340545,6.397462845,24.901970269499998
1970-01-01 00:00:44.200,7.630562065,-0.8816056255000002,4.48938408515,0.10414946080000007,1.1163233521,0.054899901149999986,-4.416399955999999,42.96839905,-20.331299785,8.5221588605,10.91530323,9.4246273025
1970-01-01 00:00:44.300,4.0154557215,-6.62153842795,-0.13713860500000008,3.7925215960000003,2.1175020189000002,-1.452213049,-4.0259999035,45.341299055,-14.158099655000001,-0.22543215750000023,6.2938432695,4.9658095835000005
1970-01-01 00:00:44.400,14.9349521395,-49.070063595,3.8621654524999998,4.3532030585,0.6538356540000001,-4.6912305355,-1.7506999374999999,45.890298845000004,-13.371199610000001,14.1700105645,-38.153749465000004,7.506410837999999
1970-01-01 00:00:44.500,1.2047861219999998,5.593222856500001,-6.4251774525,-1.0294303598,5.056288242,0.608022066575,-2.7693998815,40.61989975,-20.2276001,-4.0173705815,9.699410439,-11.740751265
1970-01-01 00:00:44.600,-6.438338041500001,6.44910574,-8.930612326999999,-3.119062424,-0.18546849490000003,-0.32848312287000003,-1.7445999385,35.922899244999996,-28.005099295,-9.653207779,14.195004465,-17.05868435
1970-01-01 00:00:44.700,1.2107682376,-10.214959384,11.021790027500002,2.2981600765,-2.3609247205,-0.8295305667,-0.9698999524999999,32.799699785,-32.665499685,-3.8575212955,-0.40458464650000003,3.5820665399999996
1970-01-01 00:00:44.800,2.7560830109999994,-30.82822895,-12.4008033265,-0.26335144050000014,-2.859910488,2.68284118155,-1.5432999729999999,30.640298845,-34.519899365,-3.0237033364999997,-18.4536314,-13.909770011500001
1970-01-01 00:00:44.900,30.081220625,-26.535506012,-6.476772665,-4.4304752054000005,-3.3435487745000003,2.79401537755,-0.7258999646,33.891599655,-30.29259872,27.230547905,-18.5687279717,0.08712196500000147
1970-01-01 00:00:45.000,4.040729701699999,4.9875397685000005,6.40005269655,-1.10166306775,1.7845902439999999,0.8325848577499999,-2.061800003,36.93549919,-23.491099355000003,1.7159428595000001,12.4178817295,12.9123296755
1970-01-01 00:00:45.100,0.609870672,-1.7542380690000003,3.2923744916499995,3.2578774690000003,0.6346703099000001,-1.530401468,-2.5619999169999996,38.7166996,-18.36099911,-0.5183475015000001,8.327781675499999,8.7757725715
1970-01-01 00:00:45.200,20.113319394999998,-46.359889985,0.5654540060000002,4.565243483,0.8276980372,-5.406379938000001,-1.5127999779999999,40.668699265,-16.280900005,16.385077475,-32.8263292315,0.757650912
1970-01-01 00:00:45.300,1.7231314180000001,-4.834399225,-4.107728719500001,-0.3370349410000001,4.19560436925,-0.89321136465,-3.4891998765,36.295000079999994,-20.2397995,-4.612565397999999,-2.8021898299999997,-7.1043663025
1970-01-01 00:00:45.400,-6.0816578865,4.395016908500001,-13.272389414500001,-2.3805481195000002,0.36589750665000004,0.29969695215000003,-3.910099864,29.944899555,-27.443899155,-8.953697681,11.454061509999999,-18.3284235
1970-01-01 00:00:45.500,-2.665305257,-2.810071111,-1.2480068199999996,0.5831300784100001,-0.7404232024999999,-1.0854755642,-4.0260000225,25.50409889,-32.927800180000006,-6.344556094,3.0829072005,-0.3674426079999997
1970-01-01 00:00:45.600,0.2518445254999999,-23.35499537,-6.4215881825,2.1688895825,-5.906587719499999,2.3421412109999995,-4.6786999705,22.66759968,-35.44709969,-9.730423929,-16.5960218925,-8.089975237885
1970-01-01 00:00:45.700,31.10818958,-24.743581533500002,2.8852953899999996,-5.21365782645,-1.9222600460000003,3.464420289,-3.7880998850000003,24.930699349999998,-33.574398040000005,29.584571835,-14.2262964265,32.705840585000004
1970-01-01 00:00:45.800,3.2889347100000004,0.17542386050000003,6.49083045645,-1.51856625065,1.7553459405,1.20352185909,-4.361500025,29.00549984,-27.25479889,3.5608770825,9.631949187,7.171240331
1970-01-01 00:00:45.900,-1.3138091565,0.9892826675,6.566353978,3.3502682445,-0.40506808445000003,-0.393691048,-4.410300016500001,31.18319893,-21.91119957,-0.7657642364999999,11.2315998055,14.1394107345
1970-01-01 00:00:46.000,18.643378972500003,-22.0046966065,7.6365438685,4.158648014,2.7329306605,-4.405201316,-2.06179991375,32.598400115,-20.520400045000002,11.67342656965,-8.821224211999999,6.4244246464999994
1970-01-01 00:00:46.100,8.157281877,-25.628176631499997,0.6852445604999999,0.9227611424999999,1.5078001020000003,-1.75106998509,0.95769995455,29.444699285,-23.09459877,1.7878711225,-29.1946160805,-4.2050218581
1970-01-01 00:00:46.200,-4.360321045,5.3633625505,-11.37861967,-2.904425979,2.046261907,0.24013933534999996,3.153699875,22.533399584999998,-27.80989933,-7.4859540465,11.51716328,-15.986053465000001
1970-01-01 00:00:46.300,-2.3229821325,-3.1165018064999996,7.8795649994999994,0.8086090085000002,1.10364832,-0.81487023815,6.0633997915,18.007199290000003,-30.359699245,-5.3159024706,6.67716431775,16.729870318000003
1970-01-01 00:00:46.400,-4.0323547125,-9.0779203795,-12.524183271,1.7083107529500001,-5.160819292,0.38491013644999994,8.619299412,16.60419941,-30.231599805000002,-7.872355938,-0.64113450061,-9.877246381500001
1970-01-01 00:00:46.500,24.968654871000002,-40.92175484,-18.973886967000002,-5.708291292,-4.91212813565,5.5451951025,9.9185996075,17.68389988,-29.13359928,12.281967519499998,-28.318583485,-9.698728084999999
1970-01-01 00:00:46.600,7.4808610655,-0.3943672185000002,16.355840205,-0.7901309133000001,0.65979138784,1.3741008935,10.339499474,21.325599670000003,-25.809099195,18.350743892500002,4.4865841885,41.8556609175
1970-01-01 00:00:46.700,6.003741622,2.1529421805,2.8698916138999997,1.35944060984,1.2394090891,-1.0690590441999999,9.6806998255,23.009200094999997,-23.66799927,8.764266968,14.23847103,9.670001743
1970-01-01 00:00:46.800,3.9281172750000004,-5.34541612234,-0.30104696750000004,3.256808519,2.2924333215,-2.9704738854999997,9.900300026,23.64969921,-21.813599590000003,0.1088073254999995,7.453969001499999,4.0261179205
1970-01-01 00:00:46.900,18.870846749000002,-44.328535079999995,1.630858302,3.3214818235,0.3728459179,-3.7463263275,11.480199814999999,24.680600165,-19.623699185,16.246348859999998,-40.630916595,7.3018400654999995
1970-01-01 00:00:47.000,-0.37896329149999997,0.27352953,-4.834398985,-1.8871362805,4.114819765,0.7979955971,10.876299385,23.54599953,-20.84980011,-5.928661823500001,4.6022679805,-8.2463870035
1970-01-01 00:00:47.100,-5.700900078,6.074329853,-9.9050891385,-1.3004174234,0.7612683697,-0.2219665944999999,10.857999804999999,23.192199705,-21.44149971,-10.2722201365,12.94033861,-14.809413435500002
1970-01-01 00:00:47.200,-0.20653051155000013,-6.386742534,6.484998225000001,2.7104820015,-3.0827933549999997,-0.99881163235,10.345600130000001,25.296699525,-20.160499575000003,-2.55305171005,2.8669507504999996,15.607120040000002
1970-01-01 00:00:47.300,3.4935209730000003,-26.856294155,-9.226275205,-0.2622061968,-6.64739275,3.575899839,8.3386998175,27.523199079999998,-19.83109951,-5.3050734995,-17.331275461500002,-12.307040215
1970-01-01 00:00:47.400,26.808436389999997,-25.407888889,-3.0327531094999993,-4.920221925,-2.9816217425,4.632741928,9.1804995535,28.730999945,-16.598099705,26.410757065,-14.623978615999999,7.3403630245
1970-01-01 00:00:47.500,4.007080438,0.32138597950000003,5.038985371500001,-1.7374787329,1.5783529877000002,1.3314943315,10.138199807,29.3470993,-12.639200209999998,4.5346896635,9.3943634045,8.861383438
1970-01-01 00:00:47.600,0.40274202800000003,1.6298113353900001,4.543222427,2.586250961,0.24838572725000002,-0.7427139281999999,11.089799405,29.88389969,-9.4916000345,-0.11343979849999997,11.037370204999998,6.506919743499999
1970-01-01 00:00:47.700,21.930369375,-30.1447792075,1.1820542814999997,3.384857297,3.4466292855000003,-3.8678084015,13.072299955,31.140499114999997,-6.5452997685,17.049752234,-17.0690095415,10.288489224500001
1970-01-01 00:00:47.800,2.9512477517999995,-19.5303671965,-2.5191936495,2.7368248701500004,0.301147759,-2.6972724498,11.69979954,31.95180035,-7.7835996155,-1.2084386350000003,-21.5747880937,-5.883583307
1970-01-01 00:00:47.900,-5.268846035,5.3585767744999995,-8.1477105615,-2.638325691,2.2695265410000003,0.6662052869499999,8.436299801,32.47639847,-12.224400039999999,-9.155012848,12.004130365,-15.03327799
1970-01-01 00:00:48.000,-2.11824623679,-5.209025085,3.7556847335,0.0843732359999998,1.32446958885,-0.56304848195,4.556699872,34.64799881,-14.93889999,-6.43352139,5.26964020615,2.6982235924999998
1970-01-01 00:00:48.100,-3.541527152,-8.9712907391815,-8.5643610975,1.55956941855,-4.069235325,-0.5387672779499999,-0.03050005450000004,36.56949806,-16.00640011,-7.5558502675,0.13244366600000013,-13.280149935
1970-01-01 00:00:48.200,26.402704234999998,-36.170654295000006,-13.272239208,-5.9301053285,-3.666839719,5.341630220500001,-1.7324000000000002,38.375101085,-15.00600004,15.1162824645,-29.81414223,-9.592944142499999
1970-01-01 00:00:48.300,5.17776906375,-1.2515959755,8.480462551,-0.5846571325,-0.8493831155,1.77458760165,0.03049999474999998,40.644298555,-9.3756997605,7.1504802715,6.094876768650001,9.414723396
1970-01-01 00:00:48.400,7.126573683,-0.8026424644999999,3.9879380764,1.1613733469,0.78883290484,-0.59916481375,2.360700011,40.754098895,-4.6725997925,9.2316586975,10.2937653075,11.509834766
1970-01-01 00:00:48.500,6.471837698000001,-8.45189784375,0.019740760500000065,3.508783102,2.010374725,-2.5012667477000003,5.2825996875,41.33359909,-0.49410000420000005,1.2583498954999999,4.03626585,0.24538087850000023
1970-01-01 00:00:48.600,14.0336052765,-44.84329128499999,0.21475589249999993,3.5054997205,0.3750602005,-4.5980763435,5.9414000510000005,41.967998505,0.7319999858949999,13.131152869000001,-37.121995925,4.195598365
1970-01-01 00:00:48.700,0.03409790999999984,4.4644088745,-4.5782173722,-1.831930995,4.621517539000001,0.9509364667,0.5245999693499999,40.924898145,-4.7580000159999996,-6.0163078305,9.7902154925,-8.9957699795
1970-01-01 00:00:48.800,-5.328666329000001,4.3769212965,-5.410171986,-1.5180318319500001,-0.7851677663525001,0.39353837095,-4.770199894999999,41.92529869,-10.900699616499999,-10.636621,11.729444505,-13.2027299415
1970-01-01 00:00:48.900,0.29267215749999975,-6.2505013935000004,4.7431728815000005,2.329924226,-2.76851242795,-0.846405238,-9.5404000265,42.77320099,-15.439099785,-3.6411225795,-0.9178113960000003,16.026679995
1970-01-01 00:00:49.000,13.0734851635,-40.96003914,-9.9192968585,-4.59265513745,-1.82246275235,4.6186161045,-12.84659958,42.64509964,-17.500900265,3.5711183549999994,-29.820253375,-15.3112244625
1970-01-01 00:00:49.100,21.305543067,-10.9464162575,36.672099588,-1.92493239035,-2.817685604,2.276704073,-9.711199759500001,45.091199875,-11.1995997445,21.925659896,-14.867384910999998,6.750757692999999
1970-01-01 00:00:49.200,10.0630154595,3.99631303555,4.0704905131815,0.9329164623999999,0.14454173295,-0.32260370255000004,-6.0328998565,46.23799896,-3.3671999574999996,7.6459562775,13.344790222,7.8443841915
1970-01-01 00:00:49.300,2.21994117286,-0.029312014999999914,3.608376503,3.6816527844999998,1.2806412878,-1.6775392295,-2.0617999435,47.317699430000005,2.7876999375,0.31283590199999994,9.603108883,4.7360013725000005
1970-01-01 00:00:49.400,20.434257029999998,-44.440998074999996,7.2474114875,3.3333171605,1.2274975774999999,-5.260692954,0.6709999740000001,49.403898240000004,5.557099818999999,16.315382005,-32.490281105,-3.3591842645
1970-01-01 00:00:49.500,0.10109677909999998,-1.8812072280000005,-4.561467886,-1.7501537205,5.046209097,0.324207194145,-3.5257999895000003,48.641399379999996,-1.2444000245,-5.752103805500001,0.7939057350000001,-7.997022629
1970-01-01 00:00:49.600,-6.310172319,3.341427326,-11.434999941000001,-2.106277704,-1.2825501712,-0.008093714699999977,-8.613199949,48.049697875,-10.900700092,-9.873886587,11.002035615,-15.022462367
1970-01-01 00:00:49.700,1.438235879,-7.3960654445,14.395070555000002,2.8899947404999997,-2.025111258,-1.25498571995,-14.170299530000001,47.18959999,-17.238599299999997,-2.4925820827500003,2.34831190135,14.45369673
1970-01-01 00:00:49.800,1.0036397,-30.988548275,-10.642527581,-4.063432216500001,-1.65967197705,4.832489014,-18.745300295,45.304698945,-21.2645998,-6.144455430500001,-17.1359987265,-13.558406828
1970-01-01 00:00:49.900,25.357639311,-24.93037081,-6.5952173463,-2.715979695,-3.4946572185,2.1502587195,-15.95149946,48.08019829,-16.7871995,26.887687685,-17.939373016500003,2.089461805
1970-01-01 00:00:50.000,7.5394849775,4.3482073539999995,4.629513504,0.79669755695,0.53701110929,-0.405755293086,-12.76119995,50.239599229999996,-7.002799749,3.85928905,11.9507222195,11.0135285845
1970-01-01 00:00:50.100,0.84332042184,0.6170491277,4.0465621355,3.603922486,2.3731415275,-1.5746878385,-11.992599965,50.422599795,1.20169994255,-1.541920781,9.974493025000001,7.3975062345
1970-01-01 00:00:50.200,20.749062535,-46.03192711,-4.4083271625,3.6876848934999997,0.24212461749999992,-5.469755411,-8.722999572500001,52.270900725000004,4.56889987,18.515102385,-28.8400745405,1.2609486579999993
1970-01-01 00:00:50.300,2.0080268385,-6.930361988,-3.780958891,-1.5943113565,5.637738466,0.6314633489,-11.638799665,49.18429947,-1.7934000490000002,-2.9218987225,-5.42702961,-7.608955383
1970-01-01 00:00:50.400,-4.3075293304999995,3.6336507795,-9.9192969815,-3.018196344,-1.619814277,0.008246437646,-14.542399885,44.365299225,-13.566399575,-8.423643111,11.345829489,-15.846826555
1970-01-01 00:00:50.500,2.8758736551,-3.9053854930000007,38.083417892,0.38933885099999976,0.4050680995000001,-0.7457681371000001,-16.48829937,39.55850029,-22.72249985,-6.0465397835,0.2562713649999999,5.7559382905
1970-01-01 00:00:50.600,-1.67288210975,-21.237497805,-10.495219586000001,1.9852535725,-3.7104390265,0.14080029724999998,-17.702199935,35.587400439999996,-27.181599615,-9.968903064,-11.1650886535,-14.689896108
1970-01-01 00:00:50.700,32.45863819,-26.387150286,23.998963834,-5.818243742,-4.995432615,4.862115145,-14.26789999,36.6731987,-25.57729912,37.024072645000004,-26.501551624999998,37.232925892000004
1970-01-01 00:00:50.800,3.6695430294999998,1.2109177933500002,7.6293654445,-1.7990215419500002,0.81418301185,1.4984083175,-12.42570019,39.79029846,-16.573699474999998,3.9207577684999997,12.122488735500001,8.8228105307
1970-01-01 00:00:50.900,2.159971118,0.22791635989999998,1.8212370870000003,1.84979815775,0.75928317015,-1.0169843434499999,-11.059299464999999,39.473098754999995,-7.637200117000001,2.3413542505000002,8.230789661500001,3.62699520578
1970-01-01 00:00:51.000,13.959427952999999,-17.5793199525,3.4384860395000003,3.4841963055000003,2.082912743,-2.4303322435,-7.57619977,41.699598315,-2.092299938,6.7690866605,-3.5435910230000003,0.9298219382000001
1970-01-01 00:00:51.100,8.5043907151,-31.979776385,-1.0206882955,3.20992595,0.39628715810000004,-4.1116892095,-6.917399883,40.82119942,-2.6718000175000003,4.1361742015,-32.281198025,-8.668902397
1970-01-01 00:00:51.200,-3.2805599310000004,4.3902313710000005,-8.9820581655,-2.4268198015,3.949051201,0.5796177089500001,-9.284199715,37.081899645,-10.382199764,-7.880208017499999,10.754859445000001,-12.17531872
1970-01-01 00:00:51.300,-1.377218962,-1.0586745144999998,13.628918649,-0.6358156204999998,-0.08231168999999994,0.34459418045,-11.53509951,35.86189842,-18.08649921,-6.967481254,11.871958255,11.9520125405
1970-01-01 00:00:51.400,-2.711965248,-8.626574277,-8.2459659555,2.3041158315,-4.2552382945,-0.71759281325,-13.35899973,34.672399525,-21.600099565,-6.523750186,-1.2438812255000005,-4.758341074
1970-01-01 00:00:51.500,25.0452256185,-38.51920891,-14.287543773,-6.5452282435,-2.05970059325,5.2158720495,-13.938499449999998,36.17910004,-21.66720009,13.519746778999998,-28.329544065,-12.595194817500001
1970-01-01 00:00:51.600,1.8224337099999999,-4.410570145,14.9624700535,-1.2261995675000001,-0.9347490074999998,1.75511684995,-10.205299854,39.41819954,-15.024299625000001,10.6218536515,3.310356617,22.932034972
1970-01-01 00:00:51.700,8.6217889785,1.4621641634999998,6.416802528,0.90306130035,0.08765658359999999,-0.3644467443,-5.0141999725,39.357198714999996,-7.1979999545,8.498134133999999,10.729900835,6.9988968395
1970-01-01 00:00:51.800,2.6675485375,-1.51480639,3.6360434591,3.757016063,1.861251533,-1.74900841735,-0.9271999301499999,40.85169792,-0.6588000060000001,2.29356482645,9.288914683,5.242696822
1970-01-01 00:00:51.900,20.230567219,-51.012886045,12.5491582466,3.6040751935,0.1488940715,-5.8127462865,1.1528999955,41.711799625,1.9703000190000002,16.20747423,-41.49167824,6.52338791
1970-01-01 00:00:52.000,0.9270692469999999,1.3473086653500002,-6.0013488535,-1.488176584,5.9147577285,0.8057075442,-4.1845998765,40.08309746,-3.3488999605,-5.4033493995,5.9954714785,-9.087851763
1970-01-01 00:00:52.100,-5.7907805445000005,6.2493050100000005,-12.7504549005,-2.1900402305,-1.9635685087,-0.05642700194999989,-7.9238996505,39.717100145,-11.5289998075,-9.9648256285,13.05515909,-18.954071995
1970-01-01 00:00:52.200,1.3473083975,-10.2197459345,11.263614657000002,2.3464170695,-1.4851224425000003,-0.007788300499999901,-12.614799975,39.607299805,-17.671699525,-4.890004396616,2.1649897095000004,5.461429595
1970-01-01 00:00:52.300,7.816005229,-31.348967549999998,-9.26231742,-2.07741512365,-3.8917843105000003,3.1149392726,-15.713599680000002,39.540199275000006,-20.42279911,0.21231603600000026,-18.842781545850002,-12.620082855
1970-01-01 00:00:52.400,22.9933798315,-22.884657385,-14.195271015,-3.6415659190000005,-1.84269709125,3.0859239695,-13.694499969999999,42.352300645,-15.10359955,24.2767424605,-18.015847446499997,-13.054906370000001
1970-01-01 00:00:52.500,8.9401834015,3.7664525529999997,4.035794258,0.661013109815,0.22326467185,0.17172443864999998,-10.406599996499999,42.29129791,-6.295199871000001,5.060719313165,12.0886175655,10.311588168
1970-01-01 00:00:52.600,1.7338991165,1.3508979416300002,3.9040398005,3.679743886,1.65967196225,-1.2451357845,-6.8808000090000005,43.657699585,1.37859992665,0.02234268199999989,10.911281105,6.700327158
1970-01-01 00:00:52.700,18.621843335,-45.16168403499999,-0.2700898645000005,3.686615944,0.14637434500000013,-5.405921936,-3.782000065,45.579198835,5.209399939,14.880034445,-33.483175276,-5.113106370000001
1970-01-01 00:00:52.800,1.1306086443699999,-4.6271209715,-3.7007992265,-1.3043116332,5.816258669000001,0.4120928049000001,-6.8808000085,43.85899925,0.4453000425,-4.232665181,-1.9704885449999994,-5.823141336499999
1970-01-01 00:00:52.900,-4.934897542,3.659971714,-12.902399063499999,-2.4701900485,-0.8135722132000001,0.09200887385,-9.729499814499999,42.596298215,-11.955999849000001,-8.8124470715,11.40361786,-17.34025097
1970-01-01 00:00:53.000,0.5008476969999999,-3.4935209901500004,16.53186226,2.7221643925,-1.1496144530000003,-0.6608603599,-13.24919987,42.242500305,-20.1116991,-5.463747381999999,2.2571120255,-3.49686932585
1970-01-01 00:00:53.100,0.13698911650000012,-19.963917972,-11.291281224999999,-1.2371184229999999,-4.562494636,3.2648259698,-17.519199370000003,39.97939873,-24.595199585,-7.5997877124999995,-10.985367773,-18.080067158
1970-01-01 00:00:53.200,30.46302509,-25.032215120500002,11.3485593785,-4.5708172915,-1.80123584735,3.20282500955,-15.811199665,42.01070023,-21.7038002,33.417484280000004,-18.184167384,42.090462448
1970-01-01 00:00:53.300,2.6113171575,1.143769145,7.759774652949999,0.09139803054999995,0.8058602514500001,0.09819370525000004,-10.5163998595,45.914699555,-13.474900245,4.5901825435,8.7389359475,7.434575319
1970-01-01 00:00:53.400,-0.164656162,1.3820045738500002,7.3395349975,3.7337274550000004,1.079825218865,-1.3802857400000001,-7.9604997635,47.25669861,-3.9954999089999994,-0.22368812550000028,11.3436002745,10.375152586
1970-01-01 00:00:53.500,25.374388695,-30.989745616,6.68360221435,3.4533486365,1.75511688,-5.354839563500001,-5.538800001,50.495798109999996,2.5924999715,19.440176011,-17.460142135,11.811293006500001
1970-01-01 00:00:53.600,2.48928338305,-22.67139566055,-1.7998513282500002,1.206117868,0.6084038615,-1.953184128,-8.216699837,49.507598875,-0.4086999895000001,-1.350230217,-21.0785884835,-5.486181021
1970-01-01 00:00:53.700,-5.881857156500001,6.838088750999999,-9.4513504515,-2.7091076375,3.73876702765,0.70285612345,-11.132499697,45.591400145,-14.011699675000001,-9.950897217,13.886255264999999,-14.6651015295
1970-01-01 00:00:53.800,-0.7440184355000001,-7.082306625,11.8441729565,-0.5493807794999999,0.8328902648500001,0.29083961235,-15.16459942,44.639799115,-24.515899660000002,-5.334730622781,3.8767790794999994,12.203034401
1970-01-01 00:00:53.900,-4.720590353,-15.0379927745,-12.881012915000001,1.681815207,-3.88285055765,-0.67422264815,-18.15969944,42.010698315,-30.408499720000002,-7.793611288,-3.180536747,-16.07365513
1970-01-01 00:00:54.000,31.414770125,-38.33720589,-12.5207433685,-5.719591856,-3.9842511414999997,5.41462636,-18.26340008,42.64509964,-29.46299934,20.686784746,-31.741872785,-11.533702849
1970-01-01 00:00:54.100,7.0141108039999995,3.9364922055000005,1.4787645355000003,-1.089522470485,-1.0435561535,1.7102959755,-12.88929987,46.884599685,-19.288199425,5.0407801889999995,11.826027392999999,9.2326562385
1970-01-01 00:00:54.200,5.558377205999999,-0.6901798244999999,0.5333004000000001,1.2002384998000002,1.2148988247,-0.9746067819500001,-9.7782998105,48.641399385,-8.137399914,6.214653373,7.5722353469999995,5.7627590895
1970-01-01 00:00:54.300,12.87592834,-20.88904166,6.714858593,3.3535515069999997,2.8677752615,-2.69078213,-8.4667999745,51.221698759999995,0.6710000039,5.959858062,-5.571585178000001,3.1320188045
1970-01-01 00:00:54.400,5.73918491725,-37.965122225,-4.693222522499999,4.661375284,0.07559233905000001,-3.672719121,-7.637199879000001,50.57509804,0.12809997800000006,1.0319061265,-36.98189211,-10.420404435
1970-01-01 00:00:54.500,0.029312014499999872,7.8233337405,-8.6481096755,-2.0233552455000003,3.3081959785999997,1.6865492464999998,-11.59000015,43.81019783,-12.4500994695,-4.929148674,13.953738690000002,-14.1766901035
1970-01-01 00:00:54.600,-2.2007986305,0.46749764700000007,11.7867453125,-1.34478017665,-0.6238277554999999,-0.4651601912,-14.28009987,40.278299335,-24.948999405000002,-8.8598268055,10.4050598135,-8.838122843999999
1970-01-01 00:00:54.700,0.4770690205000001,-4.4165524540500005,0.18005990979999997,2.1720201375,-3.7839697599999997,-0.7301151752500001,-17.952300075,36.398698805,-32.079898835,-4.68829882155,2.7098715304999996,-1.8719493150000002
1970-01-01 00:00:54.800,15.380316376,-43.504956245,-10.583753822,-5.48617211015,-0.22547894700000004,4.5117942095,-19.33089924,34.56869888,-32.903399465,3.167094230000001,-30.269474029999998,-16.870722295
1970-01-01 00:00:54.900,6.5027945035000005,-5.0413780819500005,7.4246294495,-1.9001168013,-1.8323891755,1.814063728,-15.280499460000001,38.076198579999996,-22.80790043,13.0904123765,-0.6221098899999999,30.225030302500002
1970-01-01 00:00:55.000,7.3191957475,1.8475581707,3.8730826375,1.07318225505,0.015882015199999988,-0.21807246655,-13.08449984,40.705299374999996,-11.675399778500001,7.217657804500001,11.88487434,6.8751461505
1970-01-01 00:00:55.100,4.3182972966,-5.802744628499999,1.3987545964999994,3.7087591885,1.5372734667999999,-2.1402561369,-10.8519000985,44.322599409999995,-3.8003000025,2.8783450126999996,7.118014334,6.0419886399
1970-01-01 00:00:55.200,10.0365452745,-50.578436855,1.8954146505000002,3.6342358590000003,1.027597785,-3.2616953255,-7.5578997134999995,46.12209892,-2.2447999715,6.9658052905000005,-39.350094795,4.0969228719999995
1970-01-01 00:00:55.300,4.8366422655,5.4507002835,-7.312166689,-1.190617626595,4.5245456695,0.8767185212,-8.997499943000001,42.950099945,-12.071899414499999,0.73848080615,11.9895105375,-11.1947321895
1970-01-01 00:00:55.400,-1.3281660975,2.11346066,-7.952545913400001,-3.449454427,-2.0485526325000003,-0.9849911929,-8.7168998715,39.802497865,-23.11289978,-4.1849811075000005,10.8090808385,-13.0079119215
1970-01-01 00:00:55.500,-4.052693784300001,-7.331309318500001,-5.849554539500001,2.8476171942499997,2.8044763804999997,1.3968549666500003,-9.461100101500001,39.479198455,-30.53049946,-6.557101964999999,1.0948269365499999,-13.0491571425
1970-01-01 00:00:55.600,4.54920437915,-24.96267319,-4.440480710499999,-4.7601037025,-1.0766944865,2.6996394395,-6.5574998855,38.36289978,-33.183998110000005,-0.35617470750000013,-13.5584659575,-10.5792726305
1970-01-01 00:00:55.700,14.440535187,-21.326031209499998,-3.581008435,-3.623316765,-4.4019943478,0.47012332836500004,-4.343199849,41.815498355,-24.155999185,13.254263401000001,-9.893147467,-11.520876885
1970-01-01 00:00:55.800,1.66689997905,0.08569294234999991,5.734399381,0.64986518035,1.5145194475950001,-0.017943620649999936,-2.7693998815,44.133499145,-13.285799505,0.68945539,8.292036533000001,8.491812231499999
1970-01-01 00:00:55.900,3.397808254,0.6397809984999998,1.1675479114999998,4.6836714745000005,-0.18058170379999997,-1.34325313545,-2.3789999484999997,46.799200055,-5.062999963999999,1.65663170815,11.332969668,2.9069688915
1970-01-01 00:00:56.000,14.417953013,-42.87534332,8.26136943785,2.9761241675,-0.10728001614999988,-3.5741437675000007,-2.6962000130000003,47.98869896,-1.7262998820000002,12.1740133785,-31.113098145000002,6.104828117499999
1970-01-01 00:00:56.100,1.4644074440000001,0.3943670389999999,-3.3345479965,-0.705452207255,4.3674814699999995,0.63016529365,-6.4903998375,45.12779808,-8.4545998565,-3.523567796,6.221168518000001,-8.4267196655
1970-01-01 00:00:56.200,-1.8931713700000001,9.873833178,-13.0628671635,-1.8704142868,-3.243598819,-0.20616096299999997,-7.8811995985,42.102199555,-19.770099639999998,-4.792920112499999,17.23658657,-18.03320265
1970-01-01 00:00:56.300,3.0530922411,-8.8947200775,18.642181395,2.1363619565,-0.7181272505000003,-0.59557609255,-9.808799746,39.552398679999996,-28.615098955,-2.787005663,0.7298498156,14.25893879
1970-01-01 00:00:56.400,8.9234340492,-31.801509859999996,-6.5663539296,-6.6460180289999995,-0.2643440964999999,3.3718767165,-11.358199595,37.258798600000006,-32.49469948,1.0261011125000001,-17.457640650000002,-9.3945499964
1970-01-01 00:00:56.500,7.649704457,-21.115313292,40.193885801,-1.9402800205,-1.7053328159999999,1.504287779,-10.284599782,40.802900315,-25.180800435000002,11.2841992365,-15.91717529415,1.16369092445
1970-01-01 00:00:56.600,5.1370910405,3.1811083554999997,7.52512827395,1.50566215825,-0.08605310320000004,-1.0607362688,-9.3329997065,43.4015007,-13.084499834999999,3.3801552952000002,10.402652738,10.948502061500001
1970-01-01 00:00:56.700,3.0004501345,-2.1720847485,4.858177960000001,4.096265435499999,3.5992648005,-2.2225676776000003,-8.472899437,45.98180008,-2.5619998871000003,1.2311319112,7.7612905505,6.0300860394999996
1970-01-01 00:00:56.800,12.709627271,-43.34568405,5.22562575355,5.774033546,1.4536637069999998,-2.349471331,-6.6245999335,48.61089897,2.0800998809999998,10.869772674550001,-36.771674155,4.46075236795
1970-01-01 00:00:56.900,4.0742293595,0.991675377,-4.707429886,1.2798014283499999,2.16843138655,-0.19592925159,-7.5090997215,46.396598815,-5.3374997375,-0.6574025155,5.585511444500001,-10.887803552000001
1970-01-01 00:00:57.000,-1.53409844655,8.302047968,-14.38206053,-2.4030730725,0.94154467445,0.36330139635,-7.3931999205,43.987098695,-17.537499905,-3.1287941935,15.958088870000001,-18.266242984999998
1970-01-01 00:00:57.100,-1.3305590150000002,-9.999456404,24.61063099,2.00709140295,-0.6970530750000001,-1.9720439915,-9.241499901,43.749198915,-25.986000060000002,-6.8411901,4.037533045,-10.0388827895
1970-01-01 00:00:57.200,7.54666394,-26.545226095,-11.7041931145,-1.0182060005000002,-4.104969919,2.98734864585,-11.693699835,41.39459801,-30.96969986,0.3629119395,-16.4807832265,-14.867077827500001
1970-01-01 00:00:57.300,22.6332609675,-30.48112011,-3.0112176239,-6.0487622341,-2.984141588,1.8074970541,-11.16299963,44.77399826,-24.125499725,19.657773970500003,-22.989770890499997,-7.040116785
1970-01-01 00:00:57.400,5.12393036495,2.3419749735,5.128716228949999,-0.34047096999999993,0.02725905179999999,1.25292406235,-10.87020016,47.78129959,-12.1206998845,3.6489775184999997,10.1133470545,10.358753683
1970-01-01 00:00:57.500,1.1603694411499998,2.4605694414999997,2.423331082,2.31274408085,-0.021914124499999965,-0.54441763465,-8.643699646,50.581199645,-3.3671999572499995,-0.24551594249999997,10.92020273,3.85719513917
1970-01-01 00:00:57.600,15.401702405000002,-46.854307655,6.811618328,4.4120733735,2.543415308,-4.460101247,-5.6241998675,54.088699345,3.2573999170000003,13.090536594500001,-22.7645127765,6.881895781
