,acc_Acceleration x (m/s^2),acc_Acceleration y (m/s^2),acc_Acceleration z (m/s^2),gyr_Gyroscope x (rad/s),gyr_Gyroscope y (rad/s),gyr_Gyroscope z (rad/s),mag_Magnetic field x (µT),mag_Magnetic field y (µT),mag_Magnetic field z (µT),lin_acc_Linear Acceleration x (m/s^2),lin_acc_Linear Acceleration y (m/s^2),lin_acc_Linear Acceleration z (m/s^2)
1970-01-01 00:00:00.000,1.5975081919999998,6.884748936,7.79820919,-0.3613161445,0.3713951409,-0.2678565085,13.55420017,-48.21439743,-25.31499863,,,
1970-01-01 00:00:00.100,0.5175974518500001,6.3689460755,5.37173748,-0.216927133475,-0.42362257095,-0.18898086995000002,13.63349962,-47.933799745,-25.321099285,-0.47678601744,-0.27195811270000003,-1.03713488565
1970-01-01 00:00:00.200,1.7542381284,5.8876895905,7.67363286,-0.6430694460999999,-0.85587337625,-0.23677967485,13.157699585,-47.238399505000004,-26.339798925,-0.06386554239999995,-0.046780586250000034,0.8213756083999999
1970-01-01 00:00:00.300,0.58953166015,4.190281153,8.6851985455,-0.8178481162,-0.7214869855,0.23265644537499997,12.48059988,-46.237998965,-27.80379963,-0.97312042135,-1.5810921195,0.9446663857
1970-01-01 00:00:00.400,5.04137826,5.931957006499999,8.111668825,-0.0803264156,-1.6845640837999998,0.14667969939999997,10.5163998595,-45.01189804,-29.15799904,1.3002469537499999,1.25302624715,0.11396098136499999
1970-01-01 00:00:00.500,1.7662022412000002,1.247857034,4.994568705500001,-0.40789324045,0.22807509080999994,-0.32794861495,8.198399544,-43.46249962,-30.88430023,-0.9248837234,-2.8837122915,-1.8350253103999996
1970-01-01 00:00:00.600,2.8950164019,-2.9189444780000002,4.822135687,-3.284220338,-0.9391776919500001,0.86870116005,5.703500032500001,-40.36369896,-33.751298905,-1.50198042385,-5.317038536,-3.4002997875000003
1970-01-01 00:00:00.700,7.89870739,-3.231357336,8.1056866645,-3.473353863,-1.4460281730000002,1.7424418330000002,1.5311000049999999,-33.36089897,-37.447898865,2.5914386510000003,-1.674224138,0.6449868678999999
1970-01-01 00:00:00.800,12.63305664,-3.8383866545,10.000652791,-3.2968190909999997,-1.399603784,1.439308822,-3.5135998725,-21.728199005,-40.497900005,7.1555454735,0.76649475095,4.1612653735
1970-01-01 00:00:00.900,11.99028444,-2.9968608615,10.14078236,-2.0254932045,-1.3416496515,-0.14370182160000006,-10.1686997435,-6.4355000265,-41.986299515,6.0393140315,3.0590016844999997,6.8225712775
1970-01-01 00:00:01.000,7.2750780585,-3.9807595014999997,5.9630635975,-0.11109784805500005,-1.9907512665000002,-0.6280273497,-18.22069931,7.6920998085,-39.601198194999995,0.3028247355,2.0339255334999997,4.1021759509999995
1970-01-01 00:00:01.100,7.540831088999999,-6.1401326654999995,3.487538934,-0.281753297915,-1.1641985175,-0.5905365944,-25.687099455000002,16.90310001,-33.78789902,-0.95734071751,-0.6855888367,2.0643469095
1970-01-01 00:00:01.200,9.649954797,-4.339832544,0.9318548440000002,-0.15591876209999997,-1.3337849975,-0.35116082429999995,-31.738300325,20.71559906,-26.638699529999997,1.92950677865,0.9378353359,1.1789183317499998
1970-01-01 00:00:01.300,9.3195955735,-4.0263727905,-0.8995517492,-0.4950916916,0.08651124685,-0.23403085022999995,-36.54509926,20.550899504999997,-20.093400000000003,-0.18807554250000014,0.12884998320000002,-1.88903401815
1970-01-01 00:00:01.400,7.662865162000001,-3.194418192,1.73135671035,0.523801516715,0.05917581919999998,-0.46722179650000006,-39.710998535,19.17230034,-15.451299665,-0.9547457697,2.150462985,2.589273691
1970-01-01 00:00:01.500,6.872784853,-2.494068861,-0.08913264423,-0.34864106775000003,0.6386408210000001,0.4104129895499999,-41.181098935,17.98890018,-13.15159941,-0.705873966,2.062183738,-0.32817965720000003
1970-01-01 00:00:01.600,10.189835309,-6.4730341435000005,0.870837895209,-0.13866233081,0.3846046943,1.5451381505000001,-41.07740021,18.45249939,-13.18209982,0.31170845049999985,-1.3287067416,-1.12057068945
1970-01-01 00:00:01.700,9.0442714695,-7.089484929999999,1.1304591597000002,0.129346905275,-0.8389223813000001,0.10353860260000006,-40.266098025,19.983599660000003,-14.255699635,0.65080070519,-1.3289289475000001,0.27252081035000003
1970-01-01 00:00:01.800,6.830910444500001,-4.228566170000001,0.90792661925,-0.19073705375,-0.93849043525,2.5722777844999998,-39.302299500000004,23.234899525,-14.737599849999999,-0.18291974064999994,1.77538681,0.6857653037
1970-01-01 00:00:01.900,7.046264410000001,-7.0260748865,0.19202403725,-0.30603447555999996,-0.6182537618699999,0.6714738607,-37.697998045000006,28.834698675,-13.895799635,1.509474516,0.9154372213499999,1.08049401635
1970-01-01 00:00:02.000,6.595067739500001,-7.3013992309999995,1.59376946105,0.17966544629999998,-1.0029348357,0.5190674663,-36.606100085,33.769598009999996,-11.071499825,1.6753089427499999,0.46159934999999996,3.5313134194
1970-01-01 00:00:02.100,10.836196425,-10.423434734499999,1.5339488980000002,1.7846666574999999,0.380099714,-0.11697727449999995,-35.39830017,38.28359985,-7.9909996985,5.12321877495,-0.27437686900000013,3.9584041239
1970-01-01 00:00:02.200,5.777470112,-11.979516982,-2.4559333326,0.51677680015,1.650509238,-0.661623925,-34.001398085000005,40.69309807,-7.97879982,-4.292675495,-5.7636585235,-3.0468689204999997
1970-01-01 00:00:02.300,1.6776677369999997,-9.4860458375,1.8967606425,0.96735297145,0.5665608049199999,-0.35222979634999996,-33.104700089999994,40.040399550000004,-10.674999713,-3.4103757144999998,-1.8886251445,-1.5915678734999998
1970-01-01 00:00:02.400,4.040580153,-5.888886213,0.7390830738999999,1.06409591415,-0.9269607069500001,-0.07383616454500005,-32.378799439999995,37.685800555,-15.43909979,-2.6333062650000003,1.1315710545,-2.084582627
1970-01-01 00:00:02.500,4.4105703830000005,-4.1208893065000005,1.9241284652000001,-0.47928604295999994,0.25877017900000004,0.63657918575,-32.31780052,34.57480049,-20.325200085,-1.3346850872,2.8588004115,-0.41980350015
1970-01-01 00:00:02.600,11.301899435,-6.421588421,7.296464204500001,-0.22288288174999998,-0.30007872355000004,-1.2360494284999999,-32.146999359999995,32.946100235,-22.661499974999998,5.146782398000001,2.5666303635,4.149971127500001
1970-01-01 00:00:02.700,2.2462621925,-10.179067371,-7.280013204,-0.68078926205,1.176110089,0.8331956490999999,-32.885099409999995,31.56139946,-22.862799645,-1.6799380779999997,-5.055608511000001,1.0297572615
1970-01-01 00:00:02.800,5.3705408575,-9.7637634255,-3.2650066015,-1.70372933125,-0.3353551625000002,1.78604105125,-32.1225996,32.54349995,-22.874999045000003,-0.09718453849999986,-3.073927641,-5.2483469245
1970-01-01 00:00:02.900,4.7540898325,-7.4187967775,6.2298631669999995,-0.9682692887500001,-1.6716598870000001,1.0778400002,-30.48779964,36.0875988,-21.11209965,0.46644687649999994,0.93467998485,6.005264759
1970-01-01 00:00:03.000,4.042972863,-7.1327052124999994,-0.82178503275,-1.0996777714000001,-0.38147412230000005,1.283848226,-28.938399314999998,40.29050064,-17.25079918,-2.4052050115,1.3366384510000002,1.5686904190000002
1970-01-01 00:00:03.100,3.6551860570000003,-9.3913803095,5.1418766675,0.3560476305000001,-0.75584711155,1.1138799785,-25.699299815000003,46.048898695000005,-12.18169975,2.29213190065,-0.30361843105,3.6628211735
1970-01-01 00:00:03.200,2.8782664537000002,-11.711371420999999,-0.10244274149999999,2.916642904,-2.679176092,0.3651339412,-22.881099705,50.751998900000004,-7.0698997975,3.3888305425,-0.87787866595,2.1689431069999996
1970-01-01 00:00:03.300,2.9597721095000002,-17.16027737,3.6432219740000003,1.9952562451,2.554334104,-1.076694608,-20.36789894,52.478298185,-6.6428997515,3.6909183265000003,-6.1031594275,-0.42666709400000014
1970-01-01 00:00:03.400,0.6996015495099999,-13.509278295000001,-2.400748849,2.02198073285,-1.2071868778500001,-2.9011427165,-19.34920025,50.178598405,-11.50459957,0.9731879235,-3.4942588805000003,-5.4176557065
1970-01-01 00:00:03.500,-1.9529919030000003,0.8433204593000001,-0.8542377354999999,-1.1014339627,-1.6558541954000001,0.22395186125000002,-21.923399925,46.17089844,-15.829499245000001,-6.208780289,8.0985097875,-2.4617518185
1970-01-01 00:00:03.600,3.0399317750000003,-1.66331085585,1.60349029285,-0.36360683663199994,-0.9064973594500002,-0.03588727120000007,-25.632199285,42.620698925,-18.306099895,-1.049738407,5.727349758500001,4.165769577265
1970-01-01 00:00:03.700,10.183853149,-16.34507227,-2.1242282390000002,-0.06971293699999992,3.578801274,-0.8119687287799999,-29.524000165,39.521900175,-18.470799444999997,0.9449918272500001,-11.425285338,-4.012914896
1970-01-01 00:00:03.800,5.211268663,-17.18540096,0.766750127,-2.5997659564999998,6.3853390215,0.14858859776,-28.297900195,39.265699385000005,-19.672498705000002,2.8608720301,-7.261793852,-6.096881269
1970-01-01 00:00:03.900,0.4362415074999999,-4.38185635195,7.0763245835,-3.0199525355,-4.4191746115,-0.3268796429,-23.808299065,42.218099595,-20.392299655,-2.535827458,2.1899011135000004,5.3092303275
1970-01-01 00:00:04.000,0.48065822952000004,-1.6166508195000002,1.77098783835,1.03874576105,-3.33377534175,0.38796436598,-25.00389957,40.04039764,-20.62409973,-2.2531319859999996,9.652605533,5.9932253385
1970-01-01 00:00:04.100,5.6973106865,-18.75703764,0.0077767369999999225,2.670242548,-1.363792885985,0.020310640499999977,-25.888400075,38.124998095,-21.508600235,4.557778597,-6.2544856074999995,0.9683142900000001
1970-01-01 00:00:04.200,5.28439918345,-16.75454426,2.4137598275,1.737707794,-1.79848703755,-2.743925929,-28.51749897,39.381599425,-17.48259926,1.2745485307,-7.3769550325,-1.8067438600000003
1970-01-01 00:00:04.300,3.178715229,-3.0291638374999996,1.8595223429,0.20264857635,0.74225574715,-0.6038225229399999,-33.7451992,36.313299175,-15.6159997,-0.9121880530000002,2.50143671,1.0887012485000005
1970-01-01 00:00:04.400,2.2425234319999996,2.205584288,7.3072317373499995,-0.61825378606,2.1053614615000003,1.504364073,-35.7947979,32.76309967,-19.227199555,-5.536261081499999,9.052112579,-2.562476754
1970-01-01 00:00:04.500,2.922533691,-12.039337635999999,-5.370690346,-0.5698441268500001,-2.22524018595,-0.20455747850000006,-37.569898605000006,29.68869972,-22.271100045,-2.6671626565,-0.7769391540000001,-5.081238985
1970-01-01 00:00:04.600,12.57084322,-13.131062985500002,5.5691449635,-1.7467940448000001,3.534133196,-1.4989428818500001,-37.76509857,29.664299964999998,-22.185699460000002,10.912531853,4.782557965,1.0364758966
1970-01-01 00:00:04.700,1.337587893,-23.6374979,10.158729076499998,-4.9573309420000005,-0.8009734155,-0.061237454000000024,-37.014799115,31.250299455,-21.032798765000003,-0.40337872489999993,-19.6042790415,-2.7913250925
1970-01-01 00:00:04.800,4.555336118,0.81326059975,6.190531136,2.3725307585000004,-2.371461749,1.2165786921000001,-36.868398665,33.763500215,-14.499699115,-1.467751503,4.3351318835,8.965635063
1970-01-01 00:00:04.900,6.634549379499999,4.3577786675,1.1101201775000002,1.22696310265,1.1235008834999998,0.684912473,-35.73379898,36.892799374999996,-9.027999878,0.53989565365,12.3108177165,1.0522910955
1970-01-01 00:00:05.000,11.218151090500001,-34.498370175,6.051598072,4.169719815,0.9027559755000001,-2.9847524165,-34.916399,36.850099565,-9.698999881999999,6.5393071175,-23.878440382,0.8397443295000002
1970-01-01 00:00:05.100,6.629763603,-3.2434711460000005,-2.5971097945,0.74622631055,-0.399265051,-0.11384665965000001,-34.861499785,33.440198895,-13.651799675,-0.18944025039999995,-2.4399917104999997,-3.6665252445
1970-01-01 00:00:05.200,-1.2276675553999998,3.102144897,-6.1236817834999995,-1.8227682115000001,-0.38582640698000004,1.1350305675,-34.76999855,29.578899385,-20.813199995,-5.9204626085,9.094333648,-8.145729065
1970-01-01 00:00:05.300,3.08060956,-0.4567300084999999,11.895617965000001,1.560103893,-0.7368345260000004,-1.77313691365,-35.715499875,25.558999065000002,-26.43739891,0.7533540725000001,4.2469279768,1.3914256095
1970-01-01 00:00:05.400,2.4617661240000004,-21.94143677,-5.388636588999999,-0.40499171605,-0.9055809975,3.7069265844999997,-38.527599335000005,22.106399535,-25.96769905,-8.134804012,-11.023876669,-5.1521890180000005
1970-01-01 00:00:05.500,19.098163605,-18.20773506,15.351453306,-3.8194751738,-0.08299887149999996,1.26002523468,-37.899299625,26.480099674999998,-21.575699805,15.17999077,-12.156256675,-5.701492786499999
1970-01-01 00:00:05.600,0.7701897919,0.05443668349999964,3.9207895694,-0.7876111741474999,0.6026008128000001,-0.4762317985499999,-37.002597805,31.109999655,-13.99949932,-1.6650469304999995,7.0037155145,5.2327616235
1970-01-01 00:00:05.700,3.0040391981,-3.63365077955,4.83066019295,3.0114769935,1.8413990734999999,-0.8838959932,-37.100198745,34.29419899,-7.271199703000001,-1.5684040784999997,6.8237607495,5.6765818595
1970-01-01 00:00:05.800,12.55035448,-28.411478045,0.79411798715,1.7668757143,4.8331762555,-0.438359253085,-33.629300119999996,36.984298705,-8.20449996,6.03034091,-12.739209176,-1.9279798266950001
1970-01-01 00:00:05.900,3.30927372,-9.5243315675,0.048454661830000044,2.2375335095000004,-1.26941698984,-0.9628480075,-30.445098875,33.055899620000005,-15.170700075,0.8178834915,-8.06248283245,-3.1635966303000003
1970-01-01 00:00:06.000,-2.352892399,0.22088743745,-3.9496529105000002,-1.4729818104999999,-3.1496047970000003,1.893473804,-29.456899645,27.48050022,-25.339399335000003,-6.7533941265,7.834922552,-10.4652321335
1970-01-01 00:00:06.100,8.821589231499999,-0.7139585014999996,4.518247366000001,0.736834503875,1.83842118095,-0.7142331301500001,-28.627299309999998,24.54640007,-32.67159939,3.3467969909999997,7.0329380055,1.75203120725
1970-01-01 00:00:06.200,3.6191442015,-16.473088265,-4.2393338685,-2.61404459195,3.9404994249999996,1.395480573,-27.92579937,22.606598855,-35.83749962,-1.977848172295,-9.300811769,-6.444584369499999
1970-01-01 00:00:06.300,4.2130130525,-18.902102470000003,15.473637104499998,-7.60031414,1.402657986,-0.7769976854,-26.028698925,26.260499,-33.281599045,2.8147102595,-11.196888446500001,-2.766263127
1970-01-01 00:00:06.400,-1.3905290364999998,-4.38768875615,4.335046887,-1.51841357325,-1.1338088512,-1.1474766133,-23.283699990000002,33.043699265,-26.681399345,-4.545444012,3.3594126705000003,5.8638775345
1970-01-01 00:00:06.500,-1.6357933285000001,-3.9675989745,4.4403311015,2.266396105,-0.0720036328,0.34237990248000005,-20.42279911,37.392999645,-22.515099525,-4.713387727500001,6.600154637999999,7.800756214
1970-01-01 00:00:06.600,5.0294140579999995,-21.139242170000003,1.2993027270000002,3.8164972065000002,-0.33665320275,2.090777397,-16.805499075,40.99809837,-21.197500225,0.07954192149999972,-13.4916710845,-3.5313634875
1970-01-01 00:00:06.700,1.03011013565,-15.9943738,5.2736316915,2.6599344015,-2.800734699,-1.384408951,-16.80550003,38.69839859,-23.863199235000003,0.7876975537,-7.9538276195,1.9174547194999998
1970-01-01 00:00:06.800,2.47373006876,0.9509974422,-1.850100577,-0.59412530835,-0.8089144826,0.27511034905,-18.01939964,33.055898665,-30.280399324999998,-0.9879912140000001,7.313270569,-7.5002806185
1970-01-01 00:00:06.900,7.3156065935,-0.4434199335000004,4.47981271155,-0.8267054297449999,0.7521056535,0.27465218285000004,-19.050299645000003,29.188499450000002,-35.007900234999994,2.3217539790000004,8.479866268,2.8698458674999996
1970-01-01 00:00:07.000,-3.3523445130000002,-15.001951219999999,-0.4999502899999999,0.7011762856999999,-0.9009997249999999,-1.21940381845,-22.136899945,25.863999364999998,-36.416999815,-6.284493446499999,-7.4228293895,-9.632437946
1970-01-01 00:00:07.100,10.292726755499999,-19.714764595,0.3870390652000001,-4.438874364,1.9490609319499999,2.982003689,-24.314599989999998,27.81599903,-33.324298854999995,4.6050992014,-8.03557682,-4.629073858
1970-01-01 00:00:07.200,1.7386847735000004,-10.0905330175,8.002795396,-2.8658661840000006,0.08651123939999994,-1.13617588595,-22.98480034,33.421899795,-26.669199945000003,3.6262452605,-6.8404788963,15.4486720585
1970-01-01 00:00:07.300,1.3806587159,0.3812065124999999,4.315904379,0.4060606806,0.8236511945499999,0.010842539399999962,-22.716399195,37.65529823,-20.428899765,-3.0024060012000002,11.238644599499999,7.126834748
1970-01-01 00:00:07.400,-4.105335890999999,-13.371541974500001,0.07477569580000004,2.9890283345000004,2.098871112,1.30454061905,-21.17309952,42.352298735000005,-15.957600114999998,-6.475074768000001,-0.8122828010000003,3.2682833670000004
1970-01-01 00:00:07.500,7.070342302,-29.94841862,2.9309085610000003,3.367448211,-2.0412988066000004,0.9416974337999999,-16.793299675,42.590198515,-17.458200455,4.6829416751,-17.396248815,1.5021888015000004
1970-01-01 00:00:07.600,0.17168501040000006,-2.728565691499999,-1.3725828228,1.0486720353499999,-1.4793193156150002,-0.6453601122,-16.244298935,37.734598155,-24.802599905,-1.616398692,1.1944322589999996,-4.8168634175000005
1970-01-01 00:00:07.700,-0.69616185135,2.143370986,-4.5028434995,-2.514094591,-0.78211354465,0.78096824895,-15.713599680000002,33.769599915,-31.646800045,-4.444020270999999,12.329280375,-9.4644722915
1970-01-01 00:00:07.800,3.7209888695,-6.49471879,7.1421269795,1.5038295984999999,0.37857259795,-1.1535850170000002,-16.622499465,30.847699165,-35.32509804,-2.2095351219499997,3.7513227460000005,3.1645631805000005
1970-01-01 00:00:07.900,5.3633624315,-28.355248449999998,-1.93743859205,-2.2960983664,1.305609703,1.945930302,-18.989299775,29.32269955,-35.60569954,1.2232158180000003,-13.845189094999999,-7.0869345665
1970-01-01 00:00:08.000,2.29411870265,-16.096219060000003,8.0745799894,-4.4788085220000005,-0.8047910925000001,-0.41163469106,-18.287799835,33.641500475,-30.29259872,1.2290044426,-9.818635463,11.147583009
1970-01-01 00:00:08.100,3.6671503784999997,-1.9206888675,2.4749263525000003,-0.76775863765,-1.5629290045,-0.46264043450000003,-17.39719963,38.94849777,-22.551698684999998,0.510941446,6.118355751,5.3606936935
1970-01-01 00:00:08.200,0.47333025949999996,-1.0791630744999998,6.8524458995,3.0472878215000003,3.0414084195,-0.4707341788,-17.250800130000002,42.35839844,-16.01859951,-2.98082202655,8.92529249,7.254728794
1970-01-01 00:00:08.300,7.091727972000001,-27.720700739999998,4.2656549215,3.4612896445,-0.1814217564999998,0.477606193155,-15.39029932,44.609298705,-13.71279955,-2.35579872128,-21.452463148,-3.68322277065
1970-01-01 00:00:08.400,5.189733446,-10.9763257515,2.3611177205000002,1.50375324495,0.1009424324999999,-0.78150273865,-16.457799915000002,40.79069900499999,-18.397599219999996,3.9437173605,-7.912277221,0.1463544364999998
1970-01-01 00:00:08.500,0.13339985904999999,4.088436633200001,-5.08699131,-1.5788874923499998,0.9436063395,0.61199259755,-14.87179947,35.160398485,-27.675700185,-2.3511395455,9.294192075,-8.566549777999999
1970-01-01 00:00:08.600,1.8224335310000002,-4.270440474050001,2.4903301005,1.008356086995,-1.12892206025,-1.3350830675,-13.44439983,31.347899435,-35.47149849,1.5611913205,6.465393542,18.944694995
1970-01-01 00:00:08.700,-1.8524932561,-19.719550607000002,2.0558832885,-1.6440954208,-2.646113932,1.9650957286500002,-15.475699424999998,28.413799285,-37.557699205000006,-6.246804475499999,-8.506804226,-10.750863075
1970-01-01 00:00:08.800,13.645668984,-24.607190135,7.2056861504,-4.6743558645,-1.1596171259999999,0.99453571455,-16.677399635,31.30519867,-32.683799745,8.6953544635,-12.900869371,-6.010731697
1970-01-01 00:00:08.900,1.517199129,-0.4434199335,6.548407791,-1.7904696465,0.744622767,0.07757760026,-18.51349926,36.270599364999995,-21.96609974,1.2524710894999997,4.320289612,7.041419029
1970-01-01 00:00:09.000,-0.35967135400000005,-2.119442582,4.1723348495,3.4005103115,1.5662123559999999,-0.5237251820500001,-20.983999255,39.808599470000004,-11.8888998045,0.20435810049999992,8.1769833565,11.3888928905
1970-01-01 00:00:09.100,5.807380676,-21.735353945,-0.5165505856,3.2304657700000003,2.9808582064999998,0.8435036826550001,-20.508199695000002,43.59059906,-7.5395998955,-0.30247521399999977,-4.2869286539,1.042688191
1970-01-01 00:00:09.200,3.850350678,-20.31446648,5.965456365,2.7474383413499996,-0.24212455749999973,-1.01988583785,-18.42199993,41.498298645,-12.114599704,2.3596773145,-23.406581879999997,4.051221608500001
1970-01-01 00:00:09.300,0.8887840509999999,0.7438687085000001,-2.6928226945000002,-1.9527260065,1.89759699245,0.7281299531500001,-16.256499294999998,36.276699065,-24.259699825,0.12871402499999995,6.502572775,-7.6112685204999995
1970-01-01 00:00:09.400,1.191625703365,2.905783892,-5.4231829645000005,1.4474788905000002,-2.4100215435,-1.28842955805,-11.620500085,33.11689949,-34.818799975,-0.3970521688,12.596742630000001,-10.0757021915
1970-01-01 00:00:09.500,-4.38424921,-7.464260818,-13.905589580000001,0.7640172243000001,-2.5702924730000003,-1.5184135440000002,-11.724199775,28.944499970000003,-39.77199936,-4.39615011208,-2.8790841105,1.1976504305000004
1970-01-01 00:00:09.600,13.618152139,-30.85694313,-5.339434147,-4.1150488255,-2.480650723,3.0636280774999998,-14.371599674999999,29.121398925,-37.38689804,3.6836032885,-21.457363129999997,-9.166154863
1970-01-01 00:00:09.700,5.5286169030000005,-8.174031677,2.286940217,-2.932066798,-2.01304714365,0.614894151505,-17.98279953,33.36699867,-26.43129921,14.8223285665,-3.195592403,21.022927284999998
1970-01-01 00:00:09.800,4.0525442365,0.75119674222,5.291577697,0.43767207899999994,0.20845163615,-0.057037860150000036,-22.319899560000003,36.728097915000006,-15.646499160000001,0.38222384450000013,10.479843141,9.8377347
1970-01-01 00:00:09.900,4.9239801765,-5.437540089285,2.15877469645,3.1874773505,2.419642329,-0.62046810985,-24.070599555,41.3640995,-8.375299691999999,0.5243582725,7.302862645499999,3.9638375045
1970-01-01 00:00:10.000,10.449605583,-33.230772019999996,4.2967616915,3.0493494869999997,1.6553198095,-3.2743704315,-23.869298935,41.278699875,-9.064599753,9.1328763965,-24.75501537,1.6177678110499998
1970-01-01 00:00:10.100,1.4178969787,-1.6944175658,-2.0331515075,-0.13889139899999992,0.7455390767999999,-0.27190338820000004,-24.802599905,35.886299135,-18.049899575,-3.2899137735000004,2.442255497,-6.2927601335
1970-01-01 00:00:10.200,-1.8441184685499998,1.0730313807000003,-3.7127634284999997,-1.1561048032499999,-0.6471926866,1.5664414765,-25.247900010000002,31.268598555,-27.492699620000003,-6.462879896,8.408818244999999,-7.8148493765
1970-01-01 00:00:10.300,4.464408873,-3.7377386095,11.368898155,1.4127370417,-2.1416305899999997,-1.2820920495500001,-25.662698745,27.05349922,-33.537799835,-3.7317717075,7.4689741135,-9.2292295705
1970-01-01 00:00:10.400,5.2281677140000005,-34.1188097,-8.7308117145,-1.9115701915,-1.2056598067,2.29556393635,-28.297899245,25.29059887,-32.214099884999996,-3.9789710030000003,-20.256620405,-7.618868828
1970-01-01 00:00:10.500,19.787745595,-11.507981778,33.125338554,-3.1489175554999997,-1.9377601742000001,1.6363835039,-30.591499329999998,30.750100134999997,-24.46710014,15.96337986,-8.571838619,-5.238067389
1970-01-01 00:00:10.600,-0.24003004999999966,0.9521938859,4.16500678645,0.06978929049999993,0.37712181920499993,0.48363831501,-31.195399285,34.952999115,-15.02429962,-1.712166071,8.7539668085,5.762245178
1970-01-01 00:00:10.700,4.9754259585,0.6254240274999998,5.228018403,2.6759691835,1.4752724469,-0.6193227917499999,-31.17709923,38.18599892,-7.527400017,2.0191071035,11.466355322,6.5513447525
1970-01-01 00:00:10.800,13.378870011,-34.77249908,6.31615448,3.1695338490000005,1.3750171587,-3.7551071645,-29.725299835,40.241699215,-6.9844999315,9.055527687000001,-27.7541809095,-1.8041349055
1970-01-01 00:00:10.900,4.409224272,-3.202793121,-3.4422249794999997,0.7584432363,-0.7725690530999999,-0.48035500955,-30.408498764999997,34.361299515,-13.371199605000001,-2.6620583535,-4.1381781095,-5.546677351
1970-01-01 00:00:11.000,-3.75344141555,-1.0923235566,-1.1020444038,-1.5161992315,-0.8192225434,1.8252879082500002,-32.73869896,28.377200125,-20.52040005,-11.001602651999999,8.310088398,-5.269652366500001
1970-01-01 00:00:11.100,4.041926086,-4.169942081,9.147162916500001,0.721868774105,0.6617003084000002,-1.02057305715,-34.751699450000004,24.192599295,-25.424798969999998,2.3337750435,5.9500153065,5.2624092104999995
1970-01-01 00:00:11.200,3.6059837786499997,-20.862721445,-6.765107989,-1.8278076948,1.6299694775,2.0071676965,-35.91069794,22.435799600000003,-26.333699224999997,-1.9879529475,-10.8165335655,-11.429456232
1970-01-01 00:00:11.300,7.3372917184999995,-18.8744359,16.00977846895,-4.3577844505000005,-1.35401930665,1.59293693315,-33.58659935,27.944099424999997,-22.795700070000002,4.21507823475,-14.536743640000001,7.6393229965
1970-01-01 00:00:11.400,4.512115717,-0.10962116700000002,0.6637092825000002,-0.4521033394,-0.2714452745000001,-0.012064233399999999,-30.133999825,34.41620064,-17.06169939,2.5935207604,7.1407999975,3.9575527905000003
1970-01-01 00:00:11.500,0.7211368679999999,-1.9673489925000003,3.8992539645,2.6356532570000004,1.000873238,-0.5271611828,-27.68789959,38.40559768999999,-12.65749979,0.46862626100000004,10.165846347999999,9.0893979085
1970-01-01 00:00:11.600,6.5173010824999995,-26.065166474999998,1.36764766295,2.779889464,3.4149416685,0.211124081165,-24.47319889,41.81549835,-11.541199679999998,3.0309295656,-8.951145646899999,0.6345428077
1970-01-01 00:00:11.700,1.2011969685000001,-16.7497587215,4.1027934851,2.64848104115,-0.24517881126999996,-1.4932160975,-22.09419918,38.18599892,-16.98239994,1.4562223555,-15.3956885345,1.779408574
1970-01-01 00:00:11.800,-1.0408778937499998,1.025174856,-2.041675985,-1.3903647065,-0.16828841000000005,0.42278264474999994,-20.026299475000002,32.62279892,-27.205999374999998,-3.9516607519999996,6.5540866855,-7.093228817
1970-01-01 00:00:11.900,0.7247262004999999,1.275374532,0.6206383705,-0.31939675659999994,0.23349636799999995,-0.5302154273,-18.31830025,28.773698805,-35.788700105000004,-1.68303894995,12.053878069,-8.3132231255
1970-01-01 00:00:12.000,1.7291134595,-13.967803478999999,-2.1542881278499997,0.9669711888999999,-1.75504058585,-0.15118467824999998,-18.348799704999998,25.47970009,-39.582899095,-1.4449703694999998,-4.480067492,-5.692064282895
1970-01-01 00:00:12.100,5.0916274784999995,-19.1569385535,-4.3316071035,-6.552024126,-2.07611705345,1.3944116235,-20.715600015,26.351999284999998,-37.429597855,0.88049531,-14.43042231,-9.339518068
1970-01-01 00:00:12.200,11.500503778999999,-10.875827072,16.195520379245,-0.90871164225,-0.8570187389499999,0.86327990905,-22.813999175,31.28079891,-28.175899505,9.7683877925,-8.524601222500001,13.668429374
1970-01-01 00:00:12.300,2.6328526735,0.4471586944999997,4.1183469295,0.8302177935000001,1.4204489585,-0.68307992815,-24.235300064999997,35.752098079999996,-18.287799835,1.6524431105000001,9.8288168895,7.496589183499999
1970-01-01 00:00:12.400,-0.4722833635000001,-9.1401342165,1.163958788,3.3413345815,2.667951703,0.66338011625,-24.698900225000003,39.729299545,-11.352099894999998,-3.2528579235,5.14008188455,2.1550530195
1970-01-01 00:00:12.500,6.618996382,-31.00425148,5.6027941705,3.9280532600000004,0.31283015050000007,-0.80792186385,-22.179598804999998,40.4734993,-11.248399735,7.068558573000001,-18.591595650000002,3.6751179694
1970-01-01 00:00:12.600,0.66011997295,-8.2517985115,-1.554437369,-0.03718534099999998,0.023746669249999963,-0.12094774840000005,-19.898200035000002,35.800899505000004,-20.111700055,-3.3116635084999997,-4.4045290965,-4.632705927
1970-01-01 00:00:12.700,0.2902793880000001,5.12273407,-5.636293649500001,-1.583316088,-2.29586935,1.565907001,-18.379300115,31.29909897,-31.048999785,-3.1098579765000003,12.427964688500001,-10.200067757
1970-01-01 00:00:12.800,1.7183457615,0.211316147835,-0.8804092410000002,-0.18058168899999993,-0.7069793567999999,-0.6092438102000001,-17.757099150000002,28.133199689999998,-37.490598680000005,3.7932591438000003,6.474920272,1.2407462595000007
1970-01-01 00:00:12.900,0.2783151865,-20.496470455,-5.593222856500001,0.53029175648,-1.575909555,-0.2519745229999999,-20.794898985000003,25.49799919,-38.46049881,-5.8237810135,-15.8998298635,-10.239604473
1970-01-01 00:00:13.000,14.011920455,-21.551107405,8.954540134,-5.797245741,-1.511388815975,2.62954473495,-23.24099922,29.365399359999998,-32.16530037,15.375592710500001,-13.855129715,26.273457765
1970-01-01 00:00:13.100,2.328814566,-1.837986946,5.6602218155,-1.39540418965,-0.6121453047,0.8888591454500001,-24.930700299999998,34.892000194999994,-21.79529953,-0.52446517348,4.9354629515,6.951521397
1970-01-01 00:00:13.200,2.3754747510000005,0.3058326468,4.45364107195,1.673187017,1.2578108682,-0.7871530204,-25.33329964,38.930198669999996,-13.16989994,4.36396724,10.730450153,5.9803168775
1970-01-01 00:00:13.300,8.8730351915,-21.893429755,-1.00139623865,2.8583070035,4.1298619510000005,-0.10376767815000001,-23.911998744999998,43.23679733,-9.491600037,2.6870601175,-8.109293939,0.8398495315499999
1970-01-01 00:00:13.400,2.738286376,-20.9069895725,2.9859435554999996,3.5141278505,-0.01382040975000004,-1.2468156215,-21.636699675,41.278697965,-14.54849958,2.2128711936500003,-20.4602866195,3.4543628695
1970-01-01 00:00:13.500,-3.1417761149,-0.274725914,-3.908974886,-0.6416950226,0.85228461015,-0.30763791485,-20.630199429999998,35.928998945000004,-25.253999710000002,-5.4426381585,5.804456234,-7.9281506535
1970-01-01 00:00:13.600,2.2138096095,3.888635874,-1.7723337415,-1.11670514965,-1.08005428305,0.81509931773,-19.196699145,32.00059891,-34.696800235,-1.64958298205,13.430010320000001,-8.075552464000001
1970-01-01 00:00:13.700,-1.5496517567,-15.941732647,-6.6107708215,1.8567466585,-1.622333944,-1.0740222039,-19.53829956,28.21859932,-39.351099015,-2.225735307,-3.4582478997500004,-0.8886086940000002
1970-01-01 00:00:13.800,10.110722544,-24.293580055,-3.114258647,-6.5225505825,-0.6087092758,2.9406950475,-20.898599625,28.907899855,-37.313699725,2.534760237,-16.34283829,-9.364861965500001
1970-01-01 00:00:13.900,2.5694428684999995,-8.7521973845,3.56052017205,-1.545290887,-1.6502038538,-0.31565532104999994,-22.045399664999998,34.208799365000004,-27.517099379999998,6.9549181465,-5.306358574,18.5742900979
1970-01-01 00:00:14.000,6.215506315500001,0.79292161745,4.482205331149999,1.1387719809,1.0056073369999998,0.06406261025000007,-23.332499505,38.246999745,-17.506999020000002,2.3628642559999995,9.2255964295,11.330402375
1970-01-01 00:00:14.100,1.0790133480000001,-7.002147019000001,4.414159595999999,3.2156527045,2.240129608805,0.08735115824999998,-23.52769947,42.937898634999996,-10.6932997705,-1.09002840514,6.8626356135,3.7803348895
1970-01-01 00:00:14.200,6.0384376737,-36.289249420000004,4.8366422655,3.8841485975000003,0.31970220800000004,-2.1194872260000004,-22.289399144999997,43.31609917,-11.242299559,3.9477282765000004,-22.578417299999998,1.452516675
1970-01-01 00:00:14.300,0.6589235065000001,-3.2709884645000002,-4.140031934,-0.5416687948500001,1.1245698329999998,-0.39033140260000004,-21.246299745,37.826099400000004,-20.221499445,-2.1476899385,1.7444450855,-8.298098326000002
1970-01-01 00:00:14.400,-1.4490035770000003,5.721238971,-3.302095294,-1.3773078325,-1.9754036665,1.12983834735,-20.697299955,33.604898455,-29.670399670000002,-5.7334669830000005,12.647283075,-9.3173503875
1970-01-01 00:00:14.500,3.5534909944999997,-8.017302036,3.5582767725,2.2957167625,0.39674529410000003,-0.93474900725,-20.47159958,29.77409935,-36.142498015,0.783741236,5.961523532499999,25.8017716405
1970-01-01 00:00:14.600,4.761268407099999,-29.701807975,-7.779066563500001,-5.396759331,-0.010689824800000025,1.961965084,-21.8623991,27.913599015000003,-37.17339897,-0.5069941280000001,-17.1108789465,-12.111940146
1970-01-01 00:00:14.700,9.150752187,-18.062819956,25.723890421500002,-2.6907058360000002,-2.8789994715000002,-0.25739577415,-22.100299835,32.134799005,-29.39589977,7.94723153,-14.59624243,7.441184044
1970-01-01 00:00:14.800,5.217400193,0.8158030509999998,7.747809887000001,0.26869636799999996,0.6592568904,-0.30038410424999995,-23.24099922,36.11809921,-19.349199295,2.4957449435,8.133562088,11.4163808815
1970-01-01 00:00:14.900,-0.45299122484999993,-2.8473092319999997,1.216750324,2.8168457745,2.0611513255,-0.05001312494999999,-24.79649925,39.601200105000004,-11.0592994675,-4.8792158365,6.823590278499999,3.90710783
1970-01-01 00:00:15.000,7.868797302,-33.211481095,5.9558850212,4.2280555965,1.462673664,-0.8220477105000001,-24.436599735,42.272998810000004,-8.2288997175,6.408109069,-22.58249712,5.712457777899999
1970-01-01 00:00:15.100,2.6460131405,-9.808030247,-2.628216505,0.8960365502500001,1.1669473421999998,-0.49402270840000007,-23.179999350000003,37.136798854999995,-16.012499335,-0.5856891873,-7.360793114,-6.9289057255
1970-01-01 00:00:15.200,-1.71012046925,4.809124708,-6.9351477625,-2.1893529895,-1.86949809625,1.1625950335,-21.34389973,31.951799389999998,-27.748899459999997,-5.460434556,10.5945973375,-10.341809275
1970-01-01 00:00:15.300,3.7821552755,-2.5718356370000004,-1.0683953165000002,2.043665886,-0.9770501850000001,-0.4698178768,-19.763998985,28.822499275,-35.66669846,2.04759007715,5.74594592955,7.022436621000001
1970-01-01 00:00:15.400,0.1393820050000001,-22.185504435,-7.9680993555,-3.10692191115,0.51013380475,1.5904935448500002,-20.44110012,25.918899535,-38.74720001,-3.9507443904999997,-12.387005567,-11.631973743000001
1970-01-01 00:00:15.500,10.4184994675,-24.203700065,24.27189618365,-5.257333398,-2.6311482195,-0.18638476714999996,-20.746099475,29.847299575,-33.18399811,8.1299846175,-17.538575169999998,-3.462403059
1970-01-01 00:00:15.600,1.6464115681,-0.7703392509999998,5.637340784,-0.18386504055000003,-0.68277452895,0.5175403469,-22.24670029,35.349500660000004,-21.191399575,0.418140918,4.2810125325,5.8520035745
1970-01-01 00:00:15.700,4.0812581779,-0.03290128700000006,4.3039402965,2.919849873,1.0401201844999999,-0.85633151255,-23.966899875000003,38.79599953,-11.553400038500001,4.9046021701,9.0285601615,7.4982426185
1970-01-01 00:00:15.800,9.398559094500001,-24.338894845,0.6517450809,3.8042041060000003,4.361296772999999,-0.9295568166499999,-23.613099095,42.858598709999995,-6.0816998479999995,1.8957049845,-5.5040645605,2.4114679693000003
1970-01-01 00:00:15.900,1.3280165495,-21.14881277,2.0379370450000005,4.447120667,-1.160151601,-1.819408536,-23.52769947,39.43039894,-10.717700005,0.7450733185,-24.2534823405,0.08157968500000035
1970-01-01 00:00:16.000,-0.011365890500000031,0.21969103815000002,-5.2592744830000004,-0.67712420245,2.5292893645000003,-0.3671955615,-21.484199519999997,33.34869957,-23.52159977,-1.216915131,6.472861051500001,-10.8485331535
1970-01-01 00:00:16.100,0.4805087150499999,2.70000125465,-2.3947669265,-2.494318366,-1.7283923030000001,0.9471950235,-18.77579975,29.682600025,-34.879798890000004,-3.05481845155,12.758801935000001,-9.1674988275
1970-01-01 00:00:16.200,-2.8832017180000005,-6.835696220699999,-11.108080866000002,2.4461378753000003,-1.6933449658000002,-1.195886254,-17.732700345,25.626099585,-41.3640995,-5.888358593,-2.5168390275,6.227929114
1970-01-01 00:00:16.300,8.105836034,-25.77907562,-3.8228332699500003,-3.59735588745,0.6426113840000001,3.527490139,-19.074699404999997,25.998199460000002,-39.81469917,1.7791080474999994,-20.3681740775,-9.2059380985
1970-01-01 00:00:16.400,4.6894836415,-12.039337637500001,13.389487984,-4.621517539,-2.8449447453500003,-0.5932853818000001,-20.288599015,32.2446003,-29.786299704999998,11.3950465905,-13.14583206165,24.5218912355
1970-01-01 00:00:16.500,4.4883371594999995,-1.9529919029999998,6.52791932335,0.6142833235000001,0.9231429269449999,-0.04207211735000005,-23.832698819999997,36.55119896,-18.43419933,3.1913267372000003,8.4207487095,15.20468044
1970-01-01 00:00:16.600,-1.0229316949999998,-3.4384862186999996,0.8300102949999999,3.5182511805,1.5262781680500002,-0.025350153450000024,-24.601299285,41.046899795,-11.095899580000001,-3.4322612285000003,6.921622275999999,0.46855145649999996
1970-01-01 00:00:16.700,7.50837841795,-32.601161955,6.3293151855000005,4.201941967,1.3875395060000002,-1.3397407828,-22.923799515,41.9435997,-11.1690998085,3.1181880830000006,-28.371375085,2.9137677550000003
1970-01-01 00:00:16.800,3.3677482605,-3.5545380415,-3.6157045365,0.2708343865,0.8451835515000001,-0.935130775,-22.807899475,36.0814991,-20.41059971,-0.41496014550000015,1.0170800684999999,-7.472668647500001
1970-01-01 00:00:16.900,-2.5467109979,1.5664014814500002,-4.517200470000001,-2.3644371035000002,-0.18638473764999997,0.975446731,-20.91079998,31.26859951,-31.811498645,-5.543469906,9.5021705615,-8.443370819
1970-01-01 00:00:17.000,0.4709374904999999,0.09526425600000006,-2.7227327819999996,2.0604641435,-1.72442174,-0.7322531792000001,-19.763998985,27.8647995,-38.466598515,0.7008312940499999,3.5821576105,2.7335078705
1970-01-01 00:00:17.100,-0.8889336585000003,-19.939839364999997,-2.9549863335,-1.46939311195,-1.9801377058499998,1.8485000729999999,-22.08199978,25.13199997,-39.808599470000004,-7.9359204765,-13.0605797766,-6.9811636205
1970-01-01 00:00:17.200,17.526528355,-22.853549955,11.714811325000001,-5.6904240845,-1.084941089,1.60698643305,-22.18569946,29.896099095,-33.33039951,16.437057494999998,-15.81391764,22.605526090999998
1970-01-01 00:00:17.300,0.9665507675000001,-2.5897819699499998,2.0164017655,-1.30912204845,1.08471202825,0.26831465214999994,-23.411799430000002,35.48369979500001,-22.61880016,-1.5903763770000001,5.86503982585,12.915701864499999
1970-01-01 00:00:17.400,0.27816557850000034,-0.9761221409999999,1.4572289587,3.1117322445,0.8074637057,-0.5177694038,-24.314599035,39.3205986,-13.34069967,1.855857372,7.3106985095,5.5829464195
1970-01-01 00:00:17.500,8.68041289,-25.8270812015,0.8718847631,3.9419499635,3.5910947325,-0.61115269375,-22.350399969999998,43.920000075,-9.8758997915,3.3636171815000004,-3.7073409564999995,0.6742169261
1970-01-01 00:00:17.600,-0.3502493500000001,-15.201901195,1.5064313415000001,2.9688702970500005,-0.6331431864999999,-1.28025949,-21.29509926,40.308797835,-15.59159946,-3.8000116349999997,-19.7322592715,1.8504834194999997
1970-01-01 00:00:17.700,-0.7188936475000001,2.3612672685,-5.5622656345,-1.9208855625,-0.264725864,0.42858570069999996,-19.953100205,34.257598875,-27.675699235,-2.221338749,9.324083805499999,-11.39851761
1970-01-01 00:00:17.800,4.351796790750001,-0.4028913974999999,17.756388666000003,-0.6423059105000001,-0.3018349410000001,0.1476723254,-19.282099725000002,30.658599855,-36.41699982,-2.5291574,12.390503885000001,-4.4914393425
1970-01-01 00:00:17.900,-1.3054342865,-10.2891373615,-3.988087654,1.4250302912500001,-3.2933829425,-0.6522321552,-20.18489933,27.74889946,-39.473100665000004,-1.5009069445,-1.945569515,-2.4952129130000005
1970-01-01 00:00:18.000,7.544420243499999,-22.315912245,-0.010319054100000058,-6.0551762579999995,1.3246222436,3.5884987115,-22.52119923,29.182398795,-36.404798505,-0.04454755800000054,-23.110284806499998,-7.355662763
1970-01-01 00:00:18.100,7.389933703500001,-13.863715171499999,20.42468488,-2.6159534454999998,-2.0349612238,-0.43446511040000013,-23.295899390000002,34.33690071,-25.241799355,10.6511805075,-12.752127173000002,3.5971608162
1970-01-01 00:00:18.200,3.685096264,-0.9367899895,5.89112925735,2.376806736,1.0230164232,-0.665289011035,-23.96079922,37.862697600000004,-14.853500369999999,2.1632820369999997,7.94643259,15.33949089
1970-01-01 00:00:18.300,-2.1349961012499996,-1.3724334240000002,0.10588240649999991,3.476179123,2.10497963415,0.608403840363,-23.417900085,41.400699615,-8.753499985,-4.245413780000001,9.076297283,1.16258263565
1970-01-01 00:00:18.400,5.9558851735,-34.26148033,7.616204977000001,4.213166236999999,-0.27724826299999994,-1.8924811485,-20.77049923,42.5291996,-9.192699434,3.3212395312500003,-28.5830564515,2.0465434791
1970-01-01 00:00:18.500,1.8738792539999998,-4.8007498360000005,-3.977319956,-0.40224292859999994,1.3717338742,-0.549304388415,-20.64849949,37.057498935,-18.76970005,-1.5460289718999998,-1.4527392399999997,-5.836304903
1970-01-01 00:00:18.600,-2.6497519014999997,1.3138091417,-3.4482070205,-2.340613961,-1.23047542565,1.377155125,-19.83109951,32.1408987,-30.26819992,-6.167319298000001,9.776903154,-8.521072625999999
1970-01-01 00:00:18.700,2.6328525540000003,-2.6412274245000003,-0.8817551431999999,1.614774704,-0.8637380601,-1.3543247282,-19.160099985000002,29.42639923,-36.27669907,3.08115565795,4.972364425099999,7.0817208275
1970-01-01 00:00:18.800,-2.2331017255,-18.565611835,-3.7031922340000003,-1.0852465034,-2.00793126205,2.631988138,-21.776999475,26.968099594999998,-37.41739845,-8.6876630785,-16.87731838065,-12.688886168
1970-01-01 00:00:18.900,18.76062679,-24.580868719999998,11.23953655445,-5.336438239,-1.0225582125000003,0.7273663879500001,-21.79529953,30.554899215,-31.85420036,11.6487414835,-13.956552503500001,-5.535460472
1970-01-01 00:00:19.000,0.9210871905,-1.174875975,8.472087383,-2.379097462,1.21176827,1.195886254,-22.289399144999997,35.64229965,-20.80709934,-0.7020790575000002,3.5501980805,15.753325460000001
1970-01-01 00:00:19.100,4.43569475395,-0.5931209325,2.78958251315,2.066496253,0.41178742060000006,-0.45431765534999996,-24.10719967,38.789899825000006,-11.608299729999999,6.18533349,7.4467201240000005,4.1451077465
1970-01-01 00:00:19.200,7.278517841,-15.763317349,2.47118750235,3.6275165080000003,3.30697444075,-1.088911623,-22.472399715,42.388898850000004,-7.435899973,2.051121056,0.03225612650000098,1.7705476285
1970-01-01 00:00:19.300,0.6900302170000001,-25.0320644365,2.3742783064999995,4.402223587,-0.6460473535,-1.759545505,-21.447599415,40.083099364999995,-11.785199643,-0.55679214,-35.469985006499996,-1.8846874240000002
1970-01-01 00:00:19.400,-0.8899805544999999,0.03649052975,-4.237090825999999,-1.01049409438,1.30461701755,-0.29954422635,-21.722099305,33.83059883,-23.332499505,-2.5114871265,8.470150709,-9.874262808000001
1970-01-01 00:00:19.500,4.55892512195,3.3306595085,15.242429377999999,-1.6107279061,-1.575527847,1.5988926884999999,-21.636698725000002,30.39629936,-32.531298635,-2.71753990665,11.40741062,-6.784882069
1970-01-01 00:00:19.600,-2.9765217898499996,-15.480814457,-11.49721384,1.3845616429,-0.3329880835,-1.4959649741499998,-22.429698945,26.675299645000003,-37.472299575,-1.5445048810000004,-2.4342887404,1.5243957040000002
1970-01-01 00:00:19.700,6.34965401715,-24.297169685,0.3967598976500001,-4.56363976,0.4824166295000001,3.5974321365,-23.38739872,28.017298695,-35.36779976,-0.7162606715000002,-16.481036185999997,-4.517193377
1970-01-01 00:00:19.800,-0.4615156650000003,-9.077770948,6.2132629155000005,-3.242911696,-2.3445845245,-0.5843517630999999,-22.89939976,34.056299210000006,-26.144599915,4.3907482615,-5.29277229225,19.203994037
1970-01-01 00:00:19.900,6.2563339475,-2.2905295791499998,4.369742600209,1.2378055749,0.020997881999999968,0.03733801855000002,-22.13080025,37.16729927,-15.451299665,4.549515724,7.6108496174999996,12.1178455375
1970-01-01 00:00:20.000,0.9593724014999998,-5.245964646999999,3.7843986750000003,3.7354072335,1.6414992737,-0.511126428765,-21.636699675000003,41.290899275,-9.0036001205,-1.0865368246,6.8353083135,1.92426747095
1970-01-01 00:00:20.100,4.232005953,-38.955003735,7.626972614,4.1788060665,1.596449256,-1.4248012305,-19.001499175,41.04689789,-10.0650000555,3.0352617505,-24.487888339999998,0.20726126429999997
1970-01-01 00:00:20.200,1.0718350112500001,-4.653441906,-3.9043387175,-0.1382805705000001,1.0505045335,-0.6083274931,-18.245100020000002,34.946899415,-19.42239952,-1.9282786847,-0.6236128805000001,-7.460510254
1970-01-01 00:00:20.300,-1.4801102280000005,4.376921177,-5.0367420915,-1.8158197994999998,-1.7116703985,1.1169341799999999,-17.421600345,30.23769951,-30.194999695,-4.461673498,11.157712935500001,-8.857264042
1970-01-01 00:00:20.400,2.7430721519999994,-6.9409804345,7.514360186999999,1.3719629717650001,-0.8462525605,-0.9438354074499999,-16.8664999,26.358099940000002,-36.78299904,1.9326586725,6.108846426,22.953443524999997
1970-01-01 00:00:20.500,-0.27607178700000023,-27.85948372,-5.710471152,-3.1292178148,-1.357684374,3.254212439,-19.629799845,24.90629959,-36.508499145,-3.86006557935,-13.422464845,-6.7800313210085
1970-01-01 00:00:20.600,11.0564860695,-20.43425703,18.007784665000003,-3.5415397879999997,-1.116399735,0.7153021542,-20.197099685,30.091299059999997,-28.474799155,11.36076975,-12.1101145745,1.2998730538
1970-01-01 00:00:20.700,5.837290883,-0.14416754249999997,7.617251873000001,0.021456002999999946,0.8344937266,0.21738526199999997,-20.26420021,34.873699185,-17.897399905,3.0997133255,7.690366268,11.363583564999999
1970-01-01 00:00:20.800,0.189631198515,-2.4677479563,1.08993071295,3.805502057,1.4606885167499999,-0.5781669319,-19.983599665,39.0155983,-10.1320996275,-0.8321650029999998,7.731509685499999,5.029562949999999
1970-01-01 00:00:20.900,0.6373879910000011,-36.65894127,3.263660431,4.0289957525,2.9056476355,-1.6764702795,-17.00069904,40.876098635,-9.5099000945,3.550611198,-23.92789793,3.67593100645
1970-01-01 00:00:21.000,2.9213374184,-7.333702151655,-1.229910884,0.7326349318,0.5814502834999999,-0.4532486647499999,-15.707499985,35.60569954,-17.702199935,-1.7713985445499998,-5.3596010204999995,-5.0131738189999995
1970-01-01 00:00:21.100,-1.3701900840499999,4.002294898,-3.953242183,-2.7941679955,-1.4745852649,0.92383015155,-14.310599804999999,30.658599855,-28.950599670000003,-4.4465976955,11.464582440000001,-8.694263458
1970-01-01 00:00:21.200,2.661566496,-2.2257736925000002,-1.1270194055,1.9528023599999997,-2.2977019545,-1.5891191365000001,-14.38989973,27.437799454999997,-35.983898159999995,3.4231405258999996,5.4320321095,7.255831719000001
1970-01-01 00:00:21.300,-3.1739296314999996,-21.230318544,-7.435546875,-1.3854015767,-3.2225247620000004,1.7666466534,-18.049899105,24.5036993,-36.465799329999996,-9.1335072535,-13.9272742245,-13.4676141755
1970-01-01 00:00:21.400,17.71571064,-19.721942900000002,0.00284147265000001,-4.0398382545,-1.3899065255,2.127122961075,-21.362199785,28.07219887,-28.47480011,18.8137519355,-14.570091249999999,12.17967248
1970-01-01 00:00:21.500,0.3082253934999999,-0.539282322,9.808030368,-1.5230712592,1.1184613482499999,0.142021989425,-25.058799745,32.769199369999995,-16.543200015,2.2007080320000005,4.9970071315,8.5746412295
1970-01-01 00:00:21.600,0.9809076785000002,-1.5197414755,3.7724343535000004,3.1761003734999997,1.08242134005,-0.63329587875,-27.504899979999998,35.83749962,-6.679499865,1.9917576909999999,9.048366547,8.597504139
1970-01-01 00:00:21.700,11.714960335499999,-22.068255425,1.6344473809,3.544670343,3.303232968,-2.2537208795,-26.852199555,39.003398895000004,-2.6656999585000003,6.30447173,-6.952917578499999,1.691933751
1970-01-01 00:00:21.800,5.9546887875,-21.1178555505,-0.44715875400000005,1.58117809905,-0.25693756349999997,-1.2274976073000001,-26.986399650000003,35.556900025000004,-7.7103998659999995,0.06187975400000001,-23.016077520000003,-3.6296236515
1970-01-01 00:00:21.900,-2.5251757056499997,1.535294831,-3.8515471220000004,-2.1333076955,0.620773554,1.5974419414,-27.42560005,29.61549854,-18.47689915,-4.6453893186499995,8.144269466499999,-7.1304075715
1970-01-01 00:00:22.000,2.1994527580000005,-0.04965114599999998,10.942826749,1.7261780353,-0.9500202088999999,-0.61138170965,-26.614299775,26.071398735,-28.303998945,-4.5214180944999995,12.068679335,1.2412915230000001
1970-01-01 00:00:22.100,-2.9238796235000004,-10.435249089,-7.9670524595,-0.22295925019999996,-2.573117733,1.19321371625,-27.44999981,22.4418993,-32.653299335,-6.7982261180000005,0.19085407259999998,-10.582677841
1970-01-01 00:00:22.200,17.8126208795,-29.853901864999997,-6.4755761625,-6.695649624,-3.223440886,4.760943413,-28.200299264999998,24.34509945,-29.3470993,6.86016821705,-22.054793835,-7.6562905923
1970-01-01 00:00:22.300,6.4467127904999995,-6.1809601785,-0.25812566299999995,-2.5215010645,-0.8989381790000002,1.2766707839,-27.474398615,30.56099987,-19.501699445,14.3228673358,-1.8900525569999995,14.386440276
1970-01-01 00:00:22.400,4.1651563645000005,1.1712867020000002,2.6974587735999997,0.5583143829999999,0.7446991801,0.09926268459999998,-27.04129982,34.824897765,-9.735599755,0.08249807350000005,10.7255632865,10.008722545
1970-01-01 00:00:22.500,5.3763732613999995,-4.111318052,1.8786649705000003,2.9588677885,1.729308605,-0.70453593115,-25.863999370000002,39.64389801,-2.879199982,2.0399470924000003,9.1641335495,5.194788830599999
1970-01-01 00:00:22.600,12.856935024,-36.400515555,5.7535421845000005,3.2895652055,0.7485169169999999,-4.025407195,-25.174699785,39.79029846,-3.9954998489999998,10.639475583,-26.374701975,4.9924833775
1970-01-01 00:00:22.700,1.5566806795,-1.5879369082500001,-3.7366915945000003,-0.33398073925000005,2.4930967095,0.05138752609999994,-25.94939995,33.995300295,-13.602999685,-2.560939074,3.2530677315,-6.8296208384999995
1970-01-01 00:00:22.800,-2.999253571,3.801148415,-6.115157366,-2.0675653215,-1.1647330293295,1.257200003,-26.046999935000002,29.652098655,-24.021800040000002,-7.808041334,10.41341305,-11.35658407
1970-01-01 00:00:22.900,4.616353094,-5.1157052525,8.682806016999999,2.374439657,-0.4492018224999996,-0.9349780978,-26.492300035,25.44309902,-31.146598815,-0.2323145864999998,8.974813461,13.136815069999999
1970-01-01 00:00:23.000,3.0266213430000004,-35.483467105,-9.585498092,-1.2970578073999999,-3.658211589,2.0616859795,-28.181999205,23.362999915,-31.469899175000002,-4.314592123200001,-16.055769446,-8.109029292999999
1970-01-01 00:00:23.100,30.97179985,-15.952500345,32.36995578,-3.401808381,-1.69174147039,2.37016367915,-27.492699625,27.901399615000003,-23.50939941,21.181742665,-10.512746811249999,-5.3079984190000005
1970-01-01 00:00:23.200,-0.5356931684999999,0.7091727855,3.77243443215,-1.06203434615,1.4660334585,0.65429378022,-27.212099075,31.567500114999998,-13.139399529999999,-0.45031189950000017,8.399977205999999,5.209307431999999
1970-01-01 00:00:23.300,1.2693923715,-0.9007481335000003,4.146013975500001,3.01529479,0.9623135029500001,-0.43255622685,-27.7123003,35.703300475000006,-3.9832999705,0.6812698839999998,9.8485307695,9.050063133
1970-01-01 00:00:23.400,15.917654035000002,-39.032770155,0.9222835896,3.1044784785,2.925271094,-3.616139412,-26.156799315,38.686199185,-2.2448000315,12.779639718999999,-17.8774318675,2.5658630802349998
1970-01-01 00:00:23.500,2.9009982945,-7.7442206140000005,-1.6238293050000001,0.9064210055000002,0.7428666353,-0.4501944481499999,-26.632599835,33.82449913,-9.961299894,-2.4583570955000003,-10.184372423000001,-3.135656953
1970-01-01 00:00:23.600,-3.282952547,2.635245383,-5.0116174220000005,-1.4148749710000001,-0.44729290895,1.594845891,-27.205999374999998,28.828598980000002,-20.45329952,-8.601831913,9.913327692500001,-9.826645376000002
1970-01-01 00:00:23.700,-0.7788637874500001,-0.3634098765,-4.447808683,1.6317257283000002,-1.2337587774,-0.44210073344999995,-27.687899584999997,25.436999319999998,-28.639498709999998,-0.5547652245000001,6.8040966990000005,3.4078769685000005
1970-01-01 00:00:23.800,2.832802892,-21.3451740755,-5.8003514425,0.073988877215,-2.6290102005000002,0.8316685555,-29.731399535,22.38699913,-30.53659916,-6.338268757,-14.7036259155,-13.393927571999999
1970-01-01 00:00:23.900,21.689890865000002,-19.03729725,9.2512510405,-4.3795459717,-2.849602461,3.0056740045000003,-29.932699200000002,25.85179901,-24.192599295,21.405484198,-20.745224,5.7185225485
1970-01-01 00:00:24.000,2.8302605597,1.372433424,6.237191081,-1.03416436905,0.8491540253000001,1.1407572628,-29.27389908,30.640299795,-13.328499315,-0.9949535130000002,7.904135703650001,8.8038982135
1970-01-01 00:00:24.100,3.1966614724999998,1.8415760995000001,2.003091574,2.323357582,0.6180247068,-0.38384114205,-28.645599365,35.04450035,-4.6664999725000005,4.023770511,10.4393737325,6.4855741264999995
1970-01-01 00:00:24.200,13.769049407,-21.898216245999997,4.357778638349999,3.098522663,3.1605999469999997,-4.2591325045,-26.833899495,39.704898834999995,-1.2810000179999999,7.786661149,-3.5840795025,5.100319624
1970-01-01 00:00:24.300,3.9293138385,-21.094974993500003,0.8839983939999998,1.65799213925,0.25838834050000004,-1.1273949743,-27.45609951,36.325498585000005,-6.167099714,0.3881330494999995,-26.234792234,-5.151561022
1970-01-01 00:00:24.400,-1.6645072696,2.32163611065,-4.016801417,-2.076040745,0.951470952585,1.37684974095,-29.035999295000003,30.457299235,-16.54929924,-5.7581144570000005,9.406186581,-7.6342144014999995
1970-01-01 00:00:24.500,3.8561833202,-2.0668004750000004,8.0937228195,1.0145409105,-1.3365338741500001,-0.7136223019000001,-29.53009987,26.284899709999998,-25.436999319999998,0.7357425689999997,9.267490385,13.7112641325
1970-01-01 00:00:24.600,-2.9454151394999997,-23.1252844315,-5.963213264,0.6155813336,-2.605645299,0.27365958700000004,-31.2380991,21.80139923,-28.816399575,-8.185187339999999,1.3204603195000002,-8.900731086499999
1970-01-01 00:00:24.700,21.944875715000002,-25.405495645000002,-0.40767714364999996,-4.509045481499999,-2.326259136,3.2281749245,-31.72609997,23.802199365,-25.138099670000003,9.2340178475,-20.214357375,-10.277532575
1970-01-01 00:00:24.800,4.590032218999999,-3.5750265303395,5.1346982720000005,-1.5568970144,0.426447745405,0.86763218045,-31.146598814999997,29.188499450000002,-15.11579943,8.8744120575,2.2367284299999994,4.8175041675
1970-01-01 00:00:24.900,4.168745756,0.07238292699999982,1.8595223873499998,2.4136102194999998,0.06704048065,-0.027029991150000002,-31.183198930000003,32.915599825,-5.770599723,2.666545868,8.7804822935,4.92102468
1970-01-01 00:00:25.000,9.633204817500001,-10.02592644265,3.3378380539999997,2.9661979675000003,3.297048092,-3.7215104104999996,-29.27999878,37.94809914,-1.2809999584999998,4.7570070027,4.7315588015,2.62678998715
1970-01-01 00:00:25.100,8.3044405595,-36.369259835,-0.12023933229999997,1.9001931697,-0.2338781955,-1.8694980441,-29.06649971,37.112400054999995,-3.9039999245000003,7.6208572395,-25.533357619999997,1.28402662275
1970-01-01 00:00:25.200,-0.858873725,0.9809077085500001,-3.0412775275999997,-2.1307115555,1.0525661556500001,1.69800266605,-30.94529915,31.555298805,-12.93200016,-5.928573012499999,6.5685901645,-6.5848202705
1970-01-01 00:00:25.300,2.319243371,3.0590741635,11.7089781745,1.1544249055,-0.828308895,-0.03199309100000014,-31.8175993,28.328398704999998,-21.63669968,-6.204689502499999,10.695934296499999,-6.3069455625
1970-01-01 00:00:25.400,-1.6718353033,-3.4480575027,-5.003093004,-0.7780666947,-2.456064224,-0.8881719112,-33.47680092,24.759900095,-26.42519951,-3.29847788805,3.5421111585,-6.6700361945
1970-01-01 00:00:25.500,12.088390351500001,-30.17453957,-9.3855476385,-1.6013360620000001,-2.2000427244000003,2.2497505696,-34.19050026,25.357699394999997,-24.686699865,3.5116987225000003,-26.734046935000002,-6.5050932789500004
1970-01-01 00:00:25.600,8.668448805499999,-8.3967139695,4.001098634,-3.4360159635,-1.2276502622,2.1536184250000003,-33.037599565,30.62199974,-16.64690018,15.1037391425,-2.6344194413999995,20.5895121075
1970-01-01 00:00:25.700,4.889284253,0.7977073195,5.729613721,0.012140572000000072,0.75034952165,0.808074586,-31.183199885,33.879400255,-6.9722998144999995,2.8338874877499998,8.113739728999999,7.7002294065
1970-01-01 00:00:25.800,2.5299612285000004,-1.3425230979999998,3.09377011655,3.2260371445000002,0.8019661008000001,-0.67071029545,-28.694399835,37.77120018,-0.52459999935,0.17074781654499996,10.1967859245,4.2724952695
1970-01-01 00:00:25.900,14.342279432000002,-36.359838485,6.3460648045,3.0271298289999997,1.7517571744999998,-3.8484903575000002,-28.07219887,39.277898789999995,-0.8905999511,11.822679282500001,-28.563709735,0.880882859
1970-01-01 00:00:26.000,2.83743906,-3.2303107975,-2.9956644175000005,0.41308546050000017,0.99797171365,-0.7036960570999999,-30.359700205000003,34.465000155,-8.3325996415,-3.0051794055,-2.0944704995000003,-4.3165075779999995
1970-01-01 00:00:26.100,-3.7019957305,1.01814600805,-4.9480581279999996,-1.6459279654999999,-1.05546775475,1.2479609253000001,-32.45200062,29.859498975,-17.934000015000002,-8.170386791,8.9095036995,-9.6087059975
1970-01-01 00:00:26.200,3.7520953420000005,-1.63579341765,12.774232865,1.8959171775,1.36035686735,-0.33359895645,-33.976999285000005,25.656599045,-24.85139942,-4.4783933165,6.4972438805,-5.288944245
1970-01-01 00:00:26.300,3.2481071349999997,-22.368704795,-4.0562828775,0.229754925705,-3.7473188635000003,0.8980981705000002,-35.007900235,22.728599545,-26.43129921,-5.2771015165,-13.9701504715,-10.585093735
1970-01-01 00:00:26.400,21.24213314,-19.690836431,-10.8818097125,-4.45750516645,-1.9730366765,3.316595316,-34.123399735,26.534998895,-20.373999595,23.94641638,-11.7953910825,26.1358215815
1970-01-01 00:00:26.500,2.1216859817500002,0.38374888900000004,3.4313076735,-1.80444285285,1.21459344025,0.9859838187500001,-32.67160034,30.609799385000002,-10.790899751000001,-2.59112405785,10.0008716565,14.245791912000001
1970-01-01 00:00:26.600,0.9462118145,0.7677970232,6.605835676,2.3285497425,0.9361234158,-0.48150034244999995,-31.689499855,34.184398650000006,-1.9885999599800002,0.002470969999999628,9.2469162935,6.4666559695
1970-01-01 00:00:26.700,14.824732303,-28.02593565,2.3970100879999996,2.818983674,4.14238441,-2.6086231470000003,-29.95099926,38.155500415,0.8601000011500001,8.355720518450001,-8.730824946999999,4.409794569
1970-01-01 00:00:26.800,4.1027934550000005,-17.624784233,1.091127038,2.7174303679000005,-0.1983726025000001,-1.03279001265,-29.42639923,35.25799942,-5.9535998105,-0.171566844,-20.092572450000002,-3.4583430295
1970-01-01 00:00:26.900,-2.6114668396500003,0.8971589205000001,-5.4723854065,-1.2749146225,0.370326221,1.21062290665,-29.877799035000002,30.2132988,-17.09219933,-5.470387816500001,8.311496258,-8.4787712115
1970-01-01 00:00:27.000,6.45389147075,-0.6433701515000001,14.816357851,0.9844567180000001,-1.62584635605,0.26411503550000004,-29.963199615,27.120599745,-26.236099245,-4.020298481,11.461244585,-6.5016589165
1970-01-01 00:00:27.100,-4.0443190335,-18.827775835,-6.6717875015,0.6635328231000001,-3.0533200505,-0.47584998600000006,-32.134799,23.30809975,-28.98109913,-7.391265869000001,2.1535470485,-8.7810375685
1970-01-01 00:00:27.200,21.047118185,-30.27040291,-4.3543390035,-5.0700321195,-1.94325777915,4.1717814205,-33.70859909,24.92459965,-23.97299957,8.820922853499999,-22.63535404,-9.9078140275
1970-01-01 00:00:27.300,3.6095728890000003,-3.779762566,1.1304590705,-1.4952014089999999,-0.1857739089999999,1.2993485035,-33.531698225,29.3348999,-12.5720996835,7.926396014000001,2.3687307836000002,5.1701823491350005
1970-01-01 00:00:27.400,5.836244106500001,0.17422747600000021,1.4093725831,1.8998877405,-0.12499463599999994,-0.28175330165,-32.982700345,32.159199709999996,-1.79339990005,4.823768854,11.1640505805,5.8393028970000005
1970-01-01 00:00:27.500,8.5558362615,-6.9148089622499995,2.15757825985,3.2643676995,3.2687200305,-2.6693261863499997,-30.420700075,37.197797775,3.342799902,3.18011587879,6.50340175765,5.0698146976
1970-01-01 00:00:27.600,9.618847487,-37.72688675,2.2688445451,2.941229582,0.22883866730000002,-3.072408974,-29.572799685,37.04529953,0.19520002599999997,9.028170824,-30.97746849,2.7789521218499997
1970-01-01 00:00:27.700,0.22088742249999993,0.35623148085,-3.0855448245,-1.932186246,1.8508672120000003,0.73584187035,-31.286899565,31.48209858,-9.235399723,-4.2840337755,5.5402612685,-6.6838560105000004
1970-01-01 00:00:27.800,-1.92667083455,2.395963192,-3.1045378450000003,-0.187759161,-0.645970950625,0.8708391783999999,-32.714300155000004,27.504899025,-18.96490002,-7.127586126500001,10.14893198,-7.89656353
1970-01-01 00:00:27.900,1.7926728428,-6.7232334615,-6.510272263999999,1.28117571035,-3.228175104,-1.4617574815,-34.617498395,23.22270012,-25.04659939,-0.5828077790000004,2.7935349939500003,12.160804745
1970-01-01 00:00:28.000,6.555586098949999,-28.288099289999998,-3.5666515825000005,-3.1788492205,-1.4381635785000002,5.0269675255,-36.215698245,22.38699913,-22.71029949,-1.9793901445000004,-24.419970515,-3.7726700299999996
1970-01-01 00:00:28.100,20.2233896275,-9.289685249,3.2122149454999995,-2.4937839505,-0.6381062866499999,0.9446752963,-35.190898895000004,27.535399435000002,-14.32889938,23.483849525,-5.173155782,10.9978156075
1970-01-01 00:00:28.200,0.02931213399999999,-1.04087786355,9.154341402,1.5035241393000003,0.7195017189499999,-0.39804331969999995,-34.483299255,30.85379982,-3.9771999719999998,-0.8811620474999995,6.03301239,7.9229569435
1970-01-01 00:00:28.300,1.580608845,-0.4304090140000001,2.1420249047,3.1567822695,2.314958334,-1.0217947216,-34.001398085,34.373500825,3.611199975,-1.3734224441,9.313856125000001,3.7426016335000005
1970-01-01 00:00:28.400,17.27872229,-35.44652748,4.6761737465,3.217027068,0.50677412735,-3.48473084,-32.561798095,36.25230026,2.7450000639999996,13.31499672,-27.146774771,-2.2277299165
1970-01-01 00:00:28.500,1.559073508,-5.1311089975,-2.732453823,-1.4965758027,2.6472593545,0.32100024444999997,-34.385700224999994,31.59799862,-5.398499966,-3.297740817,-4.994964839,-4.339582205
1970-01-01 00:00:28.600,-3.4924741385,1.927867293,-4.053890109499999,-2.192941666,-1.500699043,1.821546555,-35.660598754999995,27.937999724999997,-16.53100014,-8.152606964,10.314038275,-8.555349827
1970-01-01 00:00:28.700,-1.24561372395,-2.23669090885,0.05668020500000015,1.5176499485,-0.11583194159999999,-0.47378841064999994,-36.215700145,24.73549938,-23.93029976,-3.0065122844000003,3.2324352265,-6.33026123
1970-01-01 00:00:28.800,1.04312098,-20.245074751,-5.005485773,0.92436459659,-4.790798664,0.3064162730000001,-37.92370033,21.75869942,-24.644000055,-8.641442299000001,-15.119804622500002,-11.800967692
1970-01-01 00:00:28.900,23.492583275,-16.4863982225,3.2445178015,-4.3045642375,-2.3472569585,4.9963486195,-37.222200395,24.784298895,-17.616799829999998,28.358994247000002,-15.144447804999999,20.379193904
1970-01-01 00:00:29.000,1.38559381373,0.006580353000000372,7.915307521,-1.6492875814999999,0.94750046725,1.17924064415,-35.47149849,28.34060001,-6.41719985,-1.5533294680000003,7.884190081,13.931614875000001
1970-01-01 00:00:29.100,3.4468609095,2.2917259784499997,2.5441685915,1.5709464549999999,0.11949700149999998,0.07093463836,-33.33649826,32.232398985,3.06829994935,3.446021557,9.714122532,4.337738036999999
1970-01-01 00:00:29.200,13.105938198,-14.274233458,5.065306544,3.3264451025,2.3865802289999998,-2.1829389630500002,-29.652098655,37.49669838,7.0393998625,8.655911209,2.6995625504999996,1.8997959496
1970-01-01 00:00:29.300,6.3113688230000005,-35.221451285,0.3596711155000001,2.6650502685,0.41736137870000006,-4.0376240015,-29.401999475,35.51420021,2.1288999906200003,5.5808320060000005,-30.63254738,-0.624017477
1970-01-01 00:00:29.400,-1.7974584700000005,1.3148560224499999,-3.42188592245,-1.3819655775,2.912061572,0.6139014887199999,-31.62239838,30.12179947,-8.0764000415,-5.2582280635,7.7428975105,-7.177078128500001
1970-01-01 00:00:29.500,0.34890353650000017,4.1243288515,18.281912326,-0.6728482844500001,-0.8219713119500001,0.5854207276500001,-33.33650017,26.492299075,-17.403299805,-6.8727087975,13.226903915000001,-8.554074285999999
1970-01-01 00:00:29.600,-2.474926472,-8.40030277,-10.7968645075,1.8780498505,-2.291517198,-1.3993747234999998,-35.361698149999995,21.685500145,-23.448399545,0.9077422614999997,-2.0893141030000004,0.029381275500000026
1970-01-01 00:00:29.700,15.656687258,-30.50504875,-6.0828540925,-3.5058815927,-1.9757092000000003,5.215337515,-35.93509865,21.972199439999997,-21.136499405000002,-0.44599103949999996,-26.061777114999998,-6.692154824499999
1970-01-01 00:00:29.800,12.205639184,-4.603342056,4.363760829,-1.9021783172500002,-1.902636528,1.4057122467499998,-33.61709976,27.236499785,-12.206099985000002,24.781207083,-0.4270806310000004,28.241489409499998
1970-01-01 00:00:29.900,6.386742591999999,2.2235304715,4.853392124499999,0.17103725700000005,0.64642909145,0.33711135405000003,-32.354398724999996,30.475599289999998,-1.3664000035,-1.1760568620000003,11.375732423,13.1957532145
1970-01-01 00:00:30.000,5.3669517913,-5.3813084235,0.53674003465,3.323543668,2.5285259485,-1.91492980715,-31.158800125,35.06890106,7.0393998625,2.1396781206,8.48019552,5.4378495215000004
1970-01-01 00:00:30.100,12.6486097555,-38.08356762,2.93090868,3.438764572,1.0447014569999997,-3.5316133494999997,-30.121799465,36.0814991,5.6058998105,9.9531860375,-31.689878465,2.7097512481500003
1970-01-01 00:00:30.200,0.12981057149999975,0.7571787835000001,-2.7515965700000002,-1.09036234015,0.8661050498,0.7220977878749999,-33.09249878,31.116100314999997,-2.0923000427,-5.398926735,3.7948014755,-6.308879137
1970-01-01 00:00:30.300,-2.5660030839999997,3.6059836149999995,-5.1659545895,-0.47233764827499997,0.010766178399999993,1.976854503,-35.684999465000004,27.876999855,-11.638799669,-8.0003740785,11.000497819,-8.396724224
1970-01-01 00:00:30.400,4.4654557705,-2.8208389284999997,17.260776042,2.7662218805,-1.40250526365,-1.53605180985,-37.14899826,24.747699735,-19.038099289999998,-4.4728074074999995,7.586313965,-5.98653316425
1970-01-01 00:00:30.500,2.1720848104999995,-35.22264862,-10.3443220413,-3.2002288550999998,-2.9997946024999997,3.1076853574500003,-38.179899215000006,22.618800165,-20.05679989,-1.462886095,-14.5766713605,-10.4324040395
1970-01-01 00:00:30.600,29.09238577,-17.026279449,21.808484075499997,-3.0040705205,-0.9044357387,2.2944950459999998,-36.50239944,26.858299255,-13.194299695,16.59833813,-11.543568611,-3.6177648305
1970-01-01 00:00:30.700,1.2647562625000002,0.22806590800000004,2.9955148100000004,-0.26228255049999993,0.95292171825,0.54449398825,-34.117300029999996,29.475199699999997,-3.7209998964999995,-2.7563482521,9.6352839475,10.679543016499998
1970-01-01 00:00:30.800,3.6239298585,1.9170996546499999,3.286392331,3.2410792109999997,0.22227209800000003,-1.1884033677999999,-32.378798485000004,32.06769848,5.0812999009999995,0.53407543875,9.9524984365,4.7970514295
1970-01-01 00:00:30.900,12.575479505,-41.47120476,8.1608712675,3.775646925,1.4383926389999997,-3.5367293359999996,-31.018499375,35.447099685,8.0214998725,11.60189152,-20.921763896,-0.47703695300000026
1970-01-01 00:00:31.000,3.4420753124999997,-5.61954403,-2.29067903745,-0.45508119464999985,2.8579252960000003,0.3724641351,-32.464199065,31.9701004,1.2504999040000002,-2.7280573845,-5.856793163500001,-5.015883684
1970-01-01 00:00:31.100,-1.31979121285,3.4912778735000005,-9.221489906,-1.9223363995000002,0.29526829725,0.7797465173999999,-33.379199985,28.871299739999998,-9.8453998555,-3.7341811655,11.612921715,-11.417867660999999
1970-01-01 00:00:31.200,-1.7638094425,-1.541276872,-8.487790645,1.7918441296499998,-1.0874608755,-1.383110881,-34.056301115,26.181199075,-19.2027998,0.09569930999999987,0.9762659085000003,16.862962725000003
1970-01-01 00:00:31.300,-1.6932211515,-20.341983557,-7.2068825935,-0.2124221325000002,-3.8829268215,2.2353192565,-35.215299605,22.637099265000003,-23.26539993,-10.7682480825,-10.935326814500002,-11.665253997499999
1970-01-01 00:00:31.400,24.239592549999998,-20.178074835,6.632156489,-3.8087853787499997,-1.249411702,2.38070074475,-34.56259918,25.229599,-18.78800011,27.659366607,-19.56336546,19.581117393499998
1970-01-01 00:00:31.500,-1.4587244984999999,-0.1992022995,10.389636040500001,-1.426862791,1.2673553825,1.0131665171,-34.06239891,29.16409969,-8.552199842,1.0478219985,5.5585610865,5.875313759
1970-01-01 00:00:31.600,4.1410785915,1.6226327718000002,3.0960133374999996,2.8121880885,0.7333984933,0.15561334045,-33.30599976,32.61669922,1.1467999815,2.2742567065,9.5971436505,4.852943182
1970-01-01 00:00:31.700,13.089188813500002,-12.672537922,1.5855441095000002,3.358743668,2.808217525,-2.742398739,-30.451199535,37.27099991,5.977999925500001,6.1520312408185,3.9462189659999996,0.27450013149999997
1970-01-01 00:00:31.800,5.3920761944999995,-33.721601488000005,3.0686454784999997,2.956577182,-0.5575508473999999,-4.053124428,-30.65859985,35.39830017,2.6657000185,4.752708672,-40.622296335,-1.0615775587
1970-01-01 00:00:31.900,0.04486548899999998,4.2919762135,-1.50418812035,-1.5916389225,2.216993809,1.4128133657,-32.940000535,31.421100619999997,-5.971899629,-4.6151571275,11.4231081,-4.6315953735
1970-01-01 00:00:32.000,-1.89451727275,2.926272571,-3.226721406,-0.49234290420000004,-1.05416965495,0.5831300842,-34.678499224999996,28.87129879,-14.707099435,-6.173261881,11.1448555,-6.906912327000001
1970-01-01 00:00:32.100,-2.2917258145,-8.541479349,-8.2818580865,1.7949746850000001,-1.8243716954999998,-2.0768806935,-37.246599200000006,24.284099575,-18.763599395,-0.5630533694999997,-0.5484614375000001,0.8536477090000001
1970-01-01 00:00:32.200,15.394672872500001,-27.725485804999998,-3.96640267975,-2.5140947101999997,-0.48066043849999995,4.0050963164999995,-37.966398240000004,23.93639946,-15.95149946,0.7565379145,-24.438271045,-6.3292036055
1970-01-01 00:00:32.300,8.1955674895,-7.176972270499999,-0.07612180699999982,-2.6513061525,-2.3516856435,1.50535669935,-35.93509865,27.88920021,-8.405799867999999,19.322862746,-4.130890369,31.308898212499997
1970-01-01 00:00:32.400,4.7241797445,3.8922251460000004,8.327172279500001,-0.5361711977499999,1.1776371896000002,0.5646519364000001,-34.098999025,30.103499415,1.299300015,-0.028777718499999994,11.0864992125,11.611757042
1970-01-01 00:00:32.500,1.3399807215,-0.864855826,3.3858439325000003,3.309952259,1.4373999238000001,0.0763559118,-31.6894989,34.098999025,8.60710001,-1.5976609587,9.4446218035,4.157387972
1970-01-01 00:00:32.600,18.287744998,-39.779779435,6.404688835,3.4848072530000005,2.26494523885,-3.6519503595,-29.334898950000003,36.386499405,6.728299856500001,11.4049153345,-30.541100024000002,-1.517919779
1970-01-01 00:00:32.700,0.5237290563499999,-3.4217364775,-3.2769705651,0.6282564400000001,0.5005893115000001,-0.4096494019499999,-31.012399674999998,32.275098805,-2.0983998777,-4.8651509285,-2.517845631,-6.3351109025
1970-01-01 00:00:32.800,-2.8628627060000005,3.103341341,-5.562116146499999,-1.8297166230000002,0.23174017665000002,1.496041298,-32.708198545,29.298298834999997,-13.304099560000001,-7.084759474,11.32373238,-8.901031972
1970-01-01 00:00:32.900,3.195465088,-1.2025429306,17.210525511500002,1.9805195329999998,-1.729690372835,-0.6345939634,-34.025798795,26.74849987,-21.343899729999997,-3.4457308054999998,5.7811591617,-5.9758150575
1970-01-01 00:00:33.000,0.9868898395000001,-20.9095315955,-4.2249768975,-0.30801972745000006,-3.9702782035,0.9345963,-36.00830078,24.223099705,-22.283299445,-7.3281383515,-15.883974554,-11.520422218
1970-01-01 00:00:33.100,23.32508564,-17.0069870925,-5.085645437,-3.719830871,-1.4554199578000002,3.5526112915000003,-35.251899715,27.35849953,-14.932799815,25.914191959999997,-10.241198539500001,20.091110586
1970-01-01 00:00:33.200,1.8894325195000001,-0.054436713499999956,7.3251777885,-1.75954550505,1.3301199074999999,0.520212788135,-32.75090027,30.841599465,-4.849499822,1.1794703005000002,10.368023396,12.910480495000002
1970-01-01 00:00:33.300,-0.3658026460000001,-0.48185464739999995,5.260321617000001,2.7799658775,0.81723725785,-0.80731102815,-31.884698865,32.573999404999995,4.928799868,-0.02221798900000005,7.956297874500001,7.275989532500001
1970-01-01 00:00:33.400,19.9745359405,-26.1297736145,7.1289665085000005,3.1073799135,2.6742892265,-2.9984202385000005,-30.481698989999998,35.190898895000004,8.50949955,9.4547576909,-5.9252378939999995,2.413624227
1970-01-01 00:00:33.500,4.4905803204999994,-17.603247998500002,0.8383852245000001,1.5780474245000002,0.3566584585000001,-1.5348301085,-32.1286993,31.854198455000002,3.3976998924999995,0.4855000970000005,-22.822950364,-3.9971643687500005
1970-01-01 00:00:33.600,-2.35408884285,3.2865418195,-5.101348281,-1.7464122775,1.0531769691500001,2.2197425365,-34.239297865,27.95629883,-7.399300096,-6.336511611999999,10.0636620515,-7.4241564275
1970-01-01 00:00:33.700,3.93409943975,-1.5005989075000001,17.479868413,0.37964153265000006,0.8979455230000002,-0.2460950609999999,-35.30069923,26.486199374999998,-16.384599685,-5.204118966999999,11.76446247,-7.2714800855
1970-01-01 00:00:33.800,-1.0013962985,-20.7381444589,-11.612069369499999,1.34959065925,-5.461279869,-0.2244099975,-36.349899289999996,23.735099795,-20.398399355000002,-5.964845896,-6.9457118495,-14.70441675
1970-01-01 00:00:33.900,25.042832852500002,-26.578725815,19.9839575305,-4.2547802925,-0.6069530994000001,4.2145406009999995,-35.398300175,26.297099115,-16.726200105,7.46967124865,-18.030158995,-3.03495511425
1970-01-01 00:00:34.000,1.564008474,-0.7655537130000001,4.2501018055,-1.7621415855000002,-0.4282039405,0.6803311185,-33.165699005,30.536600110000002,-6.75880003,5.5901284235,4.965358734,3.612616541
1970-01-01 00:00:34.100,3.7018462420000002,0.400498688,1.9565811157,2.081920147,0.3807105422,-0.205702820785,-31.445499419999997,32.305599215,2.8792000410500003,3.1381907465000003,8.951464891,5.9386527535
1970-01-01 00:00:34.200,10.204341769,-8.49601566865,0.674476862,2.7865324615,3.26329875,-2.9529120325,-29.249499319999998,35.776498795,8.7656993865,3.1793069839999997,6.047918318,2.4702486995
1970-01-01 00:00:34.300,9.499057175,-39.53675747,0.9103194401999999,2.911832511,-0.660020493,-2.3486313814999997,-29.334899905,34.84319878,5.514399886,9.54274797535,-32.21602058,6.2203832850000005
1970-01-01 00:00:34.400,0.991675377,1.7041384280499998,-2.02238388365,-1.9913620355,1.7046456637,1.10441184055,-32.464199065,30.255999565,-3.1719999017,-4.098702669,6.469225643000001,-5.8045172695
1970-01-01 00:00:34.500,-1.8284155430000002,2.5839493275,-4.7493042945,0.12285664694999998,0.422324538,0.5628957748999999,-34.879798890000004,27.63909912,-12.511099815000001,-7.4273171425,9.647721766499998,-8.5831069945
1970-01-01 00:00:34.600,4.917998194999999,-9.869047642,5.157430293,1.812689245,-4.5073654654999995,-1.3652436140000002,-36.551198955000004,24.265799525,-19.172299385000002,-0.2986681459999998,2.6352887154999998,21.44353676
1970-01-01 00:00:34.700,5.284399509,-28.343133925,-4.4932721855,-4.4480370879999995,-1.2464337945000001,5.783578157,-37.380800245,23.594799995000002,-17.214199065000003,-7.188537122,-21.447587965,-8.443828583
1970-01-01 00:00:34.800,26.4109294405,-14.6404850505,26.492434261,-1.2607887684,-0.8788564204999999,0.87442785515,-34.257598875,28.291799545,-8.668099641000001,25.390950200000002,-12.4524159405,-1.5771093360000004
1970-01-01 00:00:34.900,2.1707388165,3.75089898685,9.5277709955,0.8466343284000001,0.4666872918999999,0.164623335,-30.750100135,31.079500195,1.3907999395,-1.6273736954999998,10.598727702,6.8140220645
1970-01-01 00:00:35.000,2.5455146429999997,0.11784648899999994,1.26819601645,2.698952317,0.7221741973000001,-0.49119754135000004,-27.388998985,35.27020073,9.711199759,-0.24528932549999993,9.8477845195,5.200510025
1970-01-01 00:00:35.100,12.3577327715,-39.18127346,0.17168503999999996,2.8209689855,3.431434512,-3.665465355,-24.637899400000002,38.46659851,9.583099841000001,13.306337355,-17.250756740877502,2.6014621280000005
1970-01-01 00:00:35.200,4.0178482535,-6.377321004999999,-0.8602196575,1.302097261,-0.474093914,-1.45007507505,-28.212498665,35.062799455000004,2.5009999945,-2.0641232725,-8.721373081,-3.389716685
1970-01-01 00:00:35.300,-3.0710382460000005,1.42866467386,-6.201448679,-1.8856090905,0.9255863424999998,1.0710443557,-31.707799910000002,32.116498945000004,-7.5578997134999995,-7.214628458,9.11322975,-8.889900684
1970-01-01 00:00:35.400,0.76420772065,-6.3773210035000005,7.1122168299999995,0.5107446910000001,1.1852727535,0.3440597354,-34.42230034,30.01199913,-14.377699849999999,-3.6119265555,7.084059713,11.0990581515
1970-01-01 00:00:35.500,-2.9177480935,-17.566159425,-10.235448358500001,2.3310694695,-3.4321980475,-0.46630555395000006,-36.130298615,27.193799015,-17.604599954999998,-7.6401238440000006,-9.150427579,-18.935408115
1970-01-01 00:00:35.600,29.311478615,-21.298514365000003,18.4734883883,-4.439179897500001,-4.0691590305,4.3832107785000005,-33.019298555,30.072999,-14.414299490000001,22.5564174665,-24.04938507,-1.990679026
1970-01-01 00:00:35.700,-1.6932210925000004,-0.8971589805,13.6384902005,-2.0590133665,1.1040300725,0.9081008284,-30.323099135,32.952199935,-5.0080999135,3.1055462375,4.9583497045,1.7943401335
1970-01-01 00:00:35.800,3.8790646795,0.8863911630000001,2.8830522598500004,1.5391060115,0.49852773545000006,0.09445226194999995,-28.18809986,34.88589859,2.9523998501000004,3.165490985,10.4313416485,6.2961426975000006
1970-01-01 00:00:35.900,8.4290168295,-7.914410105399999,1.00483594476,3.5884985924999997,1.7500010725,-1.59774731845,-25.516299250000003,38.43000030499999,8.600999832500001,2.1983091829999997,6.4328784965,0.6951208114999996
1970-01-01 00:00:36.000,9.2093759765,-44.31657028,-0.9296116234,2.6906294820000003,-0.26228255024999997,-3.998835325,-26.13239956,36.93549919,5.447299838,11.016352891065,-29.934015275,5.193691136599999
1970-01-01 00:00:36.100,0.8181958199999999,1.47652108948,-1.56759798515,-1.5657542345,2.4741604329999998,1.0304993389000001,-29.475199699999997,33.20839882,-3.3000999691000006,-4.092035055,7.0314650535,-5.242146492
1970-01-01 00:00:36.200,-1.2562318893,2.8268208505,-1.52452716205,-1.0367604792,-1.4755015077,0.8729007093000001,-32.45199871,30.89039898,-11.62049961,-6.707936764,10.1603870375,-8.070109842
1970-01-01 00:00:36.300,1.65119719505,-5.097609520000001,-4.302893280999999,1.19695518165,-1.0405782460000002,-1.66914016,-35.06889915,27.736699105,-16.30529976,0.08523201950000026,3.963499069,5.0250921250000005
1970-01-01 00:00:36.400,6.1879887594500005,-28.966763495000002,-4.380660236,-2.7690470366,-1.279648602,3.5196256639999994,-35.7886982,27.437799455,-14.20689964,-2.011125803,-26.26040411,-7.0349435825
1970-01-01 00:00:36.500,16.238442183,-7.875975609000001,17.300257209999998,-1.9776180390000002,-1.802304864,1.33500674385,-33.531700135,30.591499329999998,-6.722199678500001,16.888062476,-5.995980499000001,3.7846897840000002
1970-01-01 00:00:36.600,2.522782683,-0.7811070680000001,3.289981723,0.02153235650000007,0.5646519138199999,0.5843517409,-30.15229893,32.128699305,2.44609990725,-0.35956931100000045,6.8203752044999995,5.79802382
1970-01-01 00:00:36.700,3.7820059065,1.1078768371,3.869343698,3.377527237,1.775122106,-0.34696123,-27.4255991,34.58090019,9.7172999405,0.96136069285,10.811843395,6.100890398
1970-01-01 00:00:36.800,11.528171061,-38.293088915,5.879314661,3.6046097274999997,0.36238509399999996,-4.03716588,-25.321100235,36.362098695,9.3207998295,7.949283598,-29.696125986000002,-2.350113273
1970-01-01 00:00:36.900,5.0173003675,-5.260470867,-1.216899812,-0.19234055299999997,0.7010999322,0.211658597,-27.535399435000002,33.220600129999994,2.4766000211000003,-1.0917488334,-5.781322716,-6.086467743
1970-01-01 00:00:37.000,-1.4789139625,0.45074798899999996,-2.646162748,-1.9489081504999999,0.3018349036500001,1.5591112375,-29.91439915,31.079499245,-7.130899668,-5.4610506295,8.6234252455,-5.723856688
1970-01-01 00:00:37.100,3.9041892586999998,-0.553639293,5.358576595,0.5473191438,-1.3321052042500001,-1.14167349025,-31.963999745000002,29.63989925,-13.12719965,-0.42656159400000004,9.565829039,6.546378611
1970-01-01 00:00:37.200,-1.7817555518000001,-24.21461773,-5.98474863025,0.6328377499000001,-2.873654604,0.4534777405000001,-33.720798495,27.50489998,-12.755099775000001,-7.778041124,-4.149791241499999,-6.7230887415
1970-01-01 00:00:37.300,19.774585725,-20.905941965,-4.85219562,-4.3693140745,0.08002090449999999,3.295902729,-32.59229946,29.65819931,-7.8506999015000005,11.258798121,-15.794384,-4.2602889838
1970-01-01 00:00:37.400,0.7488040924999999,-5.234149812,4.540979028,-0.93963581315,0.200281549265,1.0437088907,-29.853399275,32.147000315,0.7746999855,6.283032297,1.3324613575000002,12.6372759965
1970-01-01 00:00:37.500,5.420790075999999,0.38973093000000003,-0.03544367849999999,1.5065020325,0.3300102353,-0.12942326069500001,-26.876600265,33.623199465,7.789699793,3.9042847155,11.280886173,4.427916528500001
1970-01-01 00:00:37.600,8.2254772185,-4.760071874,1.90618233375,2.705900669,3.390660405,-3.3978378774999998,-22.960399625,37.03310013,10.7725997,3.5312267545000005,8.966389658,4.43111750465
1970-01-01 00:00:37.700,9.688389539000001,-44.95216465,-1.8836001155000002,2.7568300365,-0.30695074419999996,-2.4615617395,-22.94819927,36.75249863,7.051599741,9.23121309235,-28.47444344,4.872592807
1970-01-01 00:00:37.800,0.4159024955,0.9786644316700001,-2.500200629,-1.647836804,0.9791881331649999,1.0353097617,-26.766799925,32.95829964,-1.3114999535,-5.110281229,5.6189756401,-5.736716746999999
1970-01-01 00:00:37.900,-1.5065809786000002,1.1425727609999998,-2.6090739965000003,-0.08330428599999995,-0.222806535665,1.07837448619,-30.32309914,30.743999485,-9.3452000635,-6.6954138279999995,8.5889730455,-5.4990813735
1970-01-01 00:00:38.000,2.3947668227000003,-5.3358449935,6.2862439155,1.64890575405,-4.910372138,-1.8816386459999999,-33.51339912500001,28.053898815,-14.170299530000001,-4.0993475915,6.937256098000001,1.0943961150000003
1970-01-01 00:00:38.100,3.2362927194999997,-31.28316498,-2.4306590559999997,0.6988092661,-1.905385256,4.50728941,-34.635799410000004,27.315799715,-11.2361993775,-3.5211753845000002,-15.957759854999999,-0.6027852300000001
1970-01-01 00:00:38.200,23.369353295,-15.9046435355,3.3569807999999997,-3.6979166269999997,-1.8596482274999997,3.6914263965,-30.792799950000003,30.3657999,-3.0804999470500003,24.33962536,-7.11805057285,14.9052946585
1970-01-01 00:00:38.300,4.4261237385,-1.69681030515,-3.8971604406,-1.3519576787999998,2.41895508745,1.07493847615,-26.449599265,32.51299858,6.246399641,3.857567072,8.2513899805,10.04027939
1970-01-01 00:00:38.400,0.33693933509999996,3.127269745,2.0905792117999997,2.5917485950000003,0.5924454777,-0.5589252337499999,-23.430099485,34.599199295,13.80429983,0.5632092954999999,11.847877024999999,3.3538671735000003
1970-01-01 00:00:38.500,14.5039443945,-33.3743414875,4.184299232,2.5295185445,2.445679784,-3.141205609,-19.959199905,37.81389809,13.267499925,9.5878052695,-4.207265855,2.919884384
1970-01-01 00:00:38.600,4.131656885,-14.409428058,0.8168498275,1.970974981615,-0.2402156595,-1.8904195426000001,-22.588299749999997,36.06319809,7.179699897499999,-0.034548521000000054,-18.1656100745,-1.5048087835000001
1970-01-01 00:00:38.700,-2.998057246,0.949801022345,-5.9919270275,-1.561631024,1.10021233545,0.94666057825,-26.82169914,34.111198425,-2.23869992056,-6.7757787705,8.779020548,-6.478064537
1970-01-01 00:00:38.800,5.113162905149999,-1.43584311,10.5417299845,0.08513683099999991,0.80532571675,0.2568612695,-30.524398804999997,32.720399855,-8.6741995825,-2.4839212894,11.356919285,7.7521257415
1970-01-01 00:00:38.900,-3.3930225446,-25.7718969585,-10.2593765235,1.4374763664999999,-4.7439923285,-1.8214701414999999,-33.635398859999995,29.755800245,-11.156899450000001,-7.478580952,-2.7480974195,-11.41249037
1970-01-01 00:00:39.000,17.1195993445,-23.80036068,-2.3959631325000004,-4.1296328905,0.4680617450000001,5.0216226575,-33.623199465,30.194999695,-7.0515997409999995,6.2189395434,-16.956457135,-4.4834781884999995
1970-01-01 00:00:39.100,7.240382432,-4.639234543,-2.37921345225,-0.62871453145,-1.3078238965,1.2839245799999999,-30.04249954,32.45809937,1.3298000095000002,16.0747358805,1.3419308665,24.934090615000002
1970-01-01 00:00:39.200,4.208077788,3.4480575325,1.5339488385000002,0.499520354,0.6055023667999999,0.3880407214,-26.266599655,33.068098065,9.375699519,1.88789466035,11.733654975,8.172433732
1970-01-01 00:00:39.300,6.2120665315000005,-2.006830454,0.9713363650000001,3.0006344315,1.518719077,-1.27949596565,-21.78309917,36.337699889999996,14.652199745,3.108876109,10.838353159,4.7849676604999996
1970-01-01 00:00:39.400,9.658329129,-41.028235435,3.5856447219999996,3.0587412115,0.9766683580000002,-4.0330426695,-21.173099515,37.03919983,11.236199857999999,6.3829865438499995,-35.563788415000005,7.154083729
1970-01-01 00:00:39.500,1.820040703,-0.5871388915,-2.3312073944,-0.01504212650000003,1.2304753959999999,0.2742704153,-25.32109928,34.007499695,3.0560998916999997,-4.2522163395,2.4700896739999996,-5.6272399425
1970-01-01 00:00:39.600,-0.806231618,3.5786157845,-8.183602808,-1.0560785829500001,-2.0806984305,1.4109808209999999,-29.28609943,31.780999185,-5.959699869,-6.2679522035,10.0508160595,-8.581488132499999
1970-01-01 00:00:39.700,5.784798502999999,-4.2620657685,6.8177495015,0.9061155318999999,-0.9420792459,-1.17000156655,-33.208400725000004,29.45689964,-10.6383996,0.7835998537,5.692008257,8.3466796875
1970-01-01 00:00:39.800,2.45204502355,-18.95698738,-5.116751909,-1.942112565,0.23754322510000003,2.44308361395,-34.568698885,28.505299565,-9.662399768,-3.8912210465,-12.643376826499999,-7.929387570499999
1970-01-01 00:00:39.900,9.0741815545,-20.658135415,12.68928790235,-4.373666525,0.9447516200500001,2.421780348,-32.177499775,31.451598165,-4.4102998975,5.7277884485,-14.226318834999999,3.4400022326849995
1970-01-01 00:00:40.000,3.2014470844,-0.3957130910000002,5.922385633,-0.8183062672000001,-1.0751675068,0.20257222836999994,-28.80420017,33.37310028,4.3980998995,3.2662203906999996,5.3996810895000005,6.188044548000001
1970-01-01 00:00:40.100,3.2062329055000003,0.2986541985000001,2.8016963004999997,2.5977807045,-0.22662432495000007,-0.63963344695,-25.16249943,34.898097995,11.0959000595,2.7005581260000002,10.536566735000001,5.5099475385
1970-01-01 00:00:40.200,7.1780192855000005,-28.6136713,0.37627136699999997,3.072561741,3.8229112625,-1.1436587870000001,-21.87459946,37.740699770000006,12.76119995,3.23788142225,-11.41692352315,3.7124530373000004
1970-01-01 00:00:40.300,3.9542888405000003,-20.58141565,1.8762719634999998,3.1991597415,0.01588203014999995,-1.5763677355000003,-21.356099125,37.41129875,6.648999929,1.8153458835000003,-16.59464216,0.03809428199999987
1970-01-01 00:00:40.400,-0.58968123775,0.8889335395,-3.2135608195,-1.2217708528,1.8085659745,0.8009734974,-22.685899735,36.28889847,-5.319199920000001,-3.4390408995,5.9950716495,-7.3784332275
1970-01-01 00:00:40.500,4.338636041,3.28414917,-1.9613667725000001,-0.26327514650000006,2.3369489310000002,-0.8088380695999999,-22.929900170000003,35.59350014,-16.909199715,1.9814060924999999,12.38713789,-6.5878803745
1970-01-01 00:00:40.600,-4.084996879,-18.401703117,-5.699853002999999,0.8386169078,-2.3047267794999997,-0.5338041779999998,-23.076299669999997,32.83019829,-25.0710001,-6.8153917795000005,-7.23803854,5.268793583
1970-01-01 00:00:40.700,2.3660529855,-17.90250063,-2.831606507,-5.538399458000001,-2.6338206083499998,3.1053947209999997,-22.76519966,32.305600165,-26.272699355,-0.38710737225,-7.276959895,-4.5082569125
1970-01-01 00:00:40.800,13.53320694,-17.643926620000002,3.633501053,-1.83941385155,-4.5259962976,-1.15824276225,-20.77049923,34.623600005,-18.03770018,12.604681495000001,-9.3722066855,8.042615416
1970-01-01 00:00:40.900,2.5933710335,0.3562314508999999,2.9093731645000003,0.9549069403499999,0.43423606449999996,0.16195086390000005,-19.660299305000002,35.50200081,-6.270799756000001,3.749353051,7.8551135064999995,5.3384006025
1970-01-01 00:00:41.000,2.5730320215,-0.9906284810000003,0.5355436055,3.619422674,0.9111550746500001,-1.086391840295,-19.611499785,38.765499115,4.971499919999999,2.3783477545,11.2527921205,2.7476271988
1970-01-01 00:00:41.100,1.1772687435,-36.960734365,2.7059832213500004,2.37298888,-0.93054945765,-1.6748667955,-19.09909916,40.51619911,8.863299846499999,-2.6883586646,-23.208642005,4.6888606535
1970-01-01 00:00:41.200,3.8204404115000004,-5.633901,1.15079808235,-0.51563143990735,2.1520149109999998,0.7518766151,-21.160899165,39.338899615,3.3062000275,2.6201186180000002,2.6921420097500004,-2.2030768395
1970-01-01 00:00:41.300,0.51161539555,1.0815558435,-1.6226329059500002,-1.99579072,3.003688574,0.6998782754,-22.667598724999998,39.43039894,-5.7827997205,-1.7187762858700002,11.2478399295,-6.7464556694999995
1970-01-01 00:00:41.400,-0.9976575374999994,-6.5808605864,13.22423376815,1.4460282325,-0.6988092661,-1.825135231,-24.34509945,38.33849907,-13.39559984,-4.4113372565,4.5176484565,-2.623549938
1970-01-01 00:00:41.500,3.2804105284999996,-19.323389055,-2.3481068609999998,-2.9028226139999997,-2.5722014905,2.7618695495,-24.772099495,37.64310074,-14.91449976,-3.66579204805,-11.3640103355,-6.696687699
1970-01-01 00:00:41.600,8.06740165,-14.29816246,6.793821573000001,-2.6112957,-0.7886801364999999,1.2605596785,-22.508999825,39.290100100000004,-8.777899978499999,9.5137019155,-5.9574565885,6.592953205000001
1970-01-01 00:00:41.700,1.9612172245,1.0097712275,-0.7607680484,-1.26254490035,0.6833090035,1.1320526600999998,-20.11779976,39.81469917,-0.8966999054999999,1.5119828583000001,7.6179494845,2.9645022155
1970-01-01 00:00:41.800,1.15573337685,-1.3902299405000005,4.33863616,2.080774784,-0.8907680361499999,-1.402199924,-17.860798835,41.51659775,7.8384997845,3.1683487299999995,10.338045118,4.639961481
1970-01-01 00:00:41.900,2.126621008,-33.254550935,2.09895415615,3.3418689964999997,2.18202281,-2.4805743695,-16.671299935,42.30959892,10.3882999435,0.22796082500000003,-23.3742218,2.2476433515
1970-01-01 00:00:42.000,4.3051365615,-8.177620888,3.8537904020000004,1.9986922145000001,0.05497625490000002,-2.517072558,-19.843299865,39.948898315,4.5688998695,-0.36673212050000004,-5.276819228,0.33566117279999996
1970-01-01 00:00:42.100,0.27337998145000003,3.906581998,-4.870291352,-1.7336608765000001,0.4062134625,1.782146931,-23.75339985,37.832199095,-4.0259999035,-3.25177598,10.691606044499999,-7.808431387
1970-01-01 00:00:42.200,-0.15867406130000009,-0.8014460799999998,-4.2836011645,1.0866208675,-0.48821967825,-0.83525726955,-27.242599485,36.947698595000006,-10.888499739,-0.7601027489500001,7.859902381,4.252758743
1970-01-01 00:00:42.300,1.5925730465,-22.223789215,-1.6597213725,-1.257658124,-2.4685100915,1.5312413796,-29.676499365,35.416599274999996,-12.803899765,-5.829168796499999,-13.785405875999999,-5.82486760415
1970-01-01 00:00:42.400,8.8084287645,-15.740585804999998,3.04950285,-4.459108591,1.074174881,0.9121477005,-28.450399400000002,37.19169998,-8.033699751,7.4826271554999995,-5.79674387,2.1121888758
1970-01-01 00:00:42.500,0.16929221149999996,-5.1791149975,6.4742302894999995,-1.3281346555,-0.8862630278999999,0.5867187977,-26.766799925,38.36289787,0.884499967,0.656057775,1.4588444234999995,9.056498048999998
1970-01-01 00:00:42.600,4.435545444500001,3.259024322,1.17367953065,1.8017703293,-0.3204657435,-0.29244312664999994,-25.11979961,38.7105999,9.2658996575,4.0306757685,12.0657854075,4.0697817805
1970-01-01 00:00:42.700,7.9489569645,-22.1771280785,3.3834511044999998,3.2347416874999997,3.04828064165,-2.282125294,-23.52159977,39.643899919999996,13.20649958,3.3241162299999996,-3.6065430639999994,5.3581471445
1970-01-01 00:00:42.800,3.7066317800000004,-22.626081945,4.66540581,2.929852605,-0.116060972225,-1.3994510770000002,-25.449199675,38.387298584999996,8.966999768,0.16795539855000002,-21.570687773,-2.9287600515
1970-01-01 00:00:42.900,-0.11799609649999998,-0.21251255250000012,-1.0805089919,-1.1704597173,0.531895265,0.24380442479999997,-27.91969967,36.362098695,-0.030500054500000262,-2.198747158,6.0522139075000005,-5.3732848165
1970-01-01 00:00:43.000,0.6696912348,3.8011481765,-3.0903304815,-0.35711657990000006,-0.4953207374,1.5695720016499999,-30.146199224999997,35.73380089,-9.034100057,-3.7734334470000004,11.49823284,-7.2391028405
1970-01-01 00:00:43.100,-0.1742273867,-4.23694098,-6.2923758030000005,0.4443150160000001,-3.2943755384999998,-1.387157798,-31.524799344999998,34.47719765,-14.5911994,-2.2510950565000005,4.4562950135,7.635189534
1970-01-01 00:00:43.200,8.9820578115,-31.329826355,-8.418398857,-3.827950615525,0.9959864619999999,3.0801210405,-31.781000140000003,34.861499789999996,-11.894999980000001,0.22219729450000036,-20.765939715000002,-7.259326936
1970-01-01 00:00:43.300,8.608478700900001,-11.4982607365,28.3549483424,-2.1280391815,-2.186451435,0.89855632185,-29.43249893,36.9538002,-3.6233999135,8.8273847105,-9.3471293435,-3.9363216162000003
1970-01-01 00:00:43.400,1.8272192479999998,1.8847965000000002,7.47024252935,0.977431980855,0.86862482135,0.19142428039999998,-25.863999364999998,37.20389938,5.77670002,-0.18082714049999993,8.7212581615,9.358319399500001
1970-01-01 00:00:43.500,4.943272591,2.4103201403899996,2.3599212765,3.215499878,0.4341596365,-0.40392275175000003,-23.192199705,38.411699295,13.682299615,2.6354774235000002,10.463455675,3.0688881872000002
1970-01-01 00:00:43.600,10.8158574105,-39.03396606,7.6220376475,3.408069491,0.7591304180000001,-3.779770136,-21.600099565,39.16199875,13.914099695,8.9043297765,-28.605879309000002,0.27545484899500006
1970-01-01 00:00:43.700,3.6886856554999996,-6.110222043,-1.3185948731350001,0.006032109499999994,0.015729308100000006,-0.5822138155,-24.259698864999997,37.331998825,7.0759997365,-1.7544604540500002,-4.857050655,-4.4725233315
1970-01-01 00:00:43.800,-0.9116654694,0.45897328834999995,-1.736291945,-1.3685269356,0.6885012285255,1.994416237,-28.157599445000002,35.819198605,-1.2200000288,-5.191399336,7.9311373235,-4.9148983955
1970-01-01 00:00:43.900,0.7402794965035,-2.1527924535,0.7175476554999998,1.24139435605,-0.9810970723999999,-1.4947431982000001,-30.957499505,34.76999855,-8.173999548000001,0.7539873125000001,8.7498829355,11.354809759999998
1970-01-01 00:00:44.000,-0.7212864907500001,-18.421892165,-6.3163039685,-0.07398885499999985,-3.156553209,1.92752842615,-33.391399385,32.818000795,-10.046700002,-8.4071760155,-9.0573425295,-10.6707177145
1970-01-01 00:00:44.100,24.62752867,-20.192431445,27.473940133499998,-4.28646807356,-0.9014577864500001,2.31961604955,-32.085998535,34.3246994,-5.172799826,13.257260323,-16.960146899999998,-4.19857579465
1970-01-01 00:00:44.200,0.7163512705000001,-3.3020952044,8.5713899135,-0.8012025355000002,1.0230928065,1.0905150772499999,-28.261300085,35.684999465000004,3.489199996,2.0107438565,3.9878644945,5.56531167
1970-01-01 00:00:44.300,4.4223848585,3.74611347915,3.1835009157500003,2.458431184,0.87290070955,-0.5177694112,-25.546799659999998,36.276699065,11.6631999015,2.402685046,11.597897528,3.1738966705000005
1970-01-01 00:00:44.400,13.1238846785,-18.690188171,6.651299,3.376916409,3.238559484,-2.975131512,-22.26499939,39.39989853,15.59769964,7.0346301780000005,0.5302448274999998,3.282926917
1970-01-01 00:00:44.500,1.51719912875,-26.188396455,0.9270691875000001,3.3104866745,0.42774575950000004,-2.667569995,-23.167799950000003,38.27140045,11.211799624,-1.989427805,-31.611940384999997,-3.8136747480000004
1970-01-01 00:00:44.600,-0.6830013395,1.7279170155,-1.54965177165,-1.3575316369000001,0.7634063661,0.4046099784,-27.17549992,35.7826004,2.5314998776000004,-5.5073025225,8.4801197055,-5.704673528500001
1970-01-01 00:00:44.700,3.106930554,-0.6780660154999998,9.622437597000001,-0.6135197280000002,0.461724177,1.23230803755,-30.054698945,35.02009964,-5.807199836,-3.3072844740000003,10.400056365,-3.0248842835
1970-01-01 00:00:44.800,-1.8465113045,-7.2116685517,-5.407779217,0.6072585580000001,-3.0933305025,-1.5982818605,-32.805799484999994,32.83019829,-10.089399815,-4.9070994855,4.932315469000001,-10.166957376500001
1970-01-01 00:00:44.900,12.5419797885,-28.49627495,-6.637091875,-2.8160059454999997,-0.33566057700000007,3.217943311,-32.781398775,33.415798185,-6.5818998815,3.657352209,-23.72430992,-6.06099826315
1970-01-01 00:00:45.000,5.3189456465,-6.4933727955,0.1381853820000003,-1.987620592,-2.3329784273500005,1.1368630827000001,-30.15839958,34.410100935,2.03129991895,12.892572162499999,-0.9749724865000001,34.8232388475
1970-01-01 00:00:45.100,4.9132127765,1.6980067491000002,0.9580263497,0.68590510618,0.35390964059499996,0.40606069554999996,-27.42560005,34.75779915,10.973899842,1.4887372255,10.9457082735,8.081029058
1970-01-01 00:00:45.200,8.7031446685,-5.544020655,2.0786151439,3.2017558815,1.43976703285,-1.1702306718000002,-24.1864996,36.728099825,17.244699474999997,3.46514678,8.7992436905,6.422769666000001
1970-01-01 00:00:45.300,6.5723362545,-42.690947535,-1.64775761985,3.1439543965000003,0.6447492840000002,-3.7246410845,-24.12549877,36.599998475,15.512299535,7.81201315105,-26.454078674999998,4.8090553284999995
1970-01-01 00:00:45.400,2.6077281088500004,-0.8277671036500001,-1.8716359735,-0.64543647315,0.58992576598,0.008322805200000005,-27.242599485,33.70859909,7.814100027,-2.602428794,3.6554853915,-5.4468699695
1970-01-01 00:00:45.500,-0.3454637825500001,2.523979187,-2.5313073395,-1.5877447724999998,0.7959339769499999,2.2519648075,-30.920899395,32.76309967,0.07319998750000001,-5.6841857435,10.1052567965,-5.4322552680000005
1970-01-01 00:00:45.600,1.4286648035000002,-5.714060545000001,12.8783205735,1.7665702404999999,-1.0312628744999999,-1.29934847335,-33.403600694999994,31.335700035,-6.404999733,-3.062658429,7.4800789355,-1.161681175
1970-01-01 00:00:45.700,1.9458136560000003,-29.965168,-5.08085975065,-0.36055257925000006,-2.80455255535,2.0722229481,-34.20879936,30.573199275,-5.9230997565,-5.5849478245,-13.756156446,-5.8987526895
1970-01-01 00:00:45.800,20.006838795,-17.9107265455,-4.110121727,-3.6815764307,-2.2539499995,2.074513659,-31.073400495,32.50079918,-0.3416000010000002,20.749611855,-8.303345201499999,13.758296489
1970-01-01 00:00:45.900,2.525026068,-0.7881358859999998,-0.7739285453,-0.5374692084999999,0.8937458992499999,0.95437246565,-26.785099029999998,32.81799889,7.6371996405,-0.07283973705000002,7.9682631505,11.969584943000001
1970-01-01 00:00:46.000,1.9492531419999999,2.526372015,1.1868401765000003,1.9237107635,0.5578562616,0.02252499760000004,-23.295900345,33.81229973,15.951499465000001,2.552553177,12.638628483,5.6153006555000005
1970-01-01 00:00:46.100,15.5717420585,-30.3732948285,2.5429722739,3.0918797255,2.000142932,-4.411080837,-19.83719921,36.014398575,18.116999625,10.185302258499998,-6.1863691815,5.6323884725
1970-01-01 00:00:46.200,3.8478083610000002,-16.3737858555,0.63020968445,0.9217684564499999,-0.15339899074999996,-1.7561858300000002,-22.20399952,34.15999794,13.40170002,0.9458792210000002,-23.111663105,-1.6594817634999997
1970-01-01 00:00:46.300,-2.7791138885,1.497009635,-1.846511364,-1.8309382795,1.1414444746,2.1224651335,-27.114500045,31.976200105,5.5326998235,-8.227041483,8.399258136499999,-4.8060226440000005
1970-01-01 00:00:46.400,2.8338498474000002,-0.4770690200000003,12.161371111000001,1.9004221409,0.9248227475999999,-0.19554746150000002,-30.646399494999997,31.195399285,-1.5006000251500002,-2.8169914485,11.659225465,2.3809835909999997
1970-01-01 00:00:46.500,-2.4091237487,-17.3650132097,-10.514361856499999,-0.090176329,-5.3720963,-0.18951541150000006,-33.59879875,28.950599670000003,-5.3557999135,-6.3473875525,1.1183576585000001,-11.591229436999999
1970-01-01 00:00:46.600,19.135253189,-30.65340328,-1.5903297659999998,-3.9348490235,-0.2471640706,4.4144405125,-32.2628994,29.981499675,-1.97639995805,4.370162846,-21.54558754,-3.88081491
1970-01-01 00:00:46.700,5.0460141919999995,-4.8916773795,1.0096216199999999,-1.2816338539999999,-0.10834902525000004,0.9921686424499999,-27.74889946,32.11039925,4.8982999325,10.4767081717,2.2589683530499998,8.2669456005
1970-01-01 00:00:46.800,4.233351946000001,0.63514485955,1.0694422725000001,0.88183435815,0.7984537033,0.1887517990749999,-23.4545002,32.17749977,12.85879993,0.20457434650000006,11.0564479845,8.877114056
1970-01-01 00:00:46.900,3.9125641585000004,-0.11545372050000013,3.9580277205,3.5651336909999998,1.322560698,-1.4905437005500002,-18.611100195,34.037998200000004,19.416298865,2.0135326985,12.319562914999999,5.3015868665
1970-01-01 00:00:47.000,12.266655682,-42.735214235,5.2365427015,2.9219878915,0.18898081750000006,-3.4620531199999998,-18.086499215,34.593099595,17.403299330000003,9.110172988999999,-35.5400157,3.5011898280000002
1970-01-01 00:00:47.100,0.7989036439999999,-1.7159529925,-1.9519450665,-0.8758022784500001,1.7428998949999999,0.5600706043,-22.057599064999998,33.11689949,10.412699697,-4.350805521,0.5918958189999999,-4.756308794000001
1970-01-01 00:00:47.200,-1.3425230308,3.697060466,-4.1149071455,-1.2556728723,0.33947836609999993,1.5421602429,-25.72369957,33.043699265,1.9336999690299999,-6.360683679500001,11.81043863,-6.1106903555
1970-01-01 00:00:47.300,0.426670196465,-0.023330032499999986,-2.0895322857500003,1.83903208395,-2.7975277899999997,-1.675783098,-28.72489929,32.80579948,-4.324899912,0.01401805899999986,6.19170952067,-1.3436404465000003
1970-01-01 00:00:47.400,2.8986054807999997,-20.7526509765,-4.154388666,-1.1884797485835001,-2.446214199,2.04946900158,-31.00019932,31.671198845,-4.556699872,-5.5287895205,-13.837971685000001,-10.772237779
1970-01-01 00:00:47.500,19.301703449999998,-17.05738592,12.2271742825,-3.50496514165,-0.46997062884999996,2.4749241171,-29.731399535,32.97659874,1.0064999463,13.964228631,-14.898225305,0.5488634110000001
1970-01-01 00:00:47.600,0.956979513,-3.5126637819999997,9.637990476999999,-1.617370844,1.6735687259999998,1.840177417,-26.52279949,33.421899795,8.997499942000001,3.5526279809999997,3.601313114255,5.5556125645000005
1970-01-01 00:00:47.700,3.4576288465,2.3146072926,1.0993524642499999,1.388761282,0.76287186165,-0.027717202900000015,-23.594799045000002,33.54999924,16.04909992,2.6726526616500004,10.8705859205,2.53165781475
1970-01-01 00:00:47.800,9.3662557625,-9.985099313,4.873731136,3.229243994,0.76546799141,-1.22444331665,-19.892100335000002,35.22749901,19.09299946,4.523066819,6.5804548265000005,2.5563195648
1970-01-01 00:00:47.900,5.623133421,-33.996775150000005,3.5270206930000003,2.1486552955000002,-0.047111600649999974,-3.6718793510000003,-21.075499535,34.55649948,15.207300189999998,3.350433946,-38.282738685,-6.642383692499999
1970-01-01 00:00:48.000,-0.8697910305,1.64057904475,-1.5761223434500002,-1.1049463151499999,1.42220515,0.3652103096,-25.241799354999998,33.35479927,7.826300144499999,-5.291564703000001,8.323160887,-4.6237677335
1970-01-01 00:00:48.100,-0.4758726172,3.074627638,-1.77353027485,-0.60298261795,0.55304582619,1.3248513339499999,-28.682199474999997,32.77529907,0.95769995475,-5.234117508000001,11.37767744,-5.440726757
1970-01-01 00:00:48.200,-1.04327067745,-4.453641117,-6.6346988675,1.19978043425,-1.95547482395,-1.605382979,-31.957899095000002,31.238099095,-3.5501999855,-2.5513762235,3.1724588870000003,1.7674388884999996
1970-01-01 00:00:48.300,10.8373926875,-30.72174835,-4.1807098385,-1.9703642725,-1.8207830189999998,3.2768900995,-32.189699175,31.201499935,-1.68359997865,1.3173322655000002,-23.838905335,-5.964463832
1970-01-01 00:00:48.400,10.134800317500002,-7.235446931,4.83170726975,-2.6929200885,-0.39063683159999996,2.1164330244,-28.53579998,32.720399855,4.6969999075,19.648880362,-7.745284796499999,39.0351653092
1970-01-01 00:00:48.500,3.2685958145000003,2.5683960393,3.02901448315,0.08948913214999998,1.2728529871999998,0.7256865651,-24.796499255,33.013200760000004,12.169499875,-0.6906638145000001,10.710734368,7.1126828215
1970-01-01 00:00:48.600,3.408575773,0.3704388144999997,4.890480876,3.0001763105,0.17905467749999993,-0.5289937257999999,-21.069399830000002,34.367399215,18.58059883,1.36972445245,11.270896433,5.2852146625
1970-01-01 00:00:48.700,14.800804136499998,-38.63182259,7.7956666944999995,2.7656873465,1.0140827894000002,-4.5343955755,-19.733499525,35.16039848,17.76319981,11.76323605,-29.69320488,-2.9766927065999997
1970-01-01 00:00:48.800,2.635245442,-4.585246446,-1.888385713,0.2106659409999999,1.1141853780000002,-0.4247678965999999,-23.509399415,33.22669983,10.8518996245,-2.8858183625000002,-2.7474677544999997,-3.432783246
1970-01-01 00:00:48.900,-2.2200907765499998,2.1121145635,-3.328565836,-1.6721943615,1.14297154545,1.6434845329999999,-27.706199650000002,32.14089966,2.1776999385,-6.823772907,9.571308612,-6.5547561645000005
1970-01-01 00:00:49.000,0.2376372215,0.24840491984999996,10.087991240000001,1.6194324495,-1.67402687675,-1.27407471825,-31.311299325,30.841599465,-4.7762999535,-1.5877702234500002,6.763413192,-1.3155510425
1970-01-01 00:00:49.100,-0.1969592570000005,-26.913870815000003,-5.31430965595,-0.4159106014,-3.0088807939999995,1.74343442915,-33.617097855,29.231199265,-5.6791000365,-7.315871477,-12.047121288,-7.3643093109999995
1970-01-01 00:00:49.200,20.129021645,-17.9119229305,-3.61570452135,-3.6198045017500005,-1.5484977662500001,2.7475909886500003,-31.225899695,31.402799605,-0.02439999600000009,21.2563900955,-10.079455853,19.740015211
1970-01-01 00:00:49.300,2.4675984385,-1.1533405785000002,8.1788175105,-1.182829409765,1.09708170595,0.9836168289999999,-27.4194994,32.769199375,9.00970006,-0.3850581649999999,6.61769295,10.3530244825
1970-01-01 00:00:49.400,2.4125634435,2.4868903978,1.6655541955,1.9774653315,0.84923037885,-0.14316733185000002,-24.119400025,33.129098889999995,17.293499945,1.987531662,11.843412399,4.1985304355
1970-01-01 00:00:49.500,12.682109116,-29.2075405115,4.8438208105000005,3.3274377585,1.62073051945,-3.8286379575,-20.746099475,35.038398744999995,20.050700185,6.7496444006275,-4.138852118499999,7.852480889
1970-01-01 00:00:49.600,4.1817566159999995,-17.530117751,0.8720343114999999,1.41281335075,-0.23334360099999996,-1.2141353191500002,-22.948200225,34.17829895,15.512300015000001,1.2871869799999995,-24.470092773,-0.6408431529999996
1970-01-01 00:00:49.700,-1.67886421065,2.1768704650000004,-3.591776371,-1.6757067445,1.1162470280999999,1.790622413,-27.492699625,33.263298035000005,7.344399929,-6.6685967445,9.3690023425,-5.6949601175
1970-01-01 00:00:49.800,3.7939697951049998,-0.43145585050000035,15.686597825000002,1.7086161673,0.3861318156,-0.0509293675000001,-30.39019966,33.281599045,-0.23790001849999998,-4.015258074,12.25241947,1.856028555
1970-01-01 00:00:49.900,-4.3410291003,-19.057636142,-11.95558882,-0.26449686285,-4.754147768,0.21707987750000002,-32.91559982,31.872498514999997,-4.5749998094999995,-6.6804242135,-1.4703350065,-13.6494226475
1970-01-01 00:00:50.000,17.9826602915,-24.67418861,-0.9080761669999999,-4.3157123330000005,-0.7599704265,3.4504470229999997,-31.341798785,33.20839882,-1.64699996256,6.8412871376,-19.380612375,-2.3021621705
1970-01-01 00:00:50.100,5.83848732925,-6.0960149765,1.519591987,-1.09807428725,0.38773529975,1.1879451872,-26.47399902,34.96520042,6.161000013500001,11.8296585695,-0.477640152,16.801966667
1970-01-01 00:00:50.200,3.8155052664999998,2.17447765165,0.8216354847,1.806199014,0.4629458785,-0.12713258714999998,-22.752999305,35.276298525,14.072700025,1.8801786600000001,11.2443218225,6.7475155585
1970-01-01 00:00:50.300,7.618597922,-6.1450676935,1.47891394058,3.4063134195,2.32893157,-3.3181985914,-18.89779949,37.368598934999994,19.294299125000002,2.4455317855,8.947160243999999,4.663348675
1970-01-01 00:00:50.400,8.845667123,-42.288802145,-1.12223386775,2.226691008,-0.40407548855000003,-2.2655561564999998,-19.440699575,36.886699675,16.18939924,9.3169491277,-28.755346295000002,5.7882893085
1970-01-01 00:00:50.500,1.4753246305,0.73325058805,-1.5785152016000001,-1.8319309355,2.2816672330000003,0.9585720450999999,-24.33289909,34.715099335,7.637200116000001,-2.743366599,5.5685610767,-5.8708620069999995
1970-01-01 00:00:50.600,-1.00019985445,3.172733307,-4.209423661500001,0.2642678020000002,1.0760838238,0.10117158279999999,-28.64560032,33.781799315,-1.03700000035,-5.60839653,10.826280116,-7.91286993
1970-01-01 00:00:50.700,-0.38838505749999985,-7.0595743655,8.528318882,0.2916795314000001,-3.49229002,-1.3509650825,-32.397098545,31.34789848,-7.740899563,-2.86600184415,4.797799587,2.937415119999999
1970-01-01 00:00:50.800,7.351648330650001,-33.0930357,-6.3737316572000005,-0.1944021434,-4.269822121,4.159106255,-34.153900145,30.310899730000003,-6.8930001255,-2.1867442135,-16.981219295000002,-8.4833898545
1970-01-01 00:00:50.900,20.344376803000003,-17.38176298,10.7632154245,-4.16628380105,-0.621537089,2.7792024015,-31.77489853,31.945698739999997,0.5855999590000001,16.036379335,-9.780817986499999,-9.4569990645
1970-01-01 00:00:51.000,-0.2353940010000004,1.0911270975000003,4.85563524065,-0.9210813416000001,0.5083012581,0.98903805,-28.39549923,32.48250008,9.705099821,-0.014027833999999961,9.976924895,6.6546900275
1970-01-01 00:00:51.100,3.3355947735000004,2.46999114775,2.5347470045,1.816965103,0.6678851244999999,-0.13919682055,-25.040499685,34.123399735,18.4708004,1.2307333944,10.520044325,3.790433884
1970-01-01 00:00:51.200,12.4905340685,-39.676888469999994,-1.7531911135,3.0697365999999997,3.08355701,-3.9121712445,-22.82619953,35.727699279999996,19.971399305,11.355471133,-17.204589368,1.8687043486
1970-01-01 00:00:51.300,3.1667511462,-9.4224870185,-0.88758767015,2.5078333318999997,-1.55819496495,-0.5065450968,-25.88229942,34.269798275,13.75549984,-2.37505126,-10.8984348785,-2.9305229187
1970-01-01 00:00:51.400,-0.7093223503,1.8895820975,-2.440230489,-1.00568366045,1.88278389,1.3536375165,-29.4751997,33.58659935,4.8190000054999995,-4.623773813500001,9.913526057999999,-5.161433101
1970-01-01 00:00:51.500,5.659025431000001,0.7775176765,3.7891843315000004,0.2813715039,-1.0326372384999998,0.1457634565,-31.738300325,33.33649826,-3.476999998,-1.553319991,11.4867248555,-6.624243498
1970-01-01 00:00:51.600,-2.623430908,-21.868306041500002,-9.599854943499999,0.73248222465,-3.1303631065,-1.5769785492,-34.06849861,31.86029911,-4.9836997985,-9.4767980565,-7.862287762,5.22820091
1970-01-01 00:00:51.700,20.532362465,-22.39741802,1.43449714785,-4.7165044545,-0.14675605295,4.781636,-32.65939903,33.19619942,-0.6160999535,9.448451996,-17.32445955,-1.1752656695
1970-01-01 00:00:51.800,4.8139105149,-5.0196932555,0.7713861952900001,-1.38013300305,0.07437068200000008,0.9692618994,-28.859099385,34.257598875,7.1125996115,7.624007699500001,1.42914867395,8.481186390000001
1970-01-01 00:00:51.900,3.8599220515,1.2958630619,-0.0880857705,1.40891921515,1.11151295915,0.21242213249999997,-25.967700004999998,34.123397825,15.71969986,1.578219354,10.460041520499999,8.3655266755
1970-01-01 00:00:52.000,8.268548368000001,-6.870541455000001,1.8930218220000001,3.4745755195,1.1377793548000001,-1.77138067795,-22.00269985,36.288900375,19.367499350000003,4.4691161515,7.185455323549999,2.959859133
1970-01-01 00:00:52.100,5.9786170720000005,-42.705305100000004,-3.7402808366499998,2.6231307985,0.23235101995000002,-3.408909559,-22.368699075,35.867998119999996,15.835599899999998,7.89926409855,-31.043053625,1.65320312995
1970-01-01 00:00:52.200,-0.32033908349999995,1.6908283229999999,-2.1589242815,-1.06180521845,1.13861927365,0.6440620590399999,-26.63259888,33.59879875,7.2833998205,-4.77977705,7.280795812499999,-6.0340909955
1970-01-01 00:00:52.300,-1.7388342916,3.2961131335,0.04486548899999998,-0.7428666354,-0.36528666315,1.4455700219,-30.316998485,32.77529907,-0.7807999254500001,-6.757522583,10.903788088999999,-5.446807027
1970-01-01 00:00:52.400,2.407777727,-5.2040901185,-8.505736829,1.19008320575,-2.3491658867,-1.5365862845,-33.403600695,30.97579956,-5.770599842,-0.1428810355000001,5.05730319,2.450733185
1970-01-01 00:00:52.500,9.21894741,-30.636654855000003,-4.172484398,-4.1701014638,-0.35910177249999986,4.049535393499999,-33.507299419999995,30.908699034999998,-3.184199989,0.9038686750000005,-28.369793895,-5.3656144145
1970-01-01 00:00:52.600,9.971938608,-8.294868946000001,5.6195440295,-1.547886968,-0.9237537382750001,1.3479871752500001,-30.188899995,32.5557003,4.3675999645,14.692125321,-5.462474348500001,26.767021299
1970-01-01 00:00:52.700,4.154239237500001,1.4394325019999998,6.2898331889,0.6441384403500001,0.7766159474500001,0.3694862125,-26.400798795,32.573999405,12.65749979,0.7775275705000002,8.612532137,9.434455869499999
1970-01-01 00:00:52.800,3.0471101994999996,0.90448699885,2.3958135845,3.2699418070000004,1.59576213345,-0.5379273742499999,-23.14949894,33.775699615,19.471199985,-0.23047602200000006,10.0739831915,3.7476330995000002
1970-01-01 00:00:52.900,12.872488975,-42.313928605,8.363064708,3.4861052635000003,1.1532797215000001,-3.7462497944999997,-21.917300224999998,34.70899963,18.031599999999997,8.3579912195,-32.2252626435,-1.94965839375
1970-01-01 00:00:53.000,3.9520457985,-4.9325047745,-3.509223938,-0.23067122684999997,1.17595728125,0.58732961505,-24.625699994999998,33.4279995,9.6745998865,-2.7109916210000002,-5.068552731,-6.795463085
1970-01-01 00:00:53.100,-1.7388343215,1.4095220565,-4.077818513,-1.505967557,0.65368291735,0.55029702185,-27.95019913,33.09859848,-0.9394000175000001,-5.1269977094999994,10.047858713,-9.2375993725
1970-01-01 00:00:53.200,-0.4938187597999999,-2.4246772530000005,-0.8386843202499998,1.7518334985,-0.8869502545,-0.8749623299,-30.88429928,31.915200235,-9.418399812,-3.05503916745,5.0211851582,5.8053240765
1970-01-01 00:00:53.300,-0.69376898555,-20.672492506500003,-9.626175464000001,-0.13637165725,-4.876470089,1.28155756,-32.73259926,29.908299444999997,-12.767299654999999,-6.458747625,-0.7000699060000004,-10.2069511405
1970-01-01 00:00:53.400,19.531713965,-26.79064083,-4.0622649175,-4.089622497500001,-0.6617003679999998,3.4980932475,-31.26249981,31.390599254999998,-8.320399759499999,14.1964936245,-21.103499409999998,-2.0255817173999997
1970-01-01 00:00:53.500,3.0554849504999995,-5.339434027999999,3.8431720730000007,-0.66651071585,0.18165072805000004,0.64528376595,-27.56589985,32.73259926,0.9394000170000001,7.2786145794,3.2639689444999997,10.9714694045
1970-01-01 00:00:53.600,3.5916267635,3.63723995703,0.597906576715,1.846973002,1.2323843239999999,1.1177741584999998,-23.704599385,34.19050026,10.193099739,2.8024734259999997,11.1898360255,3.7358081342
1970-01-01 00:00:53.700,7.777869938,-5.450700523,3.8718861340000004,2.6740602855,1.2955306770800001,-4.202247441,-18.635499000000003,37.856599810000006,16.22599983,5.416904211,9.78608012,2.1006814835
1970-01-01 00:00:53.800,6.467051983499999,-44.059192655000004,-3.146412313,1.78382673885,-0.195471108,-1.76023271685,-18.110899930000002,38.430000305,14.15199995,7.5810084359,-27.81103134,4.947574138499999
1970-01-01 00:00:53.900,0.2675473690000001,-0.47706902401,-1.8764216330099999,-1.298813939,1.391510114,0.69598412156,-22.008799555000003,37.081899645,6.3439998625000005,-3.7288285495,5.5006256105,-4.9259824755
1970-01-01 00:00:54.000,-0.5884848534,3.0112177129999997,-2.5550860165,-1.823226333,0.7847860456,1.542389274,-25.992099765,36.172998425,-1.3541999907000002,-5.4241412874999995,11.1318883905,-6.498086452500001
1970-01-01 00:00:54.100,0.22552347150000007,-4.4596230985,0.286690052615,1.3402752580000001,-1.49978274105,-1.3814311025000001,-30.274299624999998,33.970899585,-6.2525000575,-2.37847352,7.2345991135,5.8192224515
1970-01-01 00:00:54.200,5.49018183395,-33.404253005,-4.548307181,-0.5848862751499999,-3.9110258815,1.5430002209999998,-31.64069939,32.872900009999995,-5.2581999305,-2.2281599045,-21.88707638,-4.794195533
1970-01-01 00:00:54.300,20.111076353999998,-15.2461683765,5.247160794,-3.255968602295,0.38277214765,3.1303631065,-28.511400225000003,34.471099855,1.4517999887,17.593993185,-7.757261754,-2.748746872
1970-01-01 00:00:54.400,1.075573802,0.18140587204999997,4.4271706939,-0.863127148755,0.65360657134,0.9717052879000001,-24.75379944,35.148199085,9.912499905,0.1539996859999999,8.7226340775,9.51911402
1970-01-01 00:00:54.500,1.8595222235,1.8272191884500002,1.9277176855,2.3398504255000003,0.5290700793,-0.19623468442999994,-21.288999555,36.490198135,17.04949951,0.4414668675000001,11.159578801999999,4.439749718
1970-01-01 00:00:54.600,14.016855715,-38.964574335,-2.6161028294,2.9317613839999996,2.4544606805,-3.8200861214999997,-18.55009937,38.368999485,17.354499815,11.956835268,-15.8991980555,4.456299104
1970-01-01 00:00:54.700,3.418147206,-12.260673522000001,-1.68499577,1.7989452184,-0.7621846644499999,-1.3599750401,-21.63669968,36.65489959999999,10.668899535000001,-0.21275782599999982,-14.14573907895,-3.7475237844000002
1970-01-01 00:00:54.800,-2.036740661,1.3413266535,-1.950748682,-1.5713282229999999,0.725075691735,1.18977776155,-26.504499435,35.09329796,1.97639994305,-6.6484367849999995,8.694859981499999,-4.8657307625
1970-01-01 00:00:54.900,2.5513471214999996,-0.2029411794999998,3.5569307209999996,0.6829271915,1.1704597026,0.14003670200000007,-29.926599500000002,34.153900145,-5.563199878000001,-1.3786507845000002,10.720488069,11.1443400395
1970-01-01 00:00:55.000,-3.4456645255,-25.0477685925,-8.151449740499999,0.5578562767999999,-3.9633297919999997,-1.004843712,-32.72039986,31.720000265,-8.2228000165,-7.926463603999999,-2.434187411,-7.9938509465
1970-01-01 00:00:55.100,25.653302195,-25.95494747,5.490181923,-4.2821156975,-1.09349296965,5.591772079,-31.207599639999998,32.628900525,-3.7270998955,11.4732606415,-21.82773781,-10.9745035195
1970-01-01 00:00:55.200,3.2804104090000004,-3.3834512235,1.04431754375,-0.9969791091755,0.8707627356000001,0.9466605635,-26.229999545,34.55039978,3.3976998925,8.202688754,4.9751598835,4.7980396745
1970-01-01 00:00:55.300,4.2871904375000005,0.52971109755,-0.8853443861,1.5326920745000001,0.8231166601500001,0.07605049010000003,-22.088100435,35.300699234999996,10.644499778,0.8982748984999999,10.343794822,6.999973775000001
1970-01-01 00:00:55.400,9.216704131,-4.077668903,2.5752754214999998,2.8433413505000003,0.6034407317499999,-2.1582760513,-17.87299919,37.941999435,14.969399455000001,3.7386097910000005,8.926923989,2.2936193344999998
1970-01-01 00:00:55.500,11.372487547,-42.25754738,-0.969093144,2.0493925215,1.4041087329500002,-3.6413369775,-18.354899405,37.588199615,11.547299863500001,11.6305487145,-30.60697174,3.9608358145
1970-01-01 00:00:55.600,0.7894818779999999,-0.88758765895,-2.51081866,-1.2572763561999998,2.756829977,0.4979168697,-23.14339924,34.89809799,2.8181998878,-3.778146982,3.9247581959549995,-6.1721014975
1970-01-01 00:00:55.700,-2.149352908,3.5379377605,-3.004188776,-1.2840009333,0.15141376104999996,1.3746354284,-27.004699709999997,33.421899795,-6.5208997725,-6.7824893,11.507349491500001,-8.1559610345
1970-01-01 00:00:55.800,1.544866204,-2.5957640112999996,6.811767577000001,1.80276303015,-1.5009280440000001,-1.8452932235000001,-30.048599245,30.76229954,-13.67619991,-2.63882470125,7.8166685105000004,4.6360569
1970-01-01 00:00:55.900,4.927569391,-33.154052735,-10.9860467925,-1.2152806520000001,-3.3595836165,2.7674434186499997,-31.256399155,28.999399185,-15.164599894999998,-3.72958326365,-11.84757328,-8.604391575
1970-01-01 00:00:56.000,21.013469215,-21.887447835,-7.11939499175,-3.2268006799999998,0.23410719599999996,2.84975522775,-28.456499100000002,31.62239933,-8.991400005,22.64005947,-11.628299712,11.520145656999999
1970-01-01 00:00:56.100,1.82243356115,0.4087239505,0.8108677865,-0.09261971700000005,0.5414397419,1.6018705366000001,-25.052699089999997,33.379199979999996,-0.8479000329999999,-1.9991001488,8.547163725999999,8.5254766915
1970-01-01 00:00:56.200,3.2925239805,3.6240794660000004,2.71540503629,1.7253380416000001,1.21764770145,0.021379657100000005,-21.343899725,34.800498965,6.9661998745,3.7736263274999997,13.263681415,5.271627426
1970-01-01 00:00:56.300,14.033456323500001,-26.689993142499997,4.3960638045,3.3446177245,1.4748907387499999,-4.6298404935,-17.08610058,37.094099045,9.454999924,10.298288343,-3.679909704000001,6.3897452349999995
1970-01-01 00:00:56.400,4.6175494194999995,-20.138444659999998,0.9185448587,0.8916079404000001,0.9702545700500002,-1.08929336095,-18.09869957,35.270198825,2.9218998848,0.9492714404000001,-28.079627993,-0.16605758650000002
1970-01-01 00:00:56.500,-2.1756739316500004,1.02293166535,-5.069045186,-1.5640743970000002,2.0148797035,0.90099972505,-20.71560001,32.53129864,-7.149199962499999,-4.9496740105,9.145653725999999,-6.808194876
1970-01-01 00:00:56.600,2.310868502,0.9571291209999999,15.2976150525,1.64432442205,-0.12507092949999998,-1.2013074548600002,-24.088899615000003,30.280399324999998,-15.8355999,-5.4943544865,12.950158120000001,-7.5221326345
1970-01-01 00:00:56.700,-5.0510990614999995,-14.841632099749999,-11.649158002,0.24739315175500004,-6.114275694,0.08674037449999994,-28.27959919,26.724099154999998,-20.49600029,-7.4483058455,2.0849874017500003,-15.537158009999999
1970-01-01 00:00:56.800,25.112225535,-34.72090435,8.084151268000001,-4.830579996,1.4977974889999999,4.005478144,-29.52399921,26.57159901,-17.177599905,10.5405943385,-28.787455559999998,-7.583013534
1970-01-01 00:00:56.900,1.3591232299999998,-2.7765717505000005,6.6094248295,-1.21482248605,0.09223793444999999,1.418463707,-28.688300135,29.255599975000003,-8.838900089500001,5.3085699105,4.0763134955,2.4079755545
1970-01-01 00:00:57.000,4.5553361175,-0.8600701987999999,-1.5951154051605,1.7971126434999998,0.06933116900000003,0.05161659419999995,-27.663499835,31.89689827,-0.37819993500000004,3.8091067075,10.29136276,6.710638286
1970-01-01 00:00:57.100,6.599853337,-1.8812074660000002,2.10373970845,3.39615798,1.7305302619999998,0.1163664013,-24.69889927,36.75859833,5.239899874,2.57306861885,11.9032635675,3.2705659865000003
1970-01-01 00:00:57.200,13.7557394485,-43.459491729999996,5.7020965815,2.218062699,2.73789376,-4.0234981775,-22.966499325,38.533699035,2.2386999132,12.838942287,-30.61062622,-0.5178608889999996
1970-01-01 00:00:57.300,-1.2013464866499999,-3.1752756684,-2.6605195999999998,0.05971032399999987,0.4137726875,-0.6594096178250001,-24.72329998,36.038799284999996,-5.8193997145,-5.652860403,0.6009962560000002,-5.914066315
