,acc_Acceleration x (m/s^2),acc_Acceleration y (m/s^2),acc_Acceleration z (m/s^2),gyr_Gyroscope x (rad/s),gyr_Gyroscope y (rad/s),gyr_Gyroscope z (rad/s),mag_Magnetic field x (µT),mag_Magnetic field y (µT),mag_Magnetic field z (µT),lin_acc_Linear Acceleration x (m/s^2),lin_acc_Linear Acceleration y (m/s^2),lin_acc_Linear Acceleration z (m/s^2)
1970-01-01 00:00:00.000,2.160120726,5.149055004,11.58066368,-0.3014531136,0.6363501549,-0.1366770715,,,,,,
1970-01-01 00:00:00.100,1.24187493335,3.2482568025000003,9.476325033,-0.13713521135,-0.22715882585,-0.4637094438,3.635599971,-37.484500885,-39.021699905,-0.35850971935,-1.09223890315,-1.025526047
1970-01-01 00:00:00.200,1.6848462225,2.5419253705,9.2860960935,-0.89321139465,-1.09494370205,-0.7972320318,3.7941999435000007,-37.26490021,-39.259597775,-0.28890848160000004,-1.58018839375,-0.5535540579999999
1970-01-01 00:00:00.300,0.7486543732,2.0175981524999997,7.954938888999999,0.2766374499,-0.11384666335,-0.0417666798475,3.6355998515,-36.349899295,-39.967199325,-1.2499509455,-0.9323564766,-1.2503318787
1970-01-01 00:00:00.400,2.467598319,3.9173498155,7.449754238500001,0.411405623,0.00908635184,0.09544488414999999,3.4952999350000002,-36.063199995,-40.247798919999994,0.43847447635,0.8678615093000001,-1.63485384
1970-01-01 00:00:00.500,1.6188941,4.189084768,8.920891285,0.41827766599999994,-0.464014843085,0.053296424424999995,3.2512999775000004,-36.075399399999995,-40.162399289999996,-0.23495674135000008,0.96493816365,0.33506536485000005
1970-01-01 00:00:00.600,4.7001018525,4.9636116025,9.829416753,-0.11629004034999998,-2.1308642625,-0.08162446692,2.4277999405,-36.410900115000004,-39.595098495,1.0975971222499998,1.4634411335,1.0375623701999999
1970-01-01 00:00:00.700,7.1445195675,3.1511979105,9.2454180725,0.23387814315,-0.5815265962099999,-0.8215895742,0.3903999777,-37.301500325,-37.807798385,2.1989259719999996,-0.4123653171500001,1.3665499688749998
1970-01-01 00:00:00.800,3.6013476845000003,2.448605299,5.8553864955,-0.30740889905,-0.7742488981,-1.1043354867000001,-1.6958000064999998,-38.448299405,-35.47759819,-0.24011993410000002,-1.9083702565,-1.869669914
1970-01-01 00:00:00.900,4.214059710500001,-1.0372886229,2.812314391,-2.375432253,-2.9002263545,-0.3944546133,-3.141499877,-39.33889961,-33.757400515,-1.283264518,-4.0893945695,-3.200992942
1970-01-01 00:00:01.000,8.8120179175,-2.45802709455,3.8694933650000003,-4.657786846,-4.5050749775,0.68506518005,-5.7035000325,-38.228700634999996,-33.1534996,1.22979974752,-4.537285447,-1.65213179605
1970-01-01 00:00:01.100,13.25309706,1.482652724,7.5791163445,-2.3940631745,-2.637027621,1.74129652995,-10.5773997305,-32.99489975,-32.708198545,3.5940999985,2.652150631,5.302203416499999
1970-01-01 00:00:01.200,14.724234105,-0.9880862236,3.2792138757,-0.598477602,-0.460273396345,1.7617598179999998,-18.22069931,-23.277599335,-30.792798995,5.586885452500001,2.5444486139999998,3.7032094005
1970-01-01 00:00:01.300,9.090931656,-3.219542861,0.9809077344,-0.39109496211499994,1.1373212339,0.9445989129999999,-27.193799975,-10.479799747000001,-27.840399745,1.2834398745000002,1.3214945795,0.32946366084999995
1970-01-01 00:00:01.400,9.919296741,-3.294916749,1.8559331295,0.52975730595,0.6239804625500001,0.25731941310999995,-33.989198685000005,2.0190998913500002,-25.034399985,1.6796021460000001,1.564114332,1.21393191815
1970-01-01 00:00:01.500,5.8289158345,-3.2207392455,1.9864914865999999,-0.40392275154999996,0.80990710855,0.49616067109999995,-36.349899295,10.687199593999999,-23.771699905,-3.3724536895,1.4330424072499999,-1.1214934586999998
1970-01-01 00:00:01.600,6.431159496499999,-4.1196928024999995,4.3697428705,0.4158342629499999,0.7066739352,0.8445726633499999,-35.178699495000004,15.756299495,-25.22959995,-2.16116523745,1.7419719695000002,1.9087398050000002
1970-01-01 00:00:01.700,11.450254441,-6.589235305999999,6.116204262,0.7936432957,-0.007101096200000004,-0.016874641150000036,-32.34829998,18.48910046,-28.49919891,3.48426508905,-0.67075133335,3.84484303
1970-01-01 00:00:01.800,10.2245311735,-7.711917638499999,1.0766206383499999,-0.79501771925,-0.39277477555,0.48417279125,-29.71309948,19.275999069999997,-31.610199925,-1.7933351994,-1.7823939321499997,-3.12903785725
1970-01-01 00:00:01.900,7.5897343159999995,-6.5400328635,0.32856446505,-0.85029940305,-0.9491803052000001,1.1405282022499998,-27.864799495,20.495999339999997,-33.318199155,-0.6615879534000001,0.2872333524999999,-4.7571473125
1970-01-01 00:00:02.000,4.7289652825,-5.078467131,0.9545867144,-0.18462857975,-0.9542197585500001,2.06687808,-27.07789898,22.7347002,-33.043699265,-1.466255665,2.6952011584999997,-0.021103203000000126
1970-01-01 00:00:02.100,3.6167513135,-6.422784567000001,-0.4052843450000002,-1.128845692,-0.8562551737,1.960208893,-26.785099985000002,26.22999954,-30.817199705,-0.40081191064999994,3.257561207,0.06706643105000001
1970-01-01 00:00:02.200,4.8988559245,-9.7063357805,-0.18140585720000008,-1.3540192845,-0.45301960404999997,1.7306830290000002,-25.91279888,32.14089966,-26.492299080000002,1.07698070985,-0.48567676549999994,1.09805729965
1970-01-01 00:00:02.300,7.327720165500001,-13.985749245000001,0.7869395239,0.2968717516999999,-1.6367652415,0.48127128195000013,-23.924199105,38.667900085,-21.045000075,4.679835081,-5.4466991425,4.107950687500001
1970-01-01 00:00:02.400,1.05284196135,-7.981259823,0.6601200105,2.5286022425,-0.9557469191499999,-0.4143071622,-21.624500275000003,43.608900070000004,-17.025099755,-0.31897783299999993,1.131772041159,1.0101418495000003
1970-01-01 00:00:02.500,-1.1834003923,-24.143879892999998,4.303940176999999,2.1023834944999997,3.924922705,1.9050799386,-19.495599745,45.560899735,-16.59200001,-0.7892427443,-3.01472902295,2.8256018162500003
1970-01-01 00:00:02.600,0.06520438150000007,-1.5448661445,-0.14431712030000005,1.18153133235,1.417929245155,0.746913552,-13.663999555,44.517797470000005,-20.984000205,1.85448682315,8.690057040500001,-6.2470276355
1970-01-01 00:00:02.700,-0.3285644353500001,-3.9976587295,1.8716359360250001,-0.7279008775850001,1.20481985805,-0.56213217975,-6.8503000735,41.11399841,-28.242999075,1.832169354,4.7990508080000005,-2.6855254175
1970-01-01 00:00:02.800,-3.7556845544999997,-11.9949207315,12.1396862275,0.22189027084999996,0.96078640215,-0.39361470935,0.37209999549999995,38.34460068,-34.879798890000004,-1.4597060085,-3.3548712734999997,6.83176684435
1970-01-01 00:00:02.900,-3.4876885415,-11.786745071999999,-1.3019945625,-0.41430714705000005,-0.27992077169999996,0.42415706805,7.7835998535,36.776899334999996,-38.917999265,-2.958155274,-3.331864833815,-5.040930152
1970-01-01 00:00:03.000,1.4525928796,-10.165906908,-1.0829017159999998,-1.7752748729999999,-1.433505833,-0.44171890589999996,10.601799965000001,36.709800725,-39.07049942,3.5612113474999996,-0.9151802064000001,-5.22980248885
1970-01-01 00:00:03.100,-0.99047902245,-7.3552377225,0.83973115705,-1.582323432,-0.621460750585,-0.56549185515,9.979599476,39.137598034999996,-36.416999815,-0.5305281281299999,1.4273951051500002,0.1583871845000001
1970-01-01 00:00:03.200,-0.13833505473000002,-8.078318834000001,-0.50219365935,-1.2806412575000001,-2.0302272435,0.062688201645,7.6493995185,42.114398955,-32.433698655,0.5261924565,1.698191166,0.7332760096
1970-01-01 00:00:03.300,0.86365938205,-9.8738331805,1.6727325617499997,-1.7681737544999998,-0.8492304087,0.20264858005,3.8795998094999997,45.87199974,-26.43129921,1.1012369692250001,-0.29540872549999997,2.821269869695
1970-01-01 00:00:03.400,4.7947678565,-14.21680641,5.1047879455,1.07333503645,-0.86129464205,-1.1340379715,-0.40869998915,49.68449974,-18.775799749999997,5.1986336705,-5.518946171,6.4924092295
1970-01-01 00:00:03.500,-0.6590730845499999,-16.50419474,-2.7993034719999996,3.6423294540000004,-0.15233002976000004,-0.97078901515,-4.324900031,51.508398055,-13.926299570000001,-1.68009105315,-6.688955783999999,-1.7259646357499996
1970-01-01 00:00:03.600,0.16809570800000007,-8.7079300895,-1.3114163422225,1.7558040019999999,1.0078215898,-0.69376978275,-7.5151998995,50.404298784999995,-14.694900035,0.16171884550000004,-1.1382274625,-4.300871611
1970-01-01 00:00:03.700,0.7368398010999999,-3.2733813525,-1.6585251988,0.5362475157850001,1.5785819884999999,-0.93619978425,-9.2842001915,46.83580017,-19.86159992,-0.26613825559500004,5.284851551,-5.5137195585
1970-01-01 00:00:03.800,0.1824527086,-6.324529289999999,5.15025140965,-1.5113888385,1.9207328554999998,-0.06589514575,-9.8209996225,42.004598615,-28.35889912,-1.5404753685500001,4.193070888499999,-2.7979574205
1970-01-01 00:00:03.900,1.3351951245000002,-14.7519016275,7.2320070265,0.2485384840945,1.300951958,-1.1194539963499999,-8.094700098,38.503198624999996,-35.190898895000004,1.627159715,-4.2474627505,6.824529527
1970-01-01 00:00:04.000,0.7857429985,-11.2588286415,0.9017950592000001,0.06696413454999994,0.1458397843,-1.219632924,-5.276499748500001,36.758600235,-38.405599595,-1.2143082025,-3.0435767175000006,-2.3544186355
1970-01-01 00:00:04.100,1.532752454,-9.2478113175,-2.3995523455,-1.680517137,-1.075320214,0.393309273745,-11.97429943,29.969299315,-39.77809906,-0.773568869,0.18173980715,-5.8819174766
1970-01-01 00:00:04.200,1.909921169,-7.9920272830000005,1.2909278275,-1.8870598675,-1.5767494442,0.298551585515,-11.97429943,31.97619915,-37.79559898,0.49161803710000007,1.3119168284999998,-0.25620076034999995
1970-01-01 00:00:04.300,1.72178542635,-9.3351488115,1.0467103424,-1.154043198,-0.9187906385,0.9254336057000001,-13.36509991,35.074998855000004,-34.025798800000004,-0.21061074719999995,-0.39088726045000005,2.0616674425
1970-01-01 00:00:04.400,3.0889844895,-9.690782072,0.8600702284999999,-1.7248036265,-0.69858017565,0.6635328233000001,-15.67699957,38.558099745,-27.99899864,1.9386621714999999,0.32788491250000007,1.6740176674999998
1970-01-01 00:00:04.500,3.606133163,-14.022838114999999,4.968247533,1.56086745845,-0.20142689349999998,-0.5273902416,-16.811599735,42.742698669999996,-19.873799325,3.5118096174,-3.8924813270000005,7.9226865765
1970-01-01 00:00:04.600,0.44461637749999994,-16.27687645,-2.1146569552,3.54436481,1.4030398129,-0.40491538120000004,-17.116600034999998,45.292499545,-14.225199695,1.4683756528,-6.9787268639999995,-2.4788873195
1970-01-01 00:00:04.700,-1.36420801285,-9.593723295,-1.1630613508,2.6178622244999996,0.91863791623,0.59061294795,-16.415099145,45.05459976,-15.127999785,-2.141170144,-1.8397045134999999,-2.9430709485
1970-01-01 00:00:04.800,3.2875887155,-2.0787646175,-1.3772189914000001,0.82678177371,2.4652268889999998,-0.3516189456,-13.816499709999999,41.45560074,-21.453700065,3.171159029,6.5742001535,-5.417491436000001
1970-01-01 00:00:04.900,-1.54486607035,-5.663811326,6.8931239259999995,-1.1717577277,1.4926816225000001,-0.70499411225,-9.430599688000001,36.740299225,-32.012799265,0.7120090723000001,5.3789000510000005,-2.7794327735
1970-01-01 00:00:05.000,-2.1254247127,-10.9332556725,9.1842513105,0.468367150499,0.86862478294,-0.6075639427,-3.922299862,32.220198635,-39.936700825,-2.8525843625,-7.291095018,2.959584713
1970-01-01 00:00:05.100,-2.9621648790000004,-11.254043104,-5.335994601,-1.4228923321,-2.575561047,0.6187119185500001,1.45789995815,29.34099865,-43.023298265,-3.36461699,-2.62769413,-7.48971653
1970-01-01 00:00:05.200,5.893671751,-11.412118911,-2.3983559610000005,-2.34901309,-2.1602613930000003,0.4158342779,4.093100071,29.444699285,-42.90740013,5.3384172915,-2.21382141135,-5.85542154145
1970-01-01 00:00:05.300,-0.5908776521500001,-7.307381153,1.8560826185,-2.368407488,-0.56854608645,-0.9060392081499999,2.6351999640000003,33.305999755,-39.18029976,0.006731748499999801,2.7208199505,1.6945839227
1970-01-01 00:00:05.400,-0.09646070000000007,-8.0627653595,-1.5424733162,-1.17893523,-2.492791295,0.31512082370000005,-1.5493999868000001,37.52719879,-33.519499775,-1.40901187055,1.26474285145,-0.03811836249999989
1970-01-01 00:00:05.500,4.4032422305,-13.230365275,2.9177480043450004,-1.2668972762000001,-0.6946860590000001,0.586107932,-6.600199937499999,42.443798064999996,-25.60779953,5.291059971,-2.065170765,6.290341615499999
1970-01-01 00:00:05.600,1.2623634412,-14.192878245,3.7891842125000004,1.34004614509,0.6250494718999999,-0.6335249692,-10.4065995225,46.616199495000004,-17.02509975,2.3619002404,-5.686097145,6.0190706254999995
1970-01-01 00:00:05.700,-1.917099595,-16.24457407,-2.9334510266499993,3.548335433,0.8700755389,-0.3752892837,-12.65140009,48.12899971,-13.285799505,-2.686917901,-6.749693871,-3.8641557693999995
1970-01-01 00:00:05.800,1.04327070725,-6.1498532295,-1.8991534115,2.4865300655,1.1244171338,0.216698059805,-12.230499745,46.353899005,-16.537099835,0.1995509267,1.5681061743,-5.712814331
1970-01-01 00:00:05.900,1.5124135018499998,-2.0476579665,-1.7853447795,1.0469922199,2.5907559394999997,-0.41835400464999994,-9.924699781,41.492198945,-24.33899975,2.23266482335,6.147135973,-6.607137203000001
1970-01-01 00:00:06.000,-5.030610382500001,-15.2461683775,9.384201883,-1.6686820385,1.1175450385999999,-0.7117134034499999,-5.8559999465,35.660598755,-33.75740051,-3.548425138,-1.2418684959999995,2.5034766174999996
1970-01-01 00:00:06.100,-3.4673496485000004,-13.271193026499999,3.5857943295,1.00591275115,1.28965127465,-0.22463908046,-1.1346000286,31.963999745,-39.735399244999996,-1.6652619839999998,-4.241886139,3.541196108
1970-01-01 00:00:06.200,2.5728825330000005,-7.9622669835,-8.085497141000001,-1.2329951525,-1.8479656872999999,0.55411481855,3.788100004,29.65209961,-41.94969749,2.3755946155,2.3995227814999995,-13.113704679
1970-01-01 00:00:06.300,0.93903334429,-9.265757083499999,2.7644578815000003,-1.8253642919999997,-0.5656445622499999,-0.32351997495,6.106099843999999,30.585399625,-40.680898665,2.35856092,-1.5914878844999998,1.46820199514
1970-01-01 00:00:06.400,-0.49381877859999995,-8.6828055385,1.6956139205,-1.6088953615000001,-1.08280310025,-0.58862769605,5.081299782,34.208799365000004,-37.2648983,-0.243615374,1.0656003951500002,0.465038657
1970-01-01 00:00:06.500,0.6182455716000002,-9.064610480999999,-0.7274180949,-1.535364628,-1.359287858,0.16462333875000001,2.177699983,37.74679947,-33.281599045,0.09669625749999988,1.2860274315,0.2935169488
1970-01-01 00:00:06.600,1.9649560155,-11.753245830000001,3.109174013,-0.9400176109999999,-0.783106189295,-0.024662956615000002,-2.2447999715,42.30349922,-26.63869953,2.58046335,-2.590092659,5.858921528
1970-01-01 00:00:06.700,-0.05802595615000003,-15.513117789999999,0.4674978255000002,2.8585360645,0.1127776727,-0.003206945949999998,-5.801099777499999,46.176998135000005,-19.818899154999997,0.5601280332,-5.5426464079999995,6.791539669
1970-01-01 00:00:06.800,-1.64312142125,-13.120295525,-1.6730317174,2.1762959955000003,1.8775153907000002,0.36956258115,-7.655499697,47.28109932,-17.836400035,-0.7915019691,-4.2904577255,-3.6445947884999996
1970-01-01 00:00:06.900,-0.3526422975,-6.365356922,-2.2857438329999997,1.414722264,-0.21318569780000002,0.13095038011800006,-6.6489999294999995,45.780498505,-20.611899375,-0.04707479499999989,2.13649463677,-6.0658214095
1970-01-01 00:00:07.000,-0.75478601455,-3.2325538395,-0.9954142309,-0.5542675405,1.600190699,-0.6297835112000001,-4.263899922,42.06559944,-27.11449909,0.5638731718500001,5.8991680145,-4.920915603499999
1970-01-01 00:00:07.100,-2.23444768805,-14.778221845500001,9.186644198,-0.02893888950000001,1.2633084655000002,-0.80960169435,-0.98209995756,38.460498810000004,-34.233200075,-0.893658042,-2.8194599150000004,3.8718280794999997
1970-01-01 00:00:07.200,-1.9962122438,-10.2330555915,-0.317946434,0.99056518095,-0.9266552923,0.16721944510000003,2.220399976,36.246198655,-37.594299315,-0.41928285349999994,-4.11020278925,0.30596351649999987
1970-01-01 00:00:07.300,-0.6447161435000002,-9.4272723215,-3.468546033,-0.7930324674999999,-3.714104056,1.432589531,4.4407999515,35.422698975,-38.875299455000004,-1.3560780885000001,1.218493223,-9.539444446000001
1970-01-01 00:00:07.400,3.0792635379,-8.828767776500001,1.6764713525000001,-1.673186958,-1.1993986071,-0.30038414150000003,3.391600013,35.916799545,-38.448299405,3.698374033,-0.7930102349,-0.5728372335000002
1970-01-01 00:00:07.500,-2.254637122,-8.171638727,3.3186955449999997,-0.8859575987,-1.3469945195,0.624056831,0.38429996354999996,37.466197969999996,-36.78299904,-2.2077429295,2.374199152,2.727190733
1970-01-01 00:00:07.600,1.7327026725,-9.5506525015,1.16395866855,-1.3014101385,0.03565821050000004,0.70468866825,-3.666099906,39.460899354999995,-33.970897675,2.003644109,0.177536010735,0.3814817664999999
1970-01-01 00:00:07.700,-0.32392835615000004,-10.9954686145,5.024478793,0.995681055135,-0.6358156576,-0.05810684711,-7.35049963,42.8463974,-29.145799635,1.3119294645,-0.4077935219,5.1014630795
1970-01-01 00:00:07.800,0.35847472774000005,-14.124682905,1.0072288515,2.771948516,-0.35261157155,-0.5541911495999999,-9.400099754500001,45.475498200000004,-25.046599389999997,0.16262349474999993,-4.5808138849999995,0.4526293279999991
1970-01-01 00:00:07.900,-1.38574346915,-11.4312610645,3.30912419015,1.781535983,0.040774053895,-0.7043069005,-10.02839947,45.060699465,-25.369899750000002,-1.43365839115,-3.3421502115,-0.7188279630000001
1970-01-01 00:00:08.000,-1.8824036420500003,-5.5345988275,3.0254250765,0.65902784485,0.9300913216,-0.096895647245,-10.15040016,41.95580101,-29.21899986,-2.61742419,2.478005886,-2.5327947135
1970-01-01 00:00:08.100,-0.93798649335,-5.454289675,2.2209880948,-1.19099944845,2.053668499,0.007941015064999949,-10.247999665,37.05749893,-35.477600095,-0.7349934577999999,2.8974275590000005,-3.485239148
1970-01-01 00:00:08.200,-2.8461131005499998,-9.1305625435,4.1506500245,-0.5832063854,3.0901236535,-0.60328800975,-8.509499788,33.06199837,-40.943199160000006,1.2684908510000001,2.671037912,7.8094317913
1970-01-01 00:00:08.300,-1.652543187,-14.171192645,4.3553857805,0.399723179635,-0.5914528371500001,-0.09017632529999994,-3.598999977,32.311698914999994,-41.91919899,-1.4583595397,-6.0008716584999995,4.6332501175
1970-01-01 00:00:08.400,-3.4683963060000003,-5.8015478845,-6.1930737495,-2.052141428,-1.731446505,0.6360446811,1.8360999824,32.982700345,-41.40679932,-2.2765150665,2.49117994295,-8.150991798
1970-01-01 00:00:08.500,4.600799799,-11.752048970499999,1.20822584605,-2.4697318079999997,-0.5571690205000001,0.26823830605,5.032499789999999,35.581298825,-39.009498595,7.3228390215,-1.9988183975499998,-1.9328671095499999
1970-01-01 00:00:08.600,-1.2982558604999999,-7.5563845635,1.7075780479,-1.9332551955000001,-0.9354361892999999,-1.18412741995,5.325299978,39.302297595,-34.263700485,-0.8289359211,2.106162548,3.459113121
1970-01-01 00:00:08.700,-1.0851450488,-9.8271732315,-2.2799112795,-1.444348335,-0.615199551,0.1305685956,1.81779998515,42.913499830000006,-28.35889912,-0.5013139396999999,0.15615272524999999,0.65759813805
1970-01-01 00:00:08.800,3.7652559279999998,-13.62054491,5.7487565279999995,-0.8806126413,-0.34352521599999997,0.28999973835,-2.1898999215,47.317699430000005,-20.008000375,3.7848810554999996,-4.2831878660000005,7.1084303855
1970-01-01 00:00:08.900,0.9115158915000002,-15.965660095,-3.2099714280000002,3.0277407765000004,1.3151541349999998,-0.45737187565,-4.8373000625,50.58119774,-12.450099470000001,1.38751915085,-5.4799523355,1.2833266259999998
1970-01-01 00:00:09.000,-2.8866413834999998,-14.443077563,-0.31420755349999996,3.4079933165,1.39257909751,0.08406785875000006,-6.051199913,50.922798154999995,-11.681499955,-2.6912976505,-5.6195816995,-4.3179416655
1970-01-01 00:00:09.100,2.09297204015,-3.6551861765,-2.9884859324999997,2.7972986695,1.326073066145,0.09040539292,-4.4285999535,47.95209885,-17.4520998,1.9723942578,3.893520117,-6.079130172999999
1970-01-01 00:00:09.200,-0.96296153599,-1.17367950085,-0.4136591555000001,-0.4177432059000001,2.7376646995,-0.50547610225,-0.451399982,42.108299255,-27.18770027,1.8995012045,7.111920356500001,-6.9220771789999995
1970-01-01 00:00:09.300,-8.873184206000001,-16.318751812,8.60608554,0.023823022999999943,0.7677586228000001,-0.58801684167,5.239899993,36.392599105,-36.28280067,-2.3529123068,-4.02823877355,9.9601988795
1970-01-01 00:00:09.400,-3.348904848,-9.3279705045,-0.8853445049999995,-0.13400462270000002,-1.13556505725,-0.009926259500000006,10.961699963000001,32.03719902,-40.906599045,-1.9010505675,0.1594200134999999,-4.291093825500001
1970-01-01 00:00:09.500,2.854338288,-12.928719999999998,-4.1926737425,-2.7566773895,-2.2496741415,0.28831990809999997,14.402100090000001,30.53659916,-41.63249779,3.019866973,-2.9329347610000003,-6.7817749974999995
1970-01-01 00:00:09.600,0.3644567725000001,-7.105187654500001,2.2281665206,-2.847464561,-0.8506811262499999,-1.3401225805,13.90189934,33.78789902,-38.33850098,2.0907311440000003,1.3430769445,2.1177176236
1970-01-01 00:00:09.700,-1.0408778935999998,-8.0244801045,-0.7416254874999999,-1.2840009335,-2.570521712,0.27892813084999996,9.290299656,38.552000050000004,-32.47640038,-1.8433021458499999,1.5514354705,1.1788687705
1970-01-01 00:00:09.800,4.2656549214999995,-13.71281767,2.4892833235,-1.087231740525,-0.32092386495,0.31825142351999997,3.355000079,43.736999510000004,-24.90019989,5.149412513,-2.9925317765,5.718050599
1970-01-01 00:00:09.900,0.21969104189999997,-14.281412125,3.1416264775,2.3874964715,1.0066762567,-0.50898848475,-1.4213000239,49.117198945,-16.158900260000003,1.46376231335,-6.38634634,5.8462576864999996
1970-01-01 00:00:10.000,-2.6904299855000002,-16.114015575,-3.6122649314,3.4832801815,0.82403296215,-0.096819292735,-4.477399826,51.58159828,-12.273200034999999,-2.81126379945,-7.1734700205,-3.60000014305
1970-01-01 00:00:10.100,1.2562318444999998,-6.031408429,-2.0763718485,2.7194156644999996,1.511617899,0.21692713349999998,-4.6664998529999995,49.489299775,-16.073499679999998,1.5827486515,2.1895256043999995,-5.6094136235
1970-01-01 00:00:10.200,1.1234301927,-1.0193424818999999,-2.781357288,0.24540787944999992,2.76942873,-0.8283089101500001,-1.860499978,44.102998735,-24.662299160000003,3.3573402164999995,6.9590358735,-8.0540804865
1970-01-01 00:00:10.300,-3.644418478,-15.970445631,13.98455286,-0.3607816695,1.0082033725,-0.6300889402500001,2.9889998435000003,38.26530075,-34.57480049,-6.6476120926,-8.424668313000002,4.840500238
1970-01-01 00:00:10.400,-4.020390749000001,-8.264959009450001,0.47333025950000085,-0.1981435865,-1.0687536897499998,-0.10269869865,8.442399739999999,33.848897935,-40.784599305,-1.7921707631500001,-0.2902963159999996,-4.63442349435
1970-01-01 00:00:10.500,1.9829022285,-10.094122408999999,-4.6906801465,-2.3477914330000003,-2.20210433,0.53624753655,12.614799495,31.58579922,-42.352298735000005,2.6061059239999995,0.275197983,-9.303658008500001
1970-01-01 00:00:10.600,1.4167004824999996,-8.6682994385,2.6041388515,-2.6539021729999996,-0.37147146475000004,-1.2361257673,13.121099945000001,33.745199205,-39.79029846,3.8777387140000004,-0.191647291,1.4120986461
1970-01-01 00:00:10.700,-2.0069799574,-8.425427675,-0.3632603885000001,-1.281710267,-2.93428123,0.20837529004999994,9.8209996245,38.436100005,-34.373498915,-3.1410496235,1.451133728,1.55839854486
1970-01-01 00:00:10.800,4.0381872654999995,-10.6507530225,2.32881459766,-1.5558280049000002,-0.04871505500000001,0.40247199021650004,4.6359997989999995,43.187999725,-27.742799755,3.800979793,-1.2160081863999999,3.981729746
1970-01-01 00:00:10.900,1.5879368779999998,-15.952499865,4.354189396,2.164537251,0.5590016097,-0.2744231373,0.1525000036,48.385198595,-19.141799925,1.4989296195000001,-5.604102135,6.728975773
1970-01-01 00:00:11.000,-1.7316558960000001,-16.961672784999998,-3.4326536656,3.4402916429999997,1.1197594031000002,-0.44836188855000003,-2.7022999524999998,51.380300520000006,-13.657899855,-0.010532140500000065,-6.537088871,-3.7268239857000003
1970-01-01 00:00:11.100,-1.08394868288,-7.477421284,-1.6369897720000002,2.811271787,1.4906200170000001,0.19333315639999998,-3.4952999350000002,50.337200159999995,-15.646499635,-2.68941104415,-0.5377507209999999,-4.844154358
1970-01-01 00:00:11.200,3.0171997996,-1.78175553695,-2.9693433045,0.5115082264999999,3.0587413310000002,-0.62138438225,-1.2138999405,45.981798175,-22.673700335,4.101850748,5.546771765,-7.1184146405
1970-01-01 00:00:11.300,-7.386493742,-15.229418931000001,7.310970665,-0.44171893595000006,0.97873000795,-0.6907918898500001,3.275699973,39.863500595000005,-32.146998405000005,-3.8942619560000002,0.26477313050000006,4.4070000645
1970-01-01 00:00:11.400,-3.391826153,-10.4304640315,0.7319047449999998,0.0791810751,-0.8725953697,-0.09666658935,8.4667999745,35.05060005,-38.84479904,-0.6048194764999999,-3.0523090365,1.9107697010000002
1970-01-01 00:00:11.500,0.9270691870000001,-8.158478258999999,-6.3318572045,-2.449802876,-2.6755108830000003,0.5285356045,13.328499794999999,32.500801085,-41.425098415,-0.3500936029999999,0.304108142865,-11.720222475
1970-01-01 00:00:11.600,3.2361430524999997,-10.192377566,2.94765842,-2.9703974725,-0.907108188,-0.09452861544999996,14.713199615,34.038000105,-40.083099364999995,4.9896559714999995,-2.184136391,-0.31761878725
1970-01-01 00:00:11.700,-2.2284656765,-7.811369419,-0.0677467585,-1.7462595705,-2.4821014999999997,-0.9724688232500001,11.821799755,38.51539993,-34.830997464999996,-2.4504144195,2.121198654,2.598948598
1970-01-01 00:00:11.800,3.8167017105,-10.032955648,2.6914767025,-1.7806961534999999,-1.0889879166,0.7282062769000001,6.356199741499999,43.10869789,-28.26739979,2.212014027035,-0.6599640845,2.5227984191
1970-01-01 00:00:11.900,1.4023436309,-15.61256981,3.462414265,0.14897038045000002,-0.23998665795000007,-0.24960747361500002,1.34199991805,48.208299635,-19.684700014999997,3.0088197289,-5.3908638955,7.770746470500001
1970-01-01 00:00:12.000,-3.004039228,-16.638491629999997,-4.163960099500001,3.9411865475,0.12484189869999995,-0.313517347,-1.970299959,51.459598545,-13.24919987,-1.1301514210499999,-6.8723268505,-2.786617637
1970-01-01 00:00:12.100,-1.5496517201449997,-9.537491798,-1.985294998,2.732319832,1.28430635943,0.16584502533499995,-3.4830999375,50.97769928,-14.26789951,-1.9458505956,-2.4466543199999995,-4.8231781725000005
1970-01-01 00:00:12.200,3.2098220585,-1.88120720913,-2.630609393,2.080240369,2.645350456,-0.13431003689999998,-1.6653000116,47.030998229999994,-20.77049923,4.0679860115,5.9127461915,-7.2889561655
1970-01-01 00:00:12.300,-2.683101952,-5.17911496775,7.6580792655,-1.2764416935,1.943868637,-1.3440166712000001,2.4033999445000003,41.03469849,-30.408498764999997,0.51654607045,5.528993368,-1.5606627465000003
1970-01-01 00:00:12.400,-4.74810791,-13.74512124,10.672287942,0.9004652050499999,0.8951966761999999,-0.32313819229999996,7.271199941500001,36.392599105,-37.728500365,-5.6653540135,-8.7784643175,4.746083738
1970-01-01 00:00:12.500,-2.0596220495,-9.0107722285,-8.0328553935,-1.0059127511500001,-1.69807896035,0.44164256749999997,12.23659992,32.933898925,-40.84559822,-0.5561791657500001,-0.6754815574999995,-12.104406358999999
1970-01-01 00:00:12.600,4.559972167,-12.55648613,-0.328714013,-2.967877746,-1.6889927236500002,0.2825168631999999,14.469199655,32.90949821,-40.497900009999995,5.5878469944999996,-4.1911458965,-5.8193092322
1970-01-01 00:00:12.700,-1.7890835254500002,-6.6382882594999995,1.26699957275,-2.0844399335,-2.223560393,-1.2801831365,12.730700015,36.917200085000005,-36.17909813,0.012503147000000103,3.1696977615,1.3452940580975
1970-01-01 00:00:12.800,0.7428218130000002,-8.838339329,-0.23659035565000006,-1.2902621029999999,-1.59110435845,0.7128587663,8.003199816,41.20549965,-30.347499845,-0.4734342100000002,1.12668609615,1.27300825695
1970-01-01 00:00:12.900,4.0153058765,-13.272388935,2.2163520455,-0.7673005091499999,-0.21967593579999997,0.19730367515000002,2.5253999830000002,46.616199495000004,-22.838398935,5.4775719645,-4.1639704705,4.414018392999999
1970-01-01 00:00:13.000,-1.7161024809499998,-13.681711195,2.2640589474999997,2.6112956405,0.88420141485,-0.4926483184,-1.56159991035,51.16069794,-14.896199705,0.27792105089999997,-4.7096920010000005,5.3818063735
1970-01-01 00:00:13.100,-3.2602207659999998,-16.03385544,-2.9537898900000004,3.3262159825,0.42209541799999994,0.002596095200000037,-4.0260000225,52.344099045,-12.517199515,-3.028417826,-7.647872925,-4.26840323205
1970-01-01 00:00:13.200,2.0810079577000002,-5.7465131285,-1.8656538724999998,2.6374857425,1.54109123355,0.09071081691499995,-3.4342999455000003,50.01999855,-16.964099885,3.4539150000000003,2.5046334265,-4.437362194
1970-01-01 00:00:13.300,0.2926720975,-1.2551850675,-2.187638164,-0.023517609000000106,2.8529621365000004,-0.9957573713999999,-0.5855999887999999,44.822797775,-25.772499085,3.0202342865,7.1174292564999995,-7.7191562650000005
1970-01-01 00:00:13.400,-3.2279177905000003,-16.978272675,10.5524976275,-0.4269822539499999,1.113192767,-0.8635089343985,4.0930999515,39.216897965,-35.190898895000004,-6.49038726095,-8.739248751,3.764525771
1970-01-01 00:00:13.500,-3.290131092,-9.5099746005,-2.4593729975000005,0.34680853790000005,-0.49089214195,-0.15943112970000003,8.9669995305,35.117698669999996,-40.4856987,-0.8016912338850001,-1.7003216745,1.08362746225
1970-01-01 00:00:13.600,-0.26395833449999984,-8.6493058185,-5.2808099985,-2.228752613,-2.709336638,0.5627430230499999,12.852699755,32.98269844,-41.998498915,-0.25533235100000007,1.1045043466500002,-12.82858276
1970-01-01 00:00:13.700,3.418147266,-10.1252291205,2.0629122255,-2.611371994,-0.25319620950000005,-0.766918746855,13.35899973,35.01399994,-39.845199585,4.8474276065,-2.1156258579999996,0.39574834690000005
1970-01-01 00:00:13.800,-1.9184455871,-7.907082319000001,0.9976575374999999,-1.1510653495,-2.460569143,-0.09666657449999999,10.388299466,39.198598860000004,-35.209197995,-2.4254965785,2.09717226005,2.6427681444999997
1970-01-01 00:00:13.900,2.4127129315,-10.2617692935,1.8164513704999998,-1.6920469405,-0.43438877165,0.7566106915499999,5.361900091000001,43.74309921,-29.188499450000002,1.75575761475,-0.3102526664,1.5624052285
1970-01-01 00:00:14.000,3.6838998795,-14.62732506,2.751297355,0.9659785749300001,0.14171657715,-0.49837500605,0.7075999824999999,48.879299165000006,-20.929099084999997,4.703459024,-5.196727276000001,5.985651255
1970-01-01 00:00:14.100,-2.7155545950000004,-15.410226344999998,-1.465903044,3.874222398,0.66620532054,-0.33566058057,-2.3911999465,51.9353981,-14.456999775,-0.7112874985000001,-6.7903866765,-1.8743853565000004
1970-01-01 00:00:14.200,-1.462164242,-11.397612097,-1.607079521,2.74308598,1.16030433755,0.19172968528500006,-3.842999935,51.599899295,-15.036499979999999,-1.563915074,-3.2493171693500003,-2.6164220569500003
1970-01-01 00:00:14.300,2.435444713,-3.3140594960000005,-2.102692902,1.62928238535,2.8060795065,-0.3804051372949999,-2.2020999195,47.96429825,-21.142599105000002,3.4467110635,4.6452047825000005,-5.8909177779999995
1970-01-01 00:00:14.400,-1.1389835475,-2.33135697255,3.201447248,-1.2772816420000002,0.9650623148699999,-1.2442195415000001,1.543300003,41.675199504999995,-30.804999355,0.5826239288,6.509343386,-4.2283325195999995
1970-01-01 00:00:14.500,-4.515854478,-15.623187306,9.714560985,0.5977904051499999,0.8373188822000001,-0.23448898645,6.106100082,36.362100604999995,-39.137599945000005,-4.9992312793,-7.8511590965,6.7765538685
1970-01-01 00:00:14.600,-4.2106200455,-11.279317378,-5.1037411095,-1.86170977335,-2.8236414195,0.46149511635,10.668899534000001,32.71429825,-42.913497925,-3.101091504,-2.1814174649999996,-9.043855668500001
1970-01-01 00:00:14.700,5.315356374,-12.63066387,-1.6120148005,-2.338170528,-1.767333865,0.8967237473,12.584300044999999,32.43369961,-42.88299942,4.366602540000001,-3.4244823454999995,-6.414705038
1970-01-01 00:00:14.800,-0.96296158435,-7.041628122500001,2.5251756910000003,-2.4801162480000003,-0.5819846989,-1.0859337149,10.64449978,36.6792984,-38.69839859,0.45981645550000017,2.4007217885,1.781706929
1970-01-01 00:00:14.900,-0.47946184890000004,-8.347661018,-0.12397813749999997,-1.3179793355,-2.5270751715,0.25052373110000004,5.8864998815,41.498298645000006,-32.653300285,-1.4541239590000001,1.10007047645,0.17605715989999995
1970-01-01 00:00:15.000,4.5180978775,-13.47338581,2.448455751,-1.2116919161,-0.30068956315000006,0.5680115968,0.4635999797,46.750400545000005,-24.644000050000002,5.1490719315,-3.2955384255,4.919910431
1970-01-01 00:00:15.100,-0.32138597950000003,-14.489587785000001,1.7937197085000003,2.05954784175,0.690639168,-0.6199336052,-3.2451999185,51.374198910000004,-16.232099535,1.3262819645,-5.9444680215000005,5.3597999215
1970-01-01 00:00:15.200,-3.6683466435,-14.299358365,-2.467747867,3.3346915244999997,0.9943829253500002,-0.1311794445,-5.593699932,52.856498715,-13.57859993,-3.6979191305,-5.9835314749999995,-4.6745556595
1970-01-01 00:00:15.300,1.599751383,-5.5178489685,-2.648555636,2.63007915,0.85465168945,0.20486289265,-5.2520997524999995,50.849599839999996,-17.35449934,1.4857718050500002,2.2791028022499997,-5.6910765175
1970-01-01 00:00:15.400,0.6672984081599999,-1.7446668145,-1.7436199184999999,0.3856736717999999,2.7817220685,-0.7277481556000001,-2.7876998785,45.933000565,-25.802999495,2.855630636,6.534453392,-7.1326408390000005
1970-01-01 00:00:15.500,-2.00578355785,-13.4997072225,11.997463225,-0.7154548467999999,1.1004413364499999,-0.8707627747,1.14679999645,40.58939934,-35.02009964,-3.6679459808,-8.5364689845,7.046021462000001
1970-01-01 00:00:15.600,-4.2130129335,-9.270542858,-0.9978070260000003,0.56915693166,-0.19600564199999992,-0.13728791475000002,5.740099906999999,36.63660049,-40.30879974,-3.0331306455,-1.8073120115,-6.08822035847
1970-01-01 00:00:15.700,1.1916256545000001,-11.335398671499998,-2.4844976064999997,-2.224858403,-2.8853369955,0.6380299628,9.1865997315,34.586999895,-42.05949974,1.5139688255000001,-0.042396306999999744,-9.1582317355
1970-01-01 00:00:15.800,2.0211873655000003,-8.83235693,2.0150557456000002,-2.735373974,-0.5057051479499999,-0.8513683451,9.1865997315,36.79520035,-39.619499205,3.15634089692,-0.03383636499999998,1.1295342446
1970-01-01 00:00:15.900,-1.8248263599999999,-7.9968130585,-1.162911892,-1.1433534029999999,-3.0280462505,-0.12949962914999993,5.5021998885,40.97979927,-34.28199959,-2.3441495894999997,1.6438663005,0.4236304759999998
1970-01-01 00:00:16.000,4.71086967,-10.285697937,2.06186533,-1.6748667954999998,-0.33833302555,0.9371924402,-0.02439999600000009,45.347398755,-27.291399955000003,3.6823662515000004,-0.7492301465,4.5523724555000005
1970-01-01 00:00:16.100,0.25677978980000005,-14.407035355000001,2.8818556665,0.7995990365999999,-0.03367295865,-0.4617241919,-4.7762999535,50.09319878,-18.001100065000003,1.1565334795000002,-4.57115221,5.380979538
1970-01-01 00:00:16.200,-2.64496624445,-16.648062705,-3.1513473651400004,3.975088477,0.1930277273,-0.41438350085,-7.9116997715,52.64299774,-11.51679945,-1.3819032759499998,-6.7034711840000005,-0.37555575350000003
1970-01-01 00:00:16.300,-1.26116713895,-9.767352581,-1.3209876415,2.6627595425,1.25559657815,0.24166644367,-8.8327994345,51.734098435,-12.718500135,-1.1156683266999998,-2.718476772,-4.3447974920000005
1970-01-01 00:00:16.400,2.1539889874,-2.24386945385,-2.6318057775000003,1.6390558779,3.0356054305000004,-0.28816718796000007,-6.746599912500001,47.68369865,-19.556599615,3.6610144375,5.498039245999999,-7.0346865655
1970-01-01 00:00:16.500,-4.03953316785,-7.3229348065,7.9657065855,-1.20970666385,1.2223817111500002,-1.128845751,-2.6778999565,41.583698275,-29.90219879,-0.5494645835,4.9369316105,0.1797692774999997
1970-01-01 00:00:16.600,-1.25279223935,-10.4579811105,9.3889875395,0.7479824873,0.9608627182999999,-0.41713233295,2.2874999644,36.648799894999996,-38.271400455000006,-1.682521403,-5.1862642789999995,4.843640089
1970-01-01 00:00:16.700,-3.2961131335,-9.435796738,-5.169543862499999,-1.70495110775,-2.0879522560000003,0.3149681091,7.28949976,33.287698745,-41.955799105,-3.8048226835,-2.705042362,-11.290295838
1970-01-01 00:00:16.800,4.862963199499999,-12.13026476,-0.7978568075,-2.561053395,-0.8747332100000001,0.14148750899999996,9.3085999485,33.51339912500001,-41.55929947,5.9730091095,-2.8295183180000003,-5.0848298655
1970-01-01 00:00:16.900,-1.9244275988,-7.200900316,2.452045083,-1.6024050714999998,-1.971433163,-0.83907507355,7.5151996615,37.27099991,-37.087999345,-0.6280684470000002,3.078033447,2.6783679725000002
1970-01-01 00:00:17.000,0.11545369040000009,-9.3172030465,-1.396511078,-2.0278601645,-0.6900283100000001,0.7618792354999999,3.2390998005,41.32749939,-30.85379982,-0.35062417365000004,0.8867740631500001,-0.041739821499999996
1970-01-01 00:00:17.100,3.3332020045000004,-13.58001614,3.9173496965,0.15798036755000006,-0.6517740042000001,-0.13828054439999998,-1.8177999257,46.41489792,-22.429699900000003,3.8808383939999995,-5.1990060805,6.8455166815
1970-01-01 00:00:17.200,1.2658032178499998,-15.944125175,-1.9230816365,3.725252032,0.6680378166500001,-0.5479299724,-5.367999792,50.37989807,-14.261799815,1.7817987498999999,-4.687678814,4.862200141000001
1970-01-01 00:00:17.300,-3.0520453455,-13.518849849999999,-0.07731807200000007,2.7977567910000003,1.5583476721999998,-0.020005248449999957,-7.240699767999999,51.111898425,-12.43179989,-4.0508286955,-5.763237953500001,-4.6838612555
1970-01-01 00:00:17.400,2.59082874675,-4.490729808999999,-2.1073289515,2.3501584529999997,2.067794323,-0.277706433065,-6.24029994,48.299798965,-16.90919924,2.30042767535,2.9930493835000003,-6.0431790355
1970-01-01 00:00:17.500,-0.37178482486000003,-0.5392823964,-1.2023933458,-1.25796353795,1.9958670735,-1.22513055785,-3.4465000629999993,42.907400135,-26.400799749999997,1.4312258661500001,7.197273731500001,-7.2580206395
1970-01-01 00:00:17.600,-5.8986070776999995,-14.914612772,12.476176737,0.6895701885500001,1.0615761875,-0.254417877635,1.00649993125,37.618700024999995,-35.959499355000005,-2.0619105696999998,-5.0978131285999995,9.686548233
1970-01-01 00:00:17.700,-3.6336507795,-9.842726233,-2.2283160689999995,-1.1460258363,-2.0311434865,0.23303823175,5.996299982,33.562198640000005,-40.87609863,-2.6002783774999996,0.6093535423499999,-5.7472941865000005
1970-01-01 00:00:17.800,3.13684094,-12.8089289655,-2.984896898,-2.648328304,-4.164298533999999,1.025001645,8.936499596,32.09209919,-42.04729843,0.8778628704999999,-1.499488592,-5.754642248
1970-01-01 00:00:17.900,1.107877016,-7.141080141,1.3124632239000003,-2.8118826155,-0.01435488500000004,-0.722326892914,8.5277996065,35.233598705000006,-38.692298890000004,2.7745392324999996,1.1990284920499998,1.3607629540000001
1970-01-01 00:00:18.000,-1.4860923587000001,-8.534450531,-1.0348958298000002,-1.3663126229999998,-2.698417783,-0.07627955080000001,4.733599782000001,39.8939991,-32.74479866,-2.2165107725,1.2430968283500001,0.41684687100000006
1970-01-01 00:00:18.100,5.3382377625,-12.89282751,2.661566496,-1.6056119800000002,-0.16217994503500005,0.86679229145,-0.1097999811,45.04849815,-25.01609993,5.8160767555,-1.5703778266500001,5.814222932
1970-01-01 00:00:18.200,-0.46989054975,-15.503546714999999,2.5503003076,1.51818455765,0.570607692,-0.6611658037,-3.6477999690000003,49.989498139999995,-15.841699125000002,1.042336076275,-7.3766670224999995,5.4826450345
1970-01-01 00:00:18.300,-4.0706399675,-15.932160855000001,-3.99750930085,3.7143330575,0.6288672601399999,-0.3794125095,-6.1121997835,51.917099,-11.583899495,-4.2844753265,-6.8462715145,-3.5375418659999998
1970-01-01 00:00:18.400,1.6679468826500001,-6.2192451955,-1.9339988830000001,2.852427602,0.9018396138,0.3808632642,-6.282999992500001,50.20299721,-14.65829945,0.46136444799999987,2.6789736746,-4.6618885995
1970-01-01 00:00:18.500,0.6086742279999999,-1.5506985782,-2.051247239,1.14594946815,2.8539547924999997,-0.5049416273499999,-3.8734999895,45.091199875,-22.75909901,2.3359260560249995,6.1828439235,-7.208826065
1970-01-01 00:00:18.600,-4.8079283235,-16.015910147,12.32169056,-1.0936456921,0.7184327393499998,-0.81311404725,0.3233000040999999,38.893600465000006,-32.689898490000004,-5.4439086328499995,-4.412890913,4.27464807
1970-01-01 00:00:18.700,-5.071288346999999,-9.4105229375,-2.0883359950000004,0.63986252983,-0.10964709500000003,-0.142403770225,5.0813000200000005,34.452800755,-39.247398375,-1.1828374865,-3.8989033700499998,-1.4694788459999995
1970-01-01 00:00:18.800,0.5273182395,-9.815208913,-1.7412272095,-2.420711279,-3.5096992254999995,0.6755970567499999,8.600999832,31.884698865,-41.83379936,-0.03215146049999973,0.9757943155000002,-11.576097011
1970-01-01 00:00:18.900,4.24277371175,-8.497212173,1.9743778105,-2.766221762,0.11865707484999996,-0.3981197181000001,8.119099855,33.928199765,-39.601198194999995,5.349764823499999,-1.2878861424999997,1.3026592135000001
1970-01-01 00:00:19.000,-2.6724838020000004,-7.910821199499999,-0.5286642309999999,-1.483213544,-2.9025933745000003,-0.4490490631499999,4.233399868,38.673999789999996,-33.94039917,-3.4134767055,1.970919609,1.6848455074
1970-01-01 00:00:19.100,3.886243045,-10.724929810999999,2.522633314,-1.558576822,-0.64719269405,0.84548893585,-1.5067000238000001,43.041597365,-26.30929947,3.1303093583,-1.3500976562,4.5445503
1970-01-01 00:00:19.200,2.2366909385,-15.856787205,2.714208603,1.1056335268500002,0.41110021809,-0.46821440755,-6.3622999195,47.84230042,-16.46389961,3.8432520629999996,-5.77215004,6.0516495705
1970-01-01 00:00:19.300,-4.192823529,-17.294425009999998,-2.934647441,3.741668582,0.70560494065,-0.46149508655,-9.070699692,50.46529961,-10.3272995955,-3.9002448320000003,-6.934750556999999,-1.9396905301899998
1970-01-01 00:00:19.400,-0.419641256,-7.6054375145,-1.0719845295000001,2.901142716,1.09158408655,0.34726665915,-10.0588998785,49.66009903,-11.638799670000001,-1.2483204899,-0.4970846175000001,-4.6712646485
1970-01-01 00:00:19.500,2.30010080355,-1.48743838055,-2.828017235,1.3278292864,2.952301145,-0.4566846937,-8.094700098,45.83539963,-18.995399475,3.4439340830000003,6.2081394195,-7.5607414245
1970-01-01 00:00:19.600,-8.3775712275,-12.936048210500001,7.818548059175,-1.00522552425,1.0248489975,-1.1258678733999998,-4.1845999955,40.16849899,-29.432499885,-1.25074112415,3.47485327705,3.182172777
1970-01-01 00:00:19.700,-1.9637596828800001,-11.2061867725,6.264708757499999,0.8328902572000001,0.45928078915000004,-0.16286715864999998,0.664899975,35.471500395,-37.368598934999994,-0.8217189314999999,-3.4592618943,5.0130798819999995
1970-01-01 00:00:19.800,-1.3425230385,-7.8795647625,-9.4920282365,-2.2106561659999997,-3.3392729755,0.6058841347499999,5.1849997045,31.95790005,-41.32139969,-2.3772253692,-1.41909360895,-10.9181299225
1970-01-01 00:00:19.900,4.538586378,-11.4922783355,1.8619151710000001,-2.9349684715,-0.13912046701,-0.36505758750000006,6.3683998585,32.53129864,-40.656497955,5.777535199999999,-2.723680496,-2.2215640547
1970-01-01 00:00:20.000,-2.181805551,-7.921439170999999,1.7337495387500002,-1.4808464645,-3.0693547724999997,-0.698885627005,3.775899887,36.856199265,-35.60569954,-2.0834099055,2.14133644125,3.327799916
1970-01-01 00:00:20.100,2.0871396362500003,-10.1216397295,0.572632432,-1.634856343,-0.6499415038,0.9930849374499999,-1.34199995198,41.29699898,-28.55409908,0.5213394164999998,-0.1852998735,1.2303971649999998
1970-01-01 00:00:20.200,2.77417879935,-13.808680535,4.4857946635,0.6806365772499999,-0.010078966599999961,-0.5062396526,-6.472099781,46.610099795,-18.989299775,4.7872447372,-3.4967737199999998,6.821899414
1970-01-01 00:00:20.300,-1.2587742508000002,-17.02268982,-2.6101210114999995,3.9332455399999997,0.34337250885,-0.43545773624999995,-9.930799960000002,50.184698104999995,-10.845799925,0.15877658149999996,-7.6918730735,-1.312911749
1970-01-01 00:00:20.400,-1.49461681416,-12.278769491,-1.51974144575,2.6613851785,1.22154183675,0.20180865748999993,-11.760799885,50.263998035,-10.260200022,-2.5780666770500003,-3.4234280588,-1.8948746324999999
1970-01-01 00:00:20.500,3.3450164795,-2.495265335,-2.162513435,1.8168124260499998,3.041866541,-0.21265120805000004,-10.290699480499999,47.19569969,-16.262599945,3.649751842,5.3379101755,-6.3085751535
1970-01-01 00:00:20.600,-1.0145568104,-2.21994130662,3.2313574550000004,-1.287436962,1.3066022282049998,-1.2403253315,-6.282999754,41.638597489999995,-26.43739986,0.8524400590500001,7.1573910715,-5.275190711
1970-01-01 00:00:20.700,-6.890880585,-17.323138715,8.6108715535,0.9859838486500001,0.9841512890499999,-0.13499724678,-0.8844999372,36.868398665,-35.59350014,-8.25473249,-8.879105089,6.03519487415
1970-01-01 00:00:20.800,-3.6252758505,-9.038289545000001,-7.321738408235,-1.97066962705,-3.3085014825,0.49493899939999997,4.5078998805,33.20229912,-40.558898925,-1.6073672176499998,-1.907620907,-7.423605204
1970-01-01 00:00:20.900,5.9581284525000004,-12.651002885,-1.3881361485000001,-2.6571092605,-0.5483117701,0.07757762080000002,7.399299859999999,32.59839821,-41.22379875,5.1018726825,-4.464918613499999,-5.624696017
1970-01-01 00:00:21.000,-1.02173529545,-6.965058088,1.9494026899999999,-2.259371281,-1.542083859,-1.39670229,6.4049999715000006,36.25230026,-37.106300355,0.821807146,2.6199290755,1.8666341305
1970-01-01 00:00:21.100,-1.0097711534,-8.1847996715,-0.05937188850000008,-1.442744851,-2.6577200885,0.13881503045000002,1.9214999380000002,40.558898924999994,-30.902599334999998,-1.6846167149000002,1.5729055404999999,0.58818042265
1970-01-01 00:00:21.200,4.650002241,-13.794323445,2.82682091,-1.0795198531,-0.4824929981,0.5691569337049999,-3.544100046,45.688999175,-22.18569946,6.171001434500001,-3.5204133989999997,6.2201395035000004
1970-01-01 00:00:21.300,-0.7727321980000001,-15.471393110000001,-1.012313485,2.29266244155,1.25032800435,-0.5815266073,-7.3444001675,49.87969971,-13.224799635,0.317054987,-6.6605577469999995,5.934197307
1970-01-01 00:00:21.400,-3.5702409745000003,-14.378321645,-0.025722846400000027,3.4037173984999995,0.7640935183500001,-0.07895200325500001,-9.668499471,50.989898679999996,-10.906799795000001,-3.2848964929999998,-7.0037617685,-4.5637285709999995
1970-01-01 00:00:21.500,2.4305096715,-4.3818564415,-2.476122737,2.626719594,1.4812282771499998,0.201274167735,-9.1316995625,48.751197815,-15.15849924,2.3374705315499997,3.2417860034999997,-6.3577935695
1970-01-01 00:00:21.600,-0.10244274154999994,-1.0504491629500001,-1.943420589,0.16981554019999995,2.875105262,-0.5922927707500001,-5.7950000765,43.43809891,-24.29019928,2.6038229465000002,7.344388485,-7.5827646255
1970-01-01 00:00:21.700,-4.9444690346,-13.8336558325,15.058331964499999,-0.345510483,0.8819870946999999,-0.974606809085,-0.8478999436999999,38.22259903,-33.90379906,-2.009022355,-6.3884491930000005,7.343953371
1970-01-01 00:00:21.800,-3.905535221,-10.141978740999999,-2.1278176305,0.15210098025000002,-0.8348754941500001,-0.282440491,4.2394999265,34.965200425,-39.906198505,-3.4678304795,-2.3368482575,-5.9606683255
1970-01-01 00:00:21.900,2.5897819399,-11.079217433,-3.44820708025,-2.346951485,-2.6324462295,0.5900020896999999,7.679899931,33.31819916,-41.510499949999996,1.4859770535,0.41700696950000005,-5.429117441500001
1970-01-01 00:00:22.000,1.300499201,-7.504788875499999,2.24745874115,-2.838912606,-0.27251422415000004,-1.0128611026,6.7587997914999995,35.867998125,-38.32629967,3.0284367199999997,0.22341775900000016,1.5381358265
1970-01-01 00:00:22.100,-1.385593913255,-8.487640858,-0.7559823991499999,-1.1596935395,-2.9095418455,0.13675342499999998,2.629099965,40.1928997,-32.488598825,-2.2676588295,1.454589367,0.8996999265
1970-01-01 00:00:22.200,4.6642096045,-11.722138885,2.9416762595,-1.32240802045,-0.2344889639,0.4810422258485,-2.5680999755,45.121698375,-25.406498905,5.088223219,-1.319660663605,5.3968720435
1970-01-01 00:00:22.300,0.9186943622,-15.847215655,3.512663603,2.1494951246000005,0.765773386,-0.5588488877,-6.6794998645,49.690597535,-16.40899992,1.65397109105,-6.624287605,6.4410910605
1970-01-01 00:00:22.400,-3.9749269485,-16.68141365,-4.162763655,3.5533747675,0.70453596125,-0.1336991936,-9.284199714500001,51.605998995,-12.071899890000001,-3.9311734440000006,-7.7014069554999995,-3.4734129905
1970-01-01 00:00:22.500,1.7482559683,-6.2623159885,-2.131406784,2.7406425475000002,1.1982532738,0.4885251075,-9.3207998275,49.76379967,-15.426899435,1.544152498,1.869700908805,-4.5705001355
1970-01-01 00:00:22.600,0.5955137609,-0.8313563077099999,-2.3265713455,0.14515259884999998,2.4743895535,-0.70591035485,-6.6001999375,44.249399185,-23.38129902,3.1584132315,7.045978546,-7.4540190695
1970-01-01 00:00:22.700,-3.01121783275,-17.2980141635,11.6980614665,-0.4811185,1.19489359855,-0.8968765104319999,-2.336299956,38.551998139999995,-33.183999065,-5.408924310850001,-8.2868566535,5.8054014469999995
1970-01-01 00:00:22.800,-6.115157366,-9.2896852495,-1.8381364349999996,0.35398598015000005,-0.8858048765,-0.18340688944999994,2.476599872,34.574800495000005,-39.942800520000006,-1.9829822778,-2.80820632,-4.542683123000001
1970-01-01 00:00:22.900,0.7966603045000005,-11.536545755499999,-1.25518506775,-2.5981624125,-2.500045061,0.78646585345,6.270799875,32.146999359999995,-42.340099335000005,1.2908709049999996,0.8268430235000002,-10.186781883999998
1970-01-01 00:00:23.000,2.6208886505000004,-8.132157326,2.117049813,-2.7407189605,-0.33741676815000005,-1.28865861885,6.3439998625000005,34.300300594999996,-39.967199324999996,4.623890758,-0.13632154500000015,0.63725948335
1970-01-01 00:00:23.100,-2.9249266979999997,-8.2171025275,-0.24601209149999992,-1.1617551444999998,-2.725447774,0.2522035539,2.8548000455,38.66179848,-34.477199555,-3.589201808,1.47235774975,0.6572956444999999
1970-01-01 00:00:23.200,5.2268220185,-10.3383398055,2.118096709,-1.26498830305,-0.46218231304999996,0.6640673501000001,-2.0801000000500003,43.212400435,-27.266999245,4.3466887475,-0.6769828795,4.140078366
1970-01-01 00:00:23.300,1.2898809684499999,-15.061771395000001,2.0941684245,1.612025972325,0.72286137935,-0.5745018422999999,-6.3073999885,48.135099409999995,-18.287799835,2.472707033,-5.599354743999999,4.7661436795
1970-01-01 00:00:23.400,-4.261018871999999,-16.384703639999998,-2.59591341,3.5753653045,0.78638946634,-0.16500511019999994,-8.6314997675,50.532400135,-12.907599925,-3.321896851,-5.982749939,0.4263352155000002
1970-01-01 00:00:23.500,0.1896311639999999,-8.242227316,-0.9690932034499999,2.7224698065,1.11502531185,0.24403347820000001,-8.8388996125,49.446598054999995,-14.652199745,-0.6076846418999999,-1.3598489765000001,-4.019624114
1970-01-01 00:00:23.600,2.10987138765,-2.0152053235,-2.3241785765,0.7766159513,2.838530779,-0.62184251845,-6.411099910500001,44.67639923,-21.600099565,3.3536221979999996,5.83057189,-7.0153422355
1970-01-01 00:00:23.700,-5.29397077875,-9.744620323500001,9.00344348085,-0.9405521006,1.1269368233,-0.9750649183500001,-2.1532999875,38.533699035,-31.189299585,-0.7004987,4.176026821,1.1453464034999996
1970-01-01 00:00:23.800,-1.14496563836,-11.719746111500001,4.869992375,0.53456773615,-0.22441005700000005,-0.16050012410000003,3.23909992,34.40399933,-38.460498810000004,-1.96300834395,-5.5094261175,4.572337388999999
1970-01-01 00:00:23.900,-1.237239003,-8.099854233,-9.6859965335,-2.284263253,-2.8098210095000002,0.76394087075,8.125199556,31.042899130000002,-41.32139969,-2.30578815945,-0.28093719479999996,-9.9060945495
1970-01-01 00:00:24.000,4.694269418499999,-11.432308436,1.76261299825,-2.6828411814999997,-0.21036052715000003,-0.8593857362999999,9.894199848,31.463799475000002,-40.266098025,5.994403839,-2.294427871815,-2.149333715435
1970-01-01 00:00:24.100,-3.013610601,-7.6197941305,1.469342619,-1.439308882,-2.668638945,-0.8412894011,7.942199707,35.447099685,-35.562997815,-2.9116157295000002,2.34997344,3.5331369639999997
1970-01-01 00:00:24.200,2.1996022016,-9.312417030999999,-0.32138597950000003,-1.43717089315,-1.74206008025,0.7993699608,3.3488999605,38.930200575,-29.22509956,1.4225255251999998,0.26631641410000007,0.5964533090000002
1970-01-01 00:00:24.300,3.6934714315,-14.617753505,4.9897830485,-0.5383854954999999,-0.28221143784999997,0.017943635600000007,-1.21389992525,43.76749992,-21.319499014999998,4.688393116,-4.529799938,7.4179348945
1970-01-01 00:00:24.400,-1.5053845943500002,-16.628770825,-1.3999507430000002,3.5335222479999997,0.8738933799999999,-0.4924955964,-4.642099857,47.35429764,-14.676599505,0.042274713500000116,-7.009739875999999,-2.2089784144999998
1970-01-01 00:00:24.500,-0.6949654221,-12.385399339500001,-1.8883857725500002,2.8973249195,1.199627638,0.20333578812,-5.862099886,47.26889801,-14.432599545,-0.5782014135000001,-4.15103292475,-2.6781743765000003
1970-01-01 00:00:24.600,2.7166014910000005,-2.868695259,-2.1218354704999998,2.334200144,1.92813932895,-0.12705623544999994,-4.111399889,44.481199265,-19.434598925,3.3049285415,4.9504051205,-6.373815775000001
1970-01-01 00:00:24.700,-1.15349002195,-2.5455145983,2.63165617,-1.1596935561100001,2.1268938185,-1.38776859625,-0.75639997405,39.2961998,-27.523200035000002,0.9552423355999999,7.5979561805,-4.972769141000001
1970-01-01 00:00:24.800,-3.650550127,-16.4696483595,9.3722376845,0.667656042595,1.5743060705,-0.6646018326,2.879199922,35.001798625,-34.416198735,-4.94887953955,-9.868832112500002,6.31251669085
1970-01-01 00:00:24.900,-4.647609234,-9.762567045,-6.9556363835,-0.48150036483,-1.6909015775,0.05512896554499999,6.722199678499999,32.549598689999996,-37.33809852500001,-3.3052880170000005,-2.2720267775,-6.023911238
1970-01-01 00:00:25.000,6.0444197655,-12.289536954999999,-2.4270700215,-2.7146052120000004,-1.963339478,0.7810445726,7.917799711000001,33.09249878,-36.972099305,4.0924478765000005,-3.87668514265,-5.727329252
1970-01-01 00:00:25.100,-1.0887342991,-6.988986253499999,2.5381866095,-2.148884237,-1.30408248325,-1.288964033,6.106099844,36.91719818,-32.830200194999996,0.3599166870000001,2.7024421690000002,2.061717689
1970-01-01 00:00:25.200,0.1849951150000001,-8.347660542,-0.9511470194999999,-1.31973552715,-2.125595808,0.54159244895,2.0374000074,40.4734993,-27.65739918,-1.17813646805,1.20762324355,0.27518904210000006
1970-01-01 00:00:25.300,3.6515968445,-13.757084845,3.4432717559999997,-0.83540996516,-0.45118702965,0.20310671630000002,-2.8608999255,44.71299744,-20.264199255,4.431838751,-3.724472046,6.006651163
1970-01-01 00:00:25.400,0.9426226019999999,-15.36341715,-1.3162021634999994,3.193127751,0.7860077023500001,-0.45569205285000003,-6.1792998315,48.36079788,-12.65749979,1.11762415228,-5.68103981,5.607196092500001
1970-01-01 00:00:25.500,-3.1752756835,-15.19128275,-0.27233308550000024,3.0112479925,1.4425921144,-0.03687989714999998,-8.436299801,49.2940979,-10.979999545,-2.8477659225,-6.6286883355,-5.025497198
1970-01-01 00:00:25.600,2.4821048303400004,-4.316053748,-2.1158534290000004,2.4134575125,1.5078000873,-0.028938889385,-8.0580997465,46.695497515,-15.231699464999998,1.657957733,3.114592314,-6.035350322499999
1970-01-01 00:00:25.700,-0.7811070236,-0.36221351469999996,-1.48265278335,-0.9032140672,2.110477269,-1.094332844,-5.447299719,42.175397875,-24.003499984999998,1.09441184995,7.807082653,-7.3448631760000005
1970-01-01 00:00:25.800,-5.02118896045,-15.826876879,12.3886899965,0.36437037565,1.2456703334500001,-0.69827477635,-1.9275999665,38.271400455000006,-33.031498909999996,-0.23345717765000007,-3.6101145745,8.9946393965
1970-01-01 00:00:25.900,-2.9669505359999997,-10.651799677500001,-0.32033908349999995,-0.48875416814999995,-1.843307972,-0.20875706525,2.000799894,35.08719826,-38.307998655,-2.4578166007499997,-1.755542755,-6.453038692
1970-01-01 00:00:26.000,0.7918747664999999,-9.932606937500001,-2.3253750205,-2.452093601,-2.4556059240000003,0.6721610725,3.3550000195000003,33.81839943,-39.619499205,-0.31528842449999983,1.6144824026250002,-7.3128376005
1970-01-01 00:00:26.100,2.814856827,-8.3835530275,1.74466678525,-2.3433628675,-0.66773241765,-0.88878273955,2.0739999410000003,36.76469803,-36.32549858,3.5827602448,-0.800834179,1.5736711620000001
1970-01-01 00:00:26.200,-0.93544410171,-8.032855033999999,-1.44302156555,-1.15450131895,-2.6212219595,0.19348587840000006,-1.6591999233999999,40.57109833,-30.292598724999998,-1.9661148785,1.3376319408,0.04400593050000001
1970-01-01 00:00:26.300,4.2560836075,-11.81785202,2.745464921,-1.05149722075,-0.46920707436500003,0.38009970635,-6.825899839,44.566598889999995,-22.551699635,4.218370258999999,-1.1968512536,6.258342266
1970-01-01 00:00:26.400,0.4039383826500001,-15.96805334,5.6925249099999995,2.698646903,0.7353837339,-0.3499391302,-10.217499735,48.45839882,-14.078799725,0.8426386861,-6.052411556000001,6.0580229755
1970-01-01 00:00:26.500,-1.6429718137500002,-16.858632085,-3.3895828425500003,3.1494520904999996,1.1158652007,-0.03313845395000001,-12.687999725000001,50.00779915,-9.662399769,-1.659732014,-6.956748009,-3.752966285
1970-01-01 00:00:26.600,0.6589235664999998,-6.647859335,-1.2252747415,2.5859456065,1.237271064015,0.3334462494,-12.840499405,48.403499605,-12.633099555000001,-0.8367320376,1.2784721855,-4.866647005
1970-01-01 00:00:26.700,1.55309142195,-0.95817592725,-2.2175483705,-0.06986564380000004,2.3503875735,-0.6090147197,-10.296799659,44.206699369999995,-20.868100169999998,3.3403942585,6.8194406035,-7.382078171
1970-01-01 00:00:26.800,-4.85937410595,-17.9503572005,9.6595261075,-0.2364742755,1.21558603665,-0.7657734117899999,-6.0023999215,38.582500455,-30.878199574999996,-4.8454836595,-2.6989474295000004,3.741835357
1970-01-01 00:00:26.900,-3.7580775025,-9.934999647000001,-1.220489144,-0.013438642050000005,-1.0107231738500002,-0.23983391375,-1.07359997955,34.532098770000005,-38.320199970000004,-1.06704646335,-0.8714876175,0.36259984985000004
1970-01-01 00:00:27.000,-0.2125124930000002,-8.040033342000001,-5.2963632345,-2.403607607,-2.5854873654999997,0.6043570041499999,3.0195000170000004,32.14699936,-41.644699095,-0.3600282669999999,0.23440361025,-11.31535435
1970-01-01 00:00:27.100,4.0465620755,-10.625627994,1.541127324,-2.6055690049999995,-0.396134451,-1.0333245101,3.40989995,33.763498305,-40.11359978,5.8391306400000005,-2.31488943115,-0.42945656199999993
1970-01-01 00:00:27.200,-2.5849962235,-8.116603851,1.42148622875,-0.9808679817499999,-2.8533439635,0.007482871400000007,0.2623000144,37.93589973500001,-35.17259979,-3.6464899775,1.7096924782,3.324119806
1970-01-01 00:00:27.300,2.31804689775,-9.215507746499998,0.18723833550000024,-2.031677961,-0.07773031294,0.8759549856000001,-5.014199972,42.11439896,-28.175899505,1.6423713638000002,0.6384716033,0.5281673669999998
1970-01-01 00:00:27.400,1.5028421579500002,-13.64581871,4.5421755315,-0.40842777514999995,-0.6393280029,-0.13484452665,-10.229699611000001,46.646699905,-18.769700055,3.3816711905,-4.543553829,7.649097919500001
1970-01-01 00:00:27.500,-0.90792662655,-17.13754463,-1.6214363575000001,3.6895939110000002,0.44439137735,-0.05612159009,-13.32240009,49.53199959,-11.760799885,0.5402249694,-7.1976647375,-0.8633346559999993
1970-01-01 00:00:27.600,-0.86739820245,-11.874233247,-1.4682957380000001,2.6742893455,1.3540193140499999,0.046042609949999994,-14.017799855,49.806497575,-12.218299864999999,-0.4141570030999999,-3.512609958495,-2.7769503591999998
1970-01-01 00:00:27.700,2.109871328,-2.8112675545,-2.1373888255,2.168125987,2.1314751505,-0.17813833105,-11.949899675000001,46.902898789999995,-18.513500215,3.0113314394999997,4.98333478,-6.520265579
1970-01-01 00:00:27.800,-1.5544374584999998,-2.6101207285,3.6300615075000002,-1.01163944681,1.8623206015,-1.03393533835,-7.911699772,41.669099810000006,-28.346699715,0.3181526065,7.1595020295000005,-4.4955221409999995
1970-01-01 00:00:27.900,-3.3176485300000005,-14.0431769932,8.913862703,0.63047074544,1.4451882839999999,-0.5748836249,-2.921899855,37.447898865,-37.14289856,-4.884410621,-8.260324957,6.4768085475
1970-01-01 00:00:28.000,-4.4751765725,-11.9531958095,-5.2221858505,-0.4119401276,-1.380591154,-0.06681141255,1.79949998835,34.208799365000004,-41.60199928,-2.136152029,-2.4250226020500003,-6.356713055549999
1970-01-01 00:00:28.100,5.0065327884999995,-12.3685002325,-3.0686455964999997,-2.4357534645000003,-1.863847673,0.71446222065,4.099199891,33.775699615,-42.242500305,3.547879934,-2.5581121445000004,-5.324436902
1970-01-01 00:00:28.200,-0.6327520610000001,-6.6430737975,2.0463119745,-2.3794791699999998,-0.49012854710000003,-1.2023001315,2.988999963,37.118499755,-38.521497725,1.4330090285,2.3303179739999997,1.3440577684000001
1970-01-01 00:00:28.300,-0.6076273918499999,-8.081908226,-1.4609677790000002,-1.345620155,-2.1155930755,0.375289279965,-0.4513999819999999,41.03469849,-32.805799480000005,-1.5723787472600002,1.2316737176499999,-0.05259209899999995
1970-01-01 00:00:28.400,3.5641093255000005,-13.25548983,3.27921396495,-1.04332717509,-0.35719293344999997,0.29114507885000007,-4.85559988,45.774398805000004,-24.796499255,5.005940795,-2.5719270705,5.893556117999999
1970-01-01 00:00:28.500,-0.20413768300000001,-15.64965868,1.6573287250000002,2.781798303,1.0385930538500001,-0.4687489122499999,-7.9665997025,49.8735981,-16.00640011,0.7275994122,-6.607794761499999,6.701638222
1970-01-01 00:00:28.600,-3.4719856975,-15.328870774999999,-1.92442759855,3.1104342935,0.9711708055500001,-0.04077406224999999,-9.8392996805,51.19729805,-12.986899855,-2.6996303795,-7.704320430999999,-4.7757252455
1970-01-01 00:00:28.700,1.7554346026499998,-5.005485892499999,-2.6294130085000003,2.5243263245,1.4861150083999999,0.17592401054999995,-9.265899657999999,49.043998715,-17.03729916,1.9906862678500001,3.1137123105,-6.1219015125
1970-01-01 00:00:28.800,0.06879368415000003,-1.2623634935,-1.918445587,-0.2451024649000001,2.4796580075,-0.7959339618000001,-6.039000034000001,44.530000685000005,-26.016499515,2.4871439040500003,7.063970089,-7.4692325595
1970-01-01 00:00:28.900,-2.67128734315,-12.436695575,13.476975445,-0.12354385850000005,0.9017632978,-0.78799297,-1.3847000150500002,39.3083992,-35.52639961,-3.7976427674,-8.7114338875,6.6861343385000005
1970-01-01 00:00:29.000,-4.1988055705,-9.769745348,0.06879353549999978,-0.22700609265000002,-1.36539638531475,-0.20440476390000004,3.690499902,35.4958992,-41.21159935,-1.993975699,-0.3983860015000005,-4.88673210135
1970-01-01 00:00:29.100,0.9761221409999998,-9.3255777355,-2.7982565160000004,-2.1279628275,-2.3742105364999997,0.6371136904000001,6.777099848,34.08679962,-42.66949844,0.5455520154999998,0.62175416938,-9.002604961500001
1970-01-01 00:00:29.200,2.3778675795,-9.2765250195,1.2801601295,-2.7224698070000004,-0.37918342669999994,-1.0341643991,6.209800005,36.746398924999994,-39.900098799999995,4.650992513,-1.3647983075,0.4388024807
1970-01-01 00:00:29.300,-1.9374385477,-8.025676489,-0.87442708,-1.067379236,-2.820052624,0.13957859574999998,2.281399906,41.071298595,-34.379598615,-2.6732053760000003,1.7479853628,0.4477680919999998
1970-01-01 00:00:29.400,3.972384572,-10.411321165499999,2.4976581335,-1.46091756235,-0.40911494205000004,0.6758261472,-2.9402000305,46.02449989,-27.352398870000002,3.4086161849999996,-0.7768540385,4.136106491
1970-01-01 00:00:29.500,2.7526433470000002,-16.7222414,2.8040890695,1.8123837856500002,0.83472275745,-0.794559598,-7.1430997845,50.410398485,-18.07429981,4.030478835,-6.090426445,5.67628026
1970-01-01 00:00:29.600,-4.944468856,-16.30559063,-1.8357435465000003,3.663098216,0.748669676177,-0.08605311809999999,-9.9979000065,52.89309883,-12.21219969,-4.5030900240000005,-6.107837677,-1.0594407915
1970-01-01 00:00:29.700,1.0911270901499999,-7.793423175999999,-1.06016999495,2.7810348275,1.1506071387999999,0.52685575185,-10.851899625000001,51.892698285,-13.975099565,-1.1687029605,-0.364116192,-4.0993287565
1970-01-01 00:00:29.800,1.9217356739499998,-1.61665083465,-1.878814459,0.5790832191499999,2.5782335995,-0.4905103594,-8.8327999115,47.409198759999995,-21.46589947,3.4955276250000002,5.6007757184999996,-6.7894074915000004
1970-01-01 00:00:29.900,-4.37228527655,-10.2652090769,10.5907830019,-1.06745556745,0.9633061291,-0.9745304583500001,-4.6664999725000005,41.754499435,-31.90909958,0.1840394139,4.710661888,0.7315227984999995
1970-01-01 00:00:30.000,-2.3277677895,-11.5809626585,3.0734311940000003,0.5147151799,-0.24235367800000007,-0.23532890530000006,-0.2440000175,37.42959976,-39.839099884999996,-1.869107306,-8.3418726933,2.7841562029999998
1970-01-01 00:00:30.100,0.1860418319999999,-7.860422613000001,-8.505736828,-2.3903216125,-2.351914704,0.6705575585,4.416399837,34.678499224999996,-43.285598755,-1.5959947107,0.69550251985,-11.443428990000001
1970-01-01 00:00:30.200,4.1566319465,-10.3995065695,2.4569801690000004,-2.495311141,-0.18951536714999995,-0.98415127405,5.691299915499999,35.904598235,-41.925298695,5.8327994345,-2.3172144888500004,0.7052608730425
1970-01-01 00:00:30.300,-2.9261230229999997,-7.5743303300000004,0.7390830965,-1.272929311,-2.4820252060000003,0.0429120362,3.12319994,40.320999145,-36.520698550000006,-3.2740397449999996,2.2975878715,2.515338421
1970-01-01 00:00:30.400,1.82602277405,-10.6052889845,1.5267703535,-1.58843192435,-0.37032616325,0.7517238854499999,-1.226099966235,43.932199475000004,-29.700899125,0.8013739287999999,-0.0404934884999999,0.4457482100000001
1970-01-01 00:00:30.500,3.511467129,-14.280216215,3.9340994360000003,0.4640912115999999,0.1433963925,-0.6389462352,-5.532700062,48.690198894999995,-20.514300345,5.1697255375,-4.9581007955,8.412405491000001
1970-01-01 00:00:30.600,-3.254238725,-16.51272011,-4.303940177,3.8410840035000002,0.5554128737,-0.3586437106,-8.356999874,51.599899295,-13.773799895,-0.6969711779000001,-6.6694993975,-0.5851640699999998
1970-01-01 00:00:30.700,-1.6956139653,-10.942826749,-1.889731705,2.6348133085,1.3371446582,-0.080402769145,-9.082900046999999,51.154598235,-14.585099695,-1.0595582428,-3.5324339868999997,-4.177666545
1970-01-01 00:00:30.800,2.322832644,-1.72432786225,-2.6330022814999996,2.24142772,2.276398599,-0.06291726235,-6.9783997535,47.433599470000004,-20.947400095,3.6103316544999995,5.9984586239999995,-7.126712799
1970-01-01 00:00:30.900,-3.5654553772499997,-6.16286447795,7.5934728405000005,-1.2497171162,1.8187214135,-1.2920946478,-2.940199971,41.754499435,-30.859900475000003,0.03729921580000001,6.055053233999999,-0.26547288899999977
1970-01-01 00:00:31.000,-0.29147571299999997,-7.410272596,8.116604089500001,0.7470661997500001,1.402887106,-0.43324343210500005,1.5432999284,37.15509987,-38.71059799,-2.4449060559999998,-5.4748370665,3.6933221816499997
1970-01-01 00:00:31.100,-3.7556847335,-12.822089436,-5.459224939,-1.0358442065,-1.9767781494999999,-0.02397574484999998,6.136599779500001,34.20269966,-42.09609985,-2.994588375,-4.338980912,-8.628902912000001
1970-01-01 00:00:31.200,5.117948532,-12.095569135,-1.9100705983500001,-2.599689603,-1.70250767495,0.428280279,7.728699922500001,34.721199035,-41.406799315,4.8357771634999995,-1.8284788135000003,-5.07971274825
1970-01-01 00:00:31.300,-2.157727778,-7.326523781000001,2.07622236,-1.941501737,-1.43060433845,-1.0780690612,5.6668999195000005,38.814298629999996,-36.91109848,-0.5009429455000001,2.792081356,2.7884117364999996
1970-01-01 00:00:31.400,0.34052857770000006,-8.6840019225,-0.9116654400000002,-1.4547327159,-2.206380308,0.4746283068999999,0.7624999286,42.43160057,-30.689099310000003,-0.56459733835,1.2869777677,-0.4134109614999999
1970-01-01 00:00:31.500,4.230958998,-14.845221519999999,4.337439656,-0.65215581675,-0.38384115324499996,0.0513875335,-4.56889987,47.128599165,-22.173500060000002,4.144813299,-5.260230064,6.293702602
1970-01-01 00:00:31.600,0.09272181950000014,-17.31954956,-2.914308309499999,3.6280510425,0.65024693295,-0.58297735455,-8.3325996395,50.71539879,-14.261799815,-0.14018177949999977,-6.2267403605,0.6350812915000001
1970-01-01 00:00:31.700,-2.149352971235,-12.804143906499998,0.17886346600000003,2.7940917015,1.3872340914999999,0.23708509283499998,-10.613999844999999,51.18509865,-13.157699585,-2.7885154189,-4.086418628500001,-1.6752532125
1970-01-01 00:00:31.800,3.3653556105,-3.068645477,-1.36286205055,2.2880048155,1.6784556207499999,0.28442575876,-9.735599518,48.190000534999996,-18.35490036,2.52089992185,4.3808121685,-6.245619058500001
1970-01-01 00:00:31.900,-0.5920740365999999,-1.6190436182999999,1.2369397879999997,-1.031873678645,1.850485444,-0.9342909155500001,-6.099999905000001,42.651199344999995,-28.090498925,1.3147857488499999,7.0163309575,-6.0461039544999995
1970-01-01 00:00:32.000,-7.607979415,-16.766507865999998,8.5103728775,0.5977904012,1.11166566635,-0.49127390979999996,-1.36029995245,38.100599290000005,-37.447898865,-4.767853559950001,-6.7910480505,9.386920215
1970-01-01 00:00:32.100,-4.417748928,-11.941231368,-6.1283180715,-0.8562551217000001,-2.1170439125,0.22341738803049999,3.7881000040000004,34.385700225,-42.32180023,-2.961040616,-0.8135719300000002,-7.354896188
1970-01-01 00:00:32.200,5.780012845999999,-12.539587025,-2.784946382,-2.8087520599999998,-1.5720918177999998,0.68101834485,6.4293999675,33.95260048,-42.998899460000004,3.8593135772999996,-3.2501130104750002,-5.7910660514
1970-01-01 00:00:32.300,-1.324576974,-6.391677856499999,2.3682962659999998,-2.096733272,-1.3685269357,-1.17061239455,5.008099794,37.490598675,-39.08880043,0.3985195159999999,2.692769289,2.1960445045
1970-01-01 00:00:32.400,-0.28683960459999996,-8.2531447415,-1.3042378723999999,-1.5334557295,-1.9123337265,0.7188908756500001,0.67709997315,41.91309929,-32.891200065,-1.2463352978000002,1.27017450315,-0.15466702
1970-01-01 00:00:32.500,3.0302106737999996,-14.757883075,3.931557238,-0.7268318980499999,-0.09888088720000004,-0.043370142599999995,-4.4834998845000005,46.84189796,-24.436599729999998,5.283191919,-3.7174587249999997,6.1986317635
1970-01-01 00:00:32.600,0.5117649587,-14.609527589999999,-0.2653040885,3.5539855954999995,0.6416950524,-0.45210331679999993,-8.088599920499998,51.075298305000004,-15.170699599999999,0.6794085802000001,-5.156877518,5.407537937000001
1970-01-01 00:00:32.700,-3.7485061885,-14.563914774999999,-0.6303592324,2.827306509,1.3296617865,0.14278554170000002,-10.083299637,52.228199005,-12.31589937,-3.084237695,-6.3586244579999995,-5.3054587845
1970-01-01 00:00:32.800,2.010419689,-4.592574358,-2.612663269,2.393757701,1.77680194365,-0.002443388099999999,-9.333000183,49.690599445000004,-16.524899485,1.7796581239049998,2.6843199732,-6.1984398365
1970-01-01 00:00:32.900,0.10588239135,-0.45792643724999993,-1.3150055704999999,-0.9376505240999999,2.0522940755,-1.17977511875,-6.185400009,44.23719978,-25.467499734999997,2.427055955,7.6602292059999995,-7.1075322629999995
1970-01-01 00:00:33.000,-4.5996035335,-15.272639275,15.3191499705,0.8421292754,1.4713783260000002,-0.5170058459,-1.8299999833,39.28399849,-35.61789894499999,-0.24928534034999997,-5.3288240435,7.6450488565
1970-01-01 00:00:33.100,-3.691228151,-8.914909364,-3.8491541745,-0.8445726933,-1.855601251,0.20463382825,2.921899915,35.404397965,-41.608098985,-3.4025620814999997,-0.4335234164999999,-5.855352165
1970-01-01 00:00:33.200,2.87348085665,-11.9458675385,-3.2805599570000004,-2.9225987195,-1.35776071637,0.3119138777,6.014600038999999,33.58659935,-43.438098905000004,1.9762421849999998,-1.9453253744500003,-5.368356466
1970-01-01 00:00:33.300,-0.29147577299999994,-7.506135225,2.43409878,-2.133689463,-1.575451374,-1.0982269942,5.7949998375,36.23399925,-40.49180031,1.6515862945000004,0.6570534705,1.2427809236000003
1970-01-01 00:00:33.400,-0.4591228662,-8.114210844,-0.8685945865,-1.40662851945,-2.1951559785,0.6610130817,2.0373999478,40.674798965,-34.593099595,-1.50373712155,1.6149020195,-0.022323369999999843
1970-01-01 00:00:33.500,4.4857947825,-12.078819275,3.501895785,-0.90420664865,-0.17867285005,0.11430479585,-3.049999833,45.542598725000005,-26.650898929999997,4.766430378,-1.72638225575,6.2939972875
1970-01-01 00:00:33.600,0.31899315150000007,-15.240335945,3.84182626,2.636416674,0.9802571535,-0.3903313875,-7.0698997975,50.392099380000005,-17.04339981,1.9525122045499999,-6.9450039865,5.9170377255
1970-01-01 00:00:33.700,-2.8042385579999998,-17.207086564999997,-4.008426547,3.7612156870000004,0.6611658110499999,-0.43362520635,-9.784399985,52.52709961,-12.66359997,-2.4290271405,-8.0969662665,-3.69568347945
1970-01-01 00:00:33.800,1.34237353515,-6.297161341,-1.897957027,2.6556584835,1.0205730498499999,0.11651912332499999,-9.979599477499999,50.898399354999995,-15.658699989999999,0.47791190444,2.1070539949565,-5.291930198999999
1970-01-01 00:00:33.900,1.56744843449,-0.37058840319999997,-2.7263222935,1.29919576645,3.1432672735000002,-0.4162160493,-7.5639998915,46.231899260000006,-23.96080017,3.4261703494999995,7.335983276,-7.815016269499999
1970-01-01 00:00:34.000,-3.3979577425,-15.1181528565,11.221590519,-1.059743613,1.0837194022999999,-1.0792144238499999,-3.208599925,40.82729912,-34.342999455,-5.8560605335,-8.1735818375,5.208130478
1970-01-01 00:00:34.100,-3.9270706175,-7.374380349999999,-1.8668503740000002,0.7150730453999999,0.06482619049999994,-0.21341476778000004,1.76899996415,36.642700195,-41.18109894,-2.2208460569999997,-2.0187737940000003,-6.9697310944
1970-01-01 00:00:34.200,-0.006580352499999886,-11.3762269005,-1.6609180565,-2.330458641,-3.003535986,0.72790089245,5.782799959,34.220998765000004,-43.82239914,0.43827438350000003,0.15905523300000013,-8.401560783499999
1970-01-01 00:00:34.300,3.0243781804999994,-8.190781594,2.7574290035,-2.8915981055,-0.21310932935000002,-0.7363000361500001,6.1487998965,36.368200305,-41.534898755,4.868025422,0.12574028999999998,1.5263065698049998
1970-01-01 00:00:34.400,-2.1577278380000005,-8.4445705415,-0.8566304444999999,-1.279572308,-2.793251753,-0.23975753785000004,2.4278,41.004198075,-35.61789894,-2.9815299509999997,1.3601491451499998,0.48036515700000015
1970-01-01 00:00:34.500,5.8073805575,-10.9488086675,3.4851460460000006,-1.6824260355,-0.2478512749,0.8386169077,-2.921899915,45.682899475,-27.895298959999998,5.053765297,-1.326980114,5.9669263365
1970-01-01 00:00:34.600,-0.2184946239,-15.516706945,4.9538908005,2.01472696645,0.70858281105,-0.375900127,-7.3443999295,50.727598189999995,-18.20849943,0.86625224355,-6.1018538475,7.497123718499999
1970-01-01 00:00:34.700,-1.5604194699,-18.01855278,-4.31725044565,3.562690258,0.96170264485,-0.41804859045,-9.839300158,52.923597335,-13.255300045,-0.8974312542,-8.604068756,-3.8606799244999994
1970-01-01 00:00:34.800,0.3309572934999999,-6.593871355499999,-1.839332819,2.641227245,1.237576544,-0.024433890360000054,-9.9063997255,51.044797900000006,-16.061299325,-0.17796456815,1.0273089410000003,-5.8065290455
1970-01-01 00:00:34.900,2.16714948395,0.6074778735999999,-3.044717193,0.74889875955,3.0090335605000003,-0.5373928621499999,-7.161399603,46.006198885,-24.149899485,3.4059137704999998,7.9725661275,-7.9318625925
1970-01-01 00:00:35.000,-3.5451163054999997,-15.39467287,10.026973962,-0.6196282506999999,1.038058579,-0.9552124254600001,-2.519299984,39.9000988,-34.16609955,-5.8128696069,-9.003024099,5.117389319000001
1970-01-01 00:00:35.100,-3.4565817715,-9.472885847,-2.5215864175,0.2384594977,-0.6487962005,-0.36284327880000006,2.482699871,35.294599535,-40.69309807,-0.38490772249999994,-3.9079458725000005,-6.805419206
1970-01-01 00:00:35.200,-0.6804590224999998,-9.405737164,-1.8106189965000001,-2.3747450115,-3.229854822,0.8922187984500001,6.24029994,32.933898924999994,-43.20019913,-1.610089898,1.5973613260000004,-9.750349997
1970-01-01 00:00:35.300,4.21899509455,-9.028718232500001,2.68429827695,-2.9756660459999997,-0.27220880999999997,-0.8758022414,6.2890999315,35.154298780000005,-40.821199415,5.7206287385,-1.0749180315000002,1.6060346961499998
1970-01-01 00:00:35.400,-2.2115662695,-7.889136076,-0.9296116234999999,-1.4157912135,-2.8499842885,0.04169034960000001,2.6168999074999997,40.11359787000001,-34.635799405,-2.752327204,1.946981907,-0.0016582009999999148
1970-01-01 00:00:35.500,5.347808957,-11.477921485,2.6591737269999998,-1.1696961820999998,-0.29687178149999993,0.5065450860299999,-2.6107999685,44.96919823,-26.632599835,5.038546681,-1.6780962945,5.6591084005
1970-01-01 00:00:35.600,0.7667500376,-16.05419445,4.184299052,2.52921313025,0.9460496902,-0.62382775545,-7.301699638500001,50.160297395,-16.890900135,1.3874256908999998,-6.9800443649999995,6.1788759230000005
1970-01-01 00:00:35.700,-3.50069952,-17.003397945,-4.10653242465,3.426929474,0.9332982449999999,-0.08231166750000002,-10.138199807,52.61859894,-11.92549992,-3.5578161474999996,-7.3572483065,-3.0112481120000005
1970-01-01 00:00:35.800,1.40832562725,-6.3221366405,-2.087139547,2.7113982439999997,1.2384165192,0.3286358267,-10.363899707,51.002098085,-14.859599589999998,0.02369284650000003,1.93303251252,-4.883983612
1970-01-01 00:00:35.900,1.60827589425,-0.6337989047,-2.9621648790000004,0.04222482450000009,2.7277384995,-0.7416449189,-7.6249995235,46.213598250000004,-23.22879982,3.450416863,7.0277822015,-8.074283600000001
1970-01-01 00:00:36.000,-4.85578471435,-18.234056236,11.1366453145,-0.12827795749999993,1.0560021996,-0.80066807209,-3.0743998885000003,40.23559952,-33.507300380000004,-6.85134744615,-7.823862551000001,3.7803454390000004
1970-01-01 00:00:36.100,-3.9221354720000003,-8.6694959571,0.41829538300000024,-0.1654632688,-1.0670737922,-0.25815933195,2.15939992655,35.599599835,-40.333200455,-1.57895374285,0.3398516180000002,-3.8903317453
1970-01-01 00:00:36.200,0.2436192035,-8.6277706625,-5.740531206,-2.3760430809999997,-2.539597452,0.5996993183999999,6.0938999655,32.848499294999996,-43.102600095,-0.09965622449999989,-0.1346669197,-10.85259199
1970-01-01 00:00:36.300,3.6551860570000003,-10.288090708,1.28135653595,-2.8087520599999998,-0.69575500505,-1.06440135835,6.3439998630000005,34.41009903,-41.351900099999995,4.8519134525,-1.3868398665,0.2008650005
1970-01-01 00:00:36.400,-2.1625134345,-7.8448688985,-1.5399308205,-1.1385429505,-3.2234410049999997,0.16469968855000006,2.799899995,38.881399155,-35.672800065000004,-3.25883925,2.4430351255,2.57891047
1970-01-01 00:00:36.500,4.7768217325,-11.018200395000001,2.7681966425,-1.4632082284999999,-0.21853059500000005,0.468061709755,-2.836499989,43.47470093,-28.023399355,3.5488285425000003,-1.0933070183,3.9877681732999997
1970-01-01 00:00:36.600,0.013758729676000002,-15.764513495,3.002693355,2.34947130105,0.6221479402999999,-0.39567630735000003,-8.0092997555,48.47669983,-17.994999885,0.963883877,-5.321931361999999,6.944758177000001
1970-01-01 00:00:36.700,-1.0695917604999998,-16.168003085,-2.6629123984000005,3.3869953155,1.08158136925,-0.14110571519499998,-11.461899755000001,51.288799285,-11.254499435,0.2836321595,-6.574962139,-2.211736441
1970-01-01 00:00:36.800,-1.0360921919500001,-8.5332539065,-1.8273687365,2.8123407360000003,0.473864764,0.3668137789,-12.486699585,50.51409912,-12.498899935,-2.113856554,-1.3427338604999997,-4.7920099495
1970-01-01 00:00:36.900,2.5802106112499996,-1.8176479453650003,-2.8639096024999997,2.0648164154999997,2.3532890675,-0.12613995369999997,-10.339499474,46.506399155,-19.82499981,3.2069760560000002,5.610315323,-7.435896635
1970-01-01 00:00:37.000,-7.1051879214,-13.766656829399999,10.1910311863,-1.2720893921999998,1.4955831023,-1.22085460995,-6.045099973499999,40.741899489999994,-30.57929897,-0.3826242685,4.42316770535,1.4247186185
1970-01-01 00:00:37.100,-1.6513467729,-11.118848801,5.09760952,0.8304468692,1.28323736795,-0.352229787035,-0.8356999159,36.20959854,-38.911899565,-0.13208401199999997,-2.57568717,3.3955895902
1970-01-01 00:00:37.200,-2.1003001335,-7.295417308499999,-8.7236328125,-1.36554904265,-2.1052087545,0.36482853445,4.0259999035,33.068099974999996,-42.75489998,-2.979569197,-1.57992792135,-9.5680541995
1970-01-01 00:00:37.300,4.904837847,-11.280364277,2.192274153,-2.758051753,-1.2469682991000002,0.18096351625,5.581499815,33.94650078,-41.90089989,6.831933737,-2.6949357985,-1.2147389055
1970-01-01 00:00:37.400,-3.0004501340000003,-7.498956680000001,1.6226328614999999,-1.855295837,-1.43549105525,-0.99789535995,3.1780999899999998,38.307998659999996,-36.905000689999994,-2.79720819,2.536886215,2.7762987615
1970-01-01 00:00:37.500,1.5927226171999997,-9.817601680500001,-0.03544378299999984,-1.7260253429999999,-1.3549355864,0.7923452556,-1.5188999844,42.669498445,-30.140099525000004,0.8105281590000002,0.24793863294999996,0.9542918204999999
1970-01-01 00:00:37.600,2.93928355,-13.609776974999999,4.692923545999999,-0.09498673674999997,-0.23181653024999999,-0.22883865984999996,-6.142699957,47.65929985,-20.88639927,4.090903758925,-4.911527157,7.529036522
1970-01-01 00:00:37.700,-1.39890387665,-16.986797335,-2.2057338955,3.9696673155000006,0.3235963436500001,-0.3901023417999999,-9.131699562,50.965499879999996,-13.450499535,0.45000585914999996,-6.9918889994999995,-1.8166677949999999
1970-01-01 00:00:37.800,-2.4342484174,-11.736495971,-1.7639589905,2.6600871085,1.20390364516,0.15866757555500005,-10.51639986,50.72759819,-13.340699675,-2.8351759312500002,-3.5732293129499997,-1.9175736904999998
1970-01-01 00:00:37.900,3.1069306135000003,-2.5431218744999997,-2.089532375,2.003808081,2.1523966195,-0.08567133544999997,-9.1072998045,47.360399244999996,-19.190599445,4.106281042,5.565729618000001,-6.586627245000001
1970-01-01 00:00:38.000,-1.63698981695,-3.68988206633,5.316552756,-1.37455904505,1.61714178305,-1.33775550115,-5.6668996815,42.12659836,-29.02379894,0.75900492065,7.0200550554999985,-3.1378612515000004
1970-01-01 00:00:38.100,-2.553889573,-14.9674048415,8.786893607,1.0230164525499998,1.0644777118,-0.21937052903499998,-1.3420000227,37.88709831,-37.472299574999994,-6.3259038924999995,-10.5815458295,5.5088796615
1970-01-01 00:00:38.200,-3.06505635355,-8.3596248625,-8.2567338945,-1.6539452970500002,-2.4719461205,0.43095274645,3.1292998790000004,34.6053009,-41.699598315,-3.5052615405,-0.3939099315000003,-10.7555370345
1970-01-01 00:00:38.300,4.9648079875,-11.9051899925,1.76022017,-2.70116663,-0.79471224555,0.19249323000000007,4.776299953500001,34.818798064999996,-41.55319786,6.3942546845,-3.1325793265,-2.7918211819
1970-01-01 00:00:38.400,-2.44621253,-7.321738243,2.2474586965,-1.7819177510000002,-2.097344041,-0.9620080737499999,3.23909986,38.942398075,-36.746398925,-1.39364957785,2.6918964389999998,2.2962047455
1970-01-01 00:00:38.500,1.1006984114999998,-9.6296157825,-0.769142985,-1.833610773,-0.9371923806,0.9009996952,-0.8600999414000001,43.187997815,-29.88389969,-0.36110943549999996,0.84550952915,0.8127920630000003
1970-01-01 00:00:38.600,3.17034053815,-13.60858059,4.619942427000001,0.18019995090000002,-0.4659237413,-0.26098448982945,-5.483900070000001,48.061899185,-20.25810051,4.2517116369,-4.9161653515,6.4739294055
1970-01-01 00:00:38.700,0.48783677850000007,-16.93041706,-2.6413772105,3.9100333455,0.4043045491,-0.5014292449,-8.503399849000001,51.648700715000004,-11.62049961,0.9197243081,-6.645969868,-0.7150924205
1970-01-01 00:00:38.800,-2.4438197015,-12.585200308000001,-1.17966152723,2.7846236225,1.31042014075,0.30282752215,-10.150399685,52.100099565,-10.406599524,-2.7680749295,-4.1252827642,-1.286876619
1970-01-01 00:00:38.900,3.2708390955,-3.5558840035,-1.54366976035,1.971051395,2.4206348655,-0.12423105535000001,-8.613199711,49.330698014999996,-15.975899219999999,3.658367932,4.790806055,-6.567821502500001
1970-01-01 00:00:39.000,-0.42442691345,-1.4717354177500002,2.4209382535,-1.3789876699999999,1.4448064564499998,-1.37662065,-4.9775998595,43.804100035000005,-25.888399125,1.3059093355,7.919041395000001,-4.5502598285
1970-01-01 00:00:39.100,-4.6918765305,-18.815810917,9.5564847005,1.0232455136,0.9119185806000001,-0.24082653874999999,-0.42699998615,39.039999005,-34.977399825,-6.192648886355,-9.259233713999999,8.103543997
1970-01-01 00:00:39.200,-4.232304931,-9.3975117225,-6.890880823,-1.9780761299499998,-2.7412533759999995,0.55892525615,4.288299918,35.294599535,-40.022100449999996,-4.614005089,-2.782788277,-10.025878667
1970-01-01 00:00:39.300,6.059972763,-12.126675607500001,0.10827523500000003,-2.7954660655,-0.6188646482,-0.30145311355000004,6.038999796,34.86759949,-40.418598175,7.8307213785,-3.137163639,-4.5318748357
1970-01-01 00:00:39.400,-2.8363921645,-7.2810602185,1.7638094128,-1.4931397435,-2.6700133085,-0.60618954887,4.1723998785,38.875299455000004,-35.666698455,-1.7944608704,3.1018257145,2.7068487405
1970-01-01 00:00:39.500,1.4633606075,-9.745816706500001,-0.1945663689999999,-1.921801865,-0.28152422605000005,0.9341381788500001,-0.3781999945000001,43.1208992,-29.042099,0.09910750400000001,0.68911743165,0.5595816375
1970-01-01 00:00:39.600,3.473182123,-13.89467287,5.2604711055,1.0101886762999999,-0.17035004495,-0.44141350685,-5.3191998005,47.677598955,-19.83109951,4.3156499862999995,-5.202161789,6.8457775115
1970-01-01 00:00:39.700,-0.1742274760000001,-16.773686885,-3.5247772934999997,3.8722370864999998,0.5690042487000001,-0.5758762508499999,-8.7351994515,51.105800630000005,-11.49849987,0.25739753199999993,-6.2009887695,-1.1011865140000006
1970-01-01 00:00:39.800,-2.643769801,-12.908380986000001,-0.31794631500000003,2.7243024115,1.2139062286,0.38910970089999997,-10.424900054999998,51.56329918,-10.6139998435,-3.5433250065,-4.7295188905,-0.470982075
1970-01-01 00:00:39.900,3.8729331495,-2.751297355,-1.9960626959999996,2.465379477,2.885337114,0.3400892018999999,-9.125599861,48.94639969,-16.073500154999998,3.5695168672000004,5.272498130500001,-7.0037732120000005
1970-01-01 00:00:40.000,-0.77273218325,-1.8405292930000001,3.8346477744999996,-0.5554892124999999,2.594344616,-0.9224556984,-5.721800089,43.62109947,-26.10189915,1.4027259349999999,8.0751037595,-5.323621273500001
1970-01-01 00:00:40.100,-5.2425249815,-15.118152320999998,9.841380596499999,0.4029301553500001,1.05226078635,-0.594048962,-1.0247999282,38.95459938,-35.35559845,-6.901558815,-8.6262030595,5.150757789999999
1970-01-01 00:00:40.200,-4.250101805,-11.6778719445,-4.992475032650001,-0.46722179675,-1.5816363094499999,0.11804622414999999,4.123599886999999,35.416599274999996,-40.156297685,-2.3864046334999998,-3.1133894919999996,-7.9724617005
1970-01-01 00:00:40.300,5.2998030185000005,-12.411571025,-0.8528918024999999,-2.862201214,-1.555446185265,0.46485476200000003,6.7465999125,34.849300385,-40.86389923,5.136494875,-3.645289421,-5.414217529699999
1970-01-01 00:00:40.400,-2.15653136395,-6.6753768925,2.556282282,-2.354510725,-1.28667335235,-1.33470124,5.6912999155,38.423898695000005,-36.77689934,-0.6405061479999998,3.0962951185000005,2.0294989350000003
1970-01-01 00:00:40.500,0.37642097499999994,-8.849106789,-1.45259284995,-1.4064758419999999,-2.293578744,0.5675534457,1.4883999975,42.614599229999996,-30.45119858,-0.7777374385000002,0.9942049981,-0.06241267918
1970-01-01 00:00:40.600,3.2110183836,-14.489587785000001,5.5452170375000005,-0.99743720145,-0.37941250205000004,0.19043163955000006,-3.5196999310000003,47.62269783,-21.703799245,5.035397291000001,-4.37644434,7.0515785215
1970-01-01 00:00:40.700,0.5582753420000002,-17.02627945,-3.1166512965,3.4082221985,0.8088381439,-0.53372778,-7.0698997975,51.727998729999996,-12.95029974,0.5920749905000001,-6.292008877000001,0.5651588439999999
1970-01-01 00:00:40.800,-1.9984556588,-13.719995973,-0.10707879099999995,2.9903264045,1.085475594,-0.053678199650000036,-9.198800087,52.29529953,-11.028799535000001,-3.568509102,-5.0015978815,-2.35912346825
1970-01-01 00:00:40.900,3.4169508220000004,-2.9261230830000002,-1.9948663115,2.5849528315,1.9714331330000001,0.038407020274999995,-8.460699558,49.477098465,-15.920999525,2.9573047981499996,4.5831389425,-6.8612759115
1970-01-01 00:00:41.000,-0.28429725744999995,-0.7775178553500002,-0.12517452250000005,-0.86938835665,2.5638022425,-1.0767710209499999,-5.166699886,44.249399185,-25.436999319999998,1.50183272345,7.7253940105000005,-6.62466073
1970-01-01 00:00:41.100,-8.7486083485,-19.322043659,9.552895786,0.73790346065,1.01950406265,-0.5865660906,-0.59779998645,39.619499205,-34.629699705,-3.800183594000001,-4.319129944,9.690175059000001
1970-01-01 00:00:41.200,-3.6288651229999997,-11.042128801,-5.8531430945,-0.829988716995,-1.7946692105,0.26991813631,4.5749999285,35.76429939,-39.875699999999995,-2.6211392875,-1.2192759514999998,-7.9932098410000005
1970-01-01 00:00:41.300,6.3771715165,-12.702448369999999,-2.3588743804999996,-3.0853894944999998,-1.879348004975,0.288396257895,7.5151998995,34.751699445,-40.857797625,5.4835839275,-3.7091612814999997,-5.6147820951
1970-01-01 00:00:41.400,-1.517348662,-6.500551462,1.9851455095000001,-2.234250188,-1.4483188687000002,-1.3027845025,6.319599867000001,38.283599855,-36.6731987,0.47701013049999985,2.6277890205,1.8421139416999999
1970-01-01 00:00:41.500,-0.5083253380000001,-8.774929046499999,-1.291077316,-1.432207763,-1.860335368895,0.7517239005999999,1.78729990135,42.498699189999996,-30.231598855,-2.03367030605,1.2856993675,0.6509128811
1970-01-01 00:00:41.600,4.23454833055,-13.973785405,3.626472235,-0.6078693941,-0.24662958085000003,0.04031592610000001,-3.4586999415,47.36039925,-21.600099565,5.7786118985,-4.2460932735,5.408445835
1970-01-01 00:00:41.700,-0.4782654044999999,-17.112421035,-3.226721287,3.8098543879999998,0.28831990804999996,-0.66162392495,-7.301699877,51.618200305,-12.803899765,-1.0099937915000001,-6.839840412000001,2.9676296709999996
1970-01-01 00:00:41.800,-3.8371902705,-13.105789182,1.5122639536,3.006132126,1.0353097321,0.2204395011,-9.4549999235,52.386798855,-10.74819946,-4.6427862645,-5.0532217025,-2.3830513955
1970-01-01 00:00:41.900,3.4156047105000003,-3.6744782925,-2.079961121,2.3485550285,2.0519886015,-0.07543963195,-8.710799693999999,49.769899365,-15.68309927,3.229804993,3.989865303,-6.814719676999999
1970-01-01 00:00:42.000,-0.3107678294000001,-0.36939200015,-0.5011468530000002,-1.4383162557,2.0126653312,-1.17053604115,-5.6058998110000005,44.54829788,-25.174699785,1.7688747645,7.673475504,-6.2249059675
1970-01-01 00:00:42.100,-10.385000227999999,-16.983208657,9.5038428315,0.9265789090000001,1.267049909,-0.2063900195,-1.15899998038,39.845199585,-34.56259918,-3.394447565,-5.436481475500001,9.345268725
1970-01-01 00:00:42.200,-3.8298622370000004,-12.2967152575,-3.9868911505,-1.11678151805,-2.0552719235,0.40995486825,3.8734998705,36.16079903,-39.900098799999995,-1.7144550085,-1.42308712,-6.08738899225
1970-01-01 00:00:42.300,5.303392172000001,-11.98056412,-2.9023442269999995,-2.8980120420000004,-1.36806881435,0.18661384285,6.899099827000001,35.074998855000004,-41.18109894,3.63404727,-2.55119037611,-5.65664338975
1970-01-01 00:00:42.400,-0.8195417519999999,-6.553193569499999,2.2449163199999997,-2.032059729,-1.826967776,-1.23673665535,6.368399858,38.271398545,-37.5333004,1.2978379725,2.0577964784000002,1.6821865442
1970-01-01 00:00:42.500,-0.8530412914999999,-8.639734745,-1.7938692870000004,-1.591104388,-1.3992983402499999,0.77745583635,2.2996999025,42.29129982,-31.463798519999997,-2.17377617935,1.2835111614999999,0.7198184728500001
1970-01-01 00:00:42.600,4.488337039999999,-13.488939760000001,3.3689447643,-0.25930465755000004,-0.4014793483000001,-0.02473931015,-2.7205999495,46.847997664999994,-23.247099875,5.658207178,-2.9878911974999998,5.781705141
1970-01-01 00:00:42.700,-0.025872409500000026,-15.491732594999998,-1.4048860075,3.8707863089999996,0.5170822292,-0.4925719649,-6.3927998545,51.01429939,-14.255699635,0.6816564201800001,-6.3968553539999995,5.955124140000001
1970-01-01 00:00:42.800,-3.7209887504999997,-14.635849,0.23629123714999994,2.7660690545,1.1688562334500001,0.14858859779999994,-8.5277996065,52.30139923,-11.516799930000001,-3.963228583,-6.655223846,-4.6868604425000004
1970-01-01 00:00:42.900,2.8147072194500002,-3.8455650805,-2.740679264,2.1220070125,2.4159009455,-0.04665344955000006,-7.832399606499999,50.129798890000004,-15.817299365,2.61060946435,3.3410325050000003,-6.754267454
1970-01-01 00:00:43.000,0.15134602785000006,-0.396759902115,-1.34252309805,-1.36730518925,1.9111119805,-1.3215680718,-4.5872000455,45.054597855,-24.747699734999998,2.4183567165,7.3838281629999996,-7.018315791999999
1970-01-01 00:00:43.100,-7.83051201545,-15.8208942395,12.172138930500001,1.108840466,1.582552552,0.1789782494,0.012199998000000045,40.235599515000004,-33.96479988,-1.448592663,-5.76660347205,10.321249486
1970-01-01 00:00:43.200,-3.8324047329999997,-10.976325991,-2.4593729975,0.35047364224999994,-0.6403970121,-0.24808035045,5.178900003500001,36.48409843,-39.31450081,-2.1482849715,0.8073463439999999,-4.580736637999999
1970-01-01 00:00:43.300,4.3075294495,-12.409178258,-3.1345975399999997,-2.4959982634999998,-2.217070162,0.635510236,8.729099750500001,35.02009964,-40.80899811,3.1194723250500003,-2.3988165856999997,-6.6388682125
1970-01-01 00:00:43.400,-0.21490538100000012,-6.8464636805,2.1767208575,-2.6878806355,-0.22143211964999993,-1.1868762373,8.527799845,37.917598725,-37.594299315,1.7249369625,1.70540952685,2.09826496235
1970-01-01 00:00:43.500,-1.3173984212999998,-8.323732853,-1.5616158845,-1.293850839,-2.3946739435,0.09376503524999999,4.8738998175,42.053398130000005,-32.031098365,-2.3664357065,1.4474878315000002,0.730007112
1970-01-01 00:00:43.600,4.4128134249999995,-12.928719995,3.268446207,-1.27651807685,-0.46470206995,0.5522822738,0.10370004180000003,46.59789848,-24.61349964,5.31535244,-1.790107727,5.3019986150000005
1970-01-01 00:00:43.700,0.04606181400000009,-15.025879385,3.1488049625,2.00564067045,0.8696938008999999,-0.54846447705,-3.598999858,51.09969902,-15.969799994999999,1.7926307320000001,-6.825340271,5.6710569855
1970-01-01 00:00:43.800,-3.5152060985,-16.06615925,-2.912962556,3.451363325,0.64787986885,-0.20959696545499998,-5.8132998945,52.716197965,-12.694099905,-3.1264578105,-7.1639237405000005,-4.6767827275
1970-01-01 00:00:43.900,1.4848959966499997,-5.3813085555,-2.543271303,2.4420145755,1.02286374575,0.12346750123999994,-5.5753998755000005,50.800798415,-16.280899525000002,1.2091279327,2.8409142493,-5.467331648
1970-01-01 00:00:44.000,0.58459648495,-1.0767701865000001,-2.102692902,0.3634541330500001,2.596482515,-0.5206709206,-3.2391000985000002,46.23799896,-24.399998665,2.2498849628,7.649158001,-7.4283201695
1970-01-01 00:00:44.100,-1.5269199013499999,-14.744722367,14.366357805,-0.4854708314999999,1.1328925789,-0.765086202655,0.53069999835,41.242099765,-33.61709976,-2.9090350864450003,-9.145332099,5.13508486795
1970-01-01 00:00:44.200,-4.3399820325,-8.5223367215,-1.5340986249999995,0.3749838695,-0.5210527774999999,-0.3358896273255,4.6970000265,37.551599505,-39.16809845,-1.9472759368,-2.5085346700000004,-5.22505807825
1970-01-01 00:00:44.300,0.36326038849999986,-9.8452689665,-2.2272692325,-2.2222622635000002,-2.8586887715,0.8456417023,7.667699814,35.788698195,-41.120100019999995,-0.5805208679999998,1.5612192154999998,-8.98016119
1970-01-01 00:00:44.400,3.3354451358999997,-8.3859457985,2.11450746635,-2.7905794385,0.2001288235,-0.8368607612000001,7.643299817999999,37.844400405,-38.753299715,4.917298198,-0.6259980199999997,1.25420975705
1970-01-01 00:00:44.500,-2.2163519860000003,-8.2398343085,-0.5069793459999999,-1.3573789595,-2.6173278095,-0.10957074164999997,4.611599803000001,41.900897979999996,-33.37919903,-3.060061693,1.4611179829999998,0.8488038778
1970-01-01 00:00:44.600,4.671388149,-10.477123265,2.474776864,-1.3357702195499999,-0.41094751665,0.62168979645,0.12809997800000006,46.335599895,-26.388599395,4.3398328425,-1.1919150353,5.348394394
1970-01-01 00:00:44.700,0.6912266015499999,-15.241383075,4.591228485,1.83727588855,0.4566083178,-0.4208737686,-3.611199975,51.06919861,-17.50699949,1.3293516635,-5.8634552955,6.281350136
1970-01-01 00:00:44.800,-1.5293127595999998,-17.473886489999998,-3.1585257650000003,3.445178628,0.8099834768,-0.40934401749999993,-6.0694999695,53.405498505,-12.419599535,-1.4740932585,-7.911429882,-4.2989952565
1970-01-01 00:00:44.900,0.73788666705,-6.7316081525,-1.7195422049999998,2.575790167,1.31309252985,0.12194038555,-6.7100000385,52.264799120000006,-14.639999385,-1.15100850905,0.6552152634999999,-4.2310551405
1970-01-01 00:00:45.000,2.09057929725,-0.3861417771000001,-2.943022251,0.5485408605,2.8989284040000003,-0.5010474696499999,-4.6664999725000005,48.14119911,-22.06369972,2.9914000035,7.1120762825,-7.646598339
1970-01-01 00:00:45.100,-5.9787663235,-19.7651630645,9.603144883,-0.6864396037,0.9726215304000001,-0.87488601632,-0.57339996075,42.87689972,-31.561398505,-4.1378152371,-2.3301029189999993,5.164203882
1970-01-01 00:00:45.200,-1.9350457195,-10.9954686775,-2.063211441,0.5448757799100001,-0.3795651795,-0.26350424440000003,4.166299939,38.905797955,-38.1310997,0.9683261813999999,-2.4905686375,3.085393906
1970-01-01 00:00:45.300,-0.8506485224999998,-7.446164848,-6.3593745235000005,-2.2539499999999997,-2.6616142395,0.69949646285,8.2288999555,36.31329918,-40.93709946,-0.9645782709999998,1.8455326559,-14.863062379999999
1970-01-01 00:00:45.400,3.23135731763,-10.2376916395,2.6256741285,-2.7378937005,-0.21448373799999998,-0.9476531743,9.0036001205,37.594299315,-39.424299239999996,5.300916194999999,-2.4451556205000005,0.7092540265285
1970-01-01 00:00:45.500,-1.7519948480000003,-7.960920810499999,-0.20907282849999986,-1.3134742975,-2.7279675005,-0.01328590510000005,6.3134999275,41.650798800000004,-34.648000714999995,-2.6722826955,1.953742981,1.777838468425
1970-01-01 00:00:45.600,3.667000651,-9.9864454265,3.1882866625,-1.46313184475,-0.27694287895,0.64146599175,1.5188999327,45.7439003,-28.188098905,2.22126620652,-0.3423361774999999,3.10553520925
1970-01-01 00:00:45.700,1.2228819132,-15.201901435,3.1211380360000005,1.8648403362,0.49196112155000005,-0.48661617934999996,-2.854799986,50.49579811,-19.0685997,2.5819505005500005,-5.0661725995,7.4050962925
1970-01-01 00:00:45.800,-2.4007487895,-16.93998814,-3.6360435783000002,3.536500096,0.71698194745,-0.3144336268,-5.679099798,53.283498765000004,-12.773399829999999,-1.39565212265,-6.8470654485,-2.0599141120000004
1970-01-01 00:00:45.900,-1.6082759798000001,-9.111420156,-1.19895371785,2.681772113,1.09036237015,0.19989976285,-6.4903998375,52.06349754,-13.749399665,-1.8656140564500001,-2.5477068425000002,-4.425118685
1970-01-01 00:00:46.000,2.8172496555,-1.5064313712,-2.3887847065,0.6783458887,2.908854723,-0.6226824224,-4.7396998405,48.250999449999995,-20.422799115,3.6832689050000003,5.817637443500001,-7.0239930155
1970-01-01 00:00:46.100,-5.1575794817,-9.492028711,8.96156959125,-0.77424892775,1.212760866,-0.8151756688805,-1.28100002545,41.43120003,-30.00589943,-0.47825151679999994,5.1340835095,0.14289975150000034
1970-01-01 00:00:46.200,-1.8584753723,-12.57921791,9.36625576,1.4962704180000002,1.259567022,-0.5995466113,3.379399896,36.984298705,-37.42349815,-2.989498854,-7.7297563568,6.192201853
1970-01-01 00:00:46.300,-0.9451649783,-7.6006517425,-11.412118915,-1.3089693637500002,-2.18332088,0.46485476195,7.7591998575000005,34.135599135,-41.20549965,-2.5185053945,-0.5670561789999999,-10.4031884655
1970-01-01 00:00:46.400,4.839035034,-11.7855491635,1.8343976735000003,-2.8640336994999998,-1.5388005971999998,0.4162160605,9.3269000055,34.586997984999996,-40.339300155000004,6.3608999255,-2.8549661635000003,-1.60286033155
1970-01-01 00:00:46.500,-2.515604377,-7.496563673,2.0439191461,-1.9582999344999998,-2.011214554,-1.1493854522,7.35049963,38.521499635,-35.550800325,-2.216859043,2.1899676325,2.9623522755
1970-01-01 00:00:46.600,1.86191512472,-9.696614743000001,0.27816569850000006,-1.4947432875,-1.4875658004999999,0.6759788394,2.4948999290000002,42.700000759999995,-29.29829979,0.6288558245000002,0.24500036240000006,1.6285056475
1970-01-01 00:00:46.700,2.93569433705,-13.807483675,5.0832525495,-0.36963893475,-0.23456534500249998,-0.07429429885,-2.7388998865,47.598299025,-20.672899245,3.9893667695,-3.807068825,6.370954751999999
1970-01-01 00:00:46.800,-0.33933214843000004,-16.35120392,-0.8433203699999998,3.798630118,0.48661620402,-0.1935622245,-6.1061000825,51.081399915000006,-13.505399705,1.1605907977999999,-6.338640213,-0.5427327155000006
1970-01-01 00:00:46.900,-1.756630898,-13.0891885745,-1.2647563668000001,2.6894077065,1.34959068875,-0.029931515450000043,-7.5883998870000005,51.026498790000005,-13.462699895,-2.3469386099999996,-4.831232071,-1.7342512010499997
1970-01-01 00:00:47.000,2.8112674955,-2.7346971035000003,-2.3074287774999998,2.259753108,2.069397807,-0.007406525349999998,-5.886499882,47.738599775,-19.263799665,2.98508983865,5.001372099,-6.4020678994999995
1970-01-01 00:00:47.100,-1.55084812615,-2.2066311838500003,3.2014473674999997,-1.2692641986,2.07550627,-1.2232980134,-1.7506999670999999,41.88259888,-28.468699455,0.8117074368999999,7.281651735499999,-4.853653431
1970-01-01 00:00:47.200,-4.6823050975,-15.11695572495,8.733054878,0.6363501400999999,1.4470207695,-0.4721085727,3.196399927,37.228298185,-36.477998735,-4.8227677917000005,-8.652679922,6.3641133320000005
1970-01-01 00:00:47.300,-3.9544385675,-12.2235848915,-5.7716376785,-0.4096494466,-1.3963968755000002,0.11002887785000001,7.753099918,33.95870018,-40.095300675,-2.3740790488,-2.7307538984,-6.9041842214499995
1970-01-01 00:00:47.400,5.097609520000001,-12.206984996,-3.2315067650000002,-2.6731438635,-1.4004437402,0.43133452535,10.430999755,33.635398865,-40.02820015,3.9725099805,-2.2450740335,-5.2685290592000005
1970-01-01 00:00:47.500,-1.64656102635,-6.596264124000001,2.3144577145,-2.321830392,-1.05195529755,-1.311259985,9.820999623,37.185598375,-36.10589981,0.8468620774999995,2.4956178665,2.2056970299500005
1970-01-01 00:00:47.600,0.164506614,-8.3847494125,-1.793869257,-1.2685770392,-1.9649428725,0.60405158995,6.2158999445,41.21769905,-30.603698729999998,-0.8446676729999999,1.373787403,-0.12349474449999986
1970-01-01 00:00:47.700,3.0553354025,-13.251900675,3.6874892709999996,-1.01896958785,-0.19516569379999998,0.1873010248,1.8787999747999997,45.15219879,-23.314199445,4.2912130355,-2.4471802714999997,5.6851780414999995
1970-01-01 00:00:47.800,0.7175476699500001,-15.44611931,1.428664565,2.999107242,1.2558255790000001,-0.2571666911,-1.3175999522500002,49.239198685000005,-15.231699944999999,1.7363921402000002,-6.605324745000001,6.3168327810000005
1970-01-01 00:00:47.900,-3.0770204065,-15.47483301,-2.345713973,3.094246745,1.10746610165,-0.15652959795,-3.263499856,50.684898375,-12.66359997,-2.330664873,-7.3643188475,-4.7812547685
1970-01-01 00:00:48.000,1.0215857328,-5.8841005565,-1.937438607,2.6291629075,1.4382398876,0.15065020325,-2.415599942,48.519399645,-16.6468997,1.2470605669,2.14762187015,-4.6932327745
1970-01-01 00:00:48.100,0.53913283325,-0.6912266314,-1.8680467605,-0.33665320284999994,2.2931969165,-0.6359683573500001,0.7929999678999999,43.21850014,-24.668398855,2.95386576655,6.9924628735,-7.373879194000001
1970-01-01 00:00:48.200,-1.9218852966500002,-15.3767268675,11.744870665,-0.12514734299999997,1.7008277775000002,-0.5974849983,5.337499856500001,37.75899887,-33.568299295,-3.4615074397,-10.124334575,5.801662445
1970-01-01 00:00:48.300,-4.396213293000001,-7.768298626,-0.23045873650000015,0.2418191582,-1.07035712895,-0.1335464865,9.7782998065,33.635398865,-37.78339958,-2.9288745520000004,-0.6712408065000006,-6.901985645
1970-01-01 00:00:48.400,3.0457640885,-12.046515943,-1.6981562375000003,-2.5245553255,-1.4509912582500002,0.5245650858,13.596899985,31.695599555,-38.887498855000004,3.3459777235,0.035540580500000196,-6.2132251265
1970-01-01 00:00:48.500,0.2027918099999999,-7.519295454,1.6296617389999999,-2.602896571,-0.13347011800000008,-1.4328185919999998,14.536299705000001,33.708601,-36.362098695,2.645192623,0.5691416265,0.22642821075000003
1970-01-01 00:00:48.600,-1.7458631992,-8.4840519425,-0.31435704249999996,-1.40189445,-1.70716542,0.5282301754,12.322000025,37.81999969500001,-31.317399025,-2.4382895899335,1.63742351555,1.5599117279999999
1970-01-01 00:00:48.700,3.6827036140000002,-10.536943914,2.1336500942,-1.1300674473949999,-0.39636352660000007,0.38315394145,8.6680998805,42.63290024,-25.48579979,3.859355092,-1.41180324555,5.28977489495
1970-01-01 00:00:48.800,1.32083806385,-14.377125265,3.8324046135000005,2.2705956699,1.165420234,-0.30939414349999994,5.6363999840000005,47.15299797,-17.54969978,1.9557964804,-5.0676984785,5.867129803
1970-01-01 00:00:48.900,-2.16251343465,-16.914862630000002,-3.3690943719999997,3.374014854,1.1187667942150001,-0.23013670742499995,3.8734999895,49.373397825,-12.675799845,-2.3497623502000002,-6.6896791455,-3.047472
1970-01-01 00:00:49.000,0.26261228319999996,-8.281708481,-1.9087247255,2.6514588595,1.2330715058,-0.04665345820849995,3.9954999685,48.287599560000004,-14.85959959,-0.9592916965,-1.8893322945,-4.6321945190000005
1970-01-01 00:00:49.100,2.0415264071,-0.9079266488999999,-2.725125909,0.25357794775,2.8796103000000004,-0.80020993965,6.2646999359999995,43.968799595,-21.234100339999998,3.2668457035,6.0809731485,-7.287662505999999
1970-01-01 00:00:49.200,-7.6844001430999995,-16.15603935735,7.968099352915,-0.4882960315,1.17893523,-0.8914551884999999,10.0528001765,38.7166996,-29.371500015,-2.3040335775,1.8715486530000005,2.7039375285
1970-01-01 00:00:49.300,-0.994217798,-12.4785704605,7.368398189500001,0.38781166075,-0.5057051776999999,-0.42140825465000004,13.88359976,35.788698195,-34.220998765,-0.18551039699999994,-3.0857634545500003,5.9972951414999995
1970-01-01 00:00:49.400,-2.022533417,-6.87278509,-10.565807345,-2.277544022,-1.7254908080000002,0.4607315361,17.201999665,33.690298080000005,-35.373899460000004,-1.444875419,1.24672198285,-12.333208559
1970-01-01 00:00:49.500,4.8306601045,-11.339137792,2.7154051065,-2.758051753,-1.3530266284999999,0.3914767056999999,17.98279953,35.074998855000004,-33.336500165000004,5.999289512999999,-2.4743299486100003,-1.6867911218
1970-01-01 00:00:49.600,-2.792274475,-7.861618996,0.34651064850000013,-1.6805171970000001,-1.6689110994999998,-1.132205367,15.762399675000001,39.06439972,-28.883499145000002,-2.706310153,2.2909750939999998,2.967100024
1970-01-01 00:00:49.700,1.89795708665,-9.496813776,1.6763218341000001,-1.78298682,-1.2662864103,0.6799493581,12.565999510000001,43.047698975,-24.277999880000003,0.536173344,-0.0005307197500000194,1.5220129490999998
1970-01-01 00:00:49.800,2.26301199215,-13.688889505,3.67791798695,-0.4433224089399999,-0.428280293925,-0.11461021005000008,8.8022994995,47.177398679999996,-17.305699349999998,3.8430665139999998,-3.3065581325,6.5595493314999995
1970-01-01 00:00:49.900,0.11904293250000009,-16.08051634,-2.1086750030000005,3.6103364230000006,0.5130353421,-0.39483639595,6.3134999275000006,49.989500050000004,-11.254499435,1.5740632415000002,-7.307785987999999,-0.7370171545000002
1970-01-01 00:00:50.000,-3.5175989864999995,-12.96580887,-1.146311581,2.8348658085,1.3701304195000001,-0.10323318840000001,4.9531998635,50.020000455,-11.864500045,-4.219309688,-4.409337997500001,-1.3512462975
1970-01-01 00:00:50.100,4.467998028,-3.5487055775000003,-1.759173334,2.55815196,1.8720178308000002,0.03756710884999995,6.069499731,47.116399765,-17.513099670000003,3.868547201,4.23341465,-6.666091442
1970-01-01 00:00:50.200,-1.185793221,-0.8470592203,2.125275135,-1.094409240615,2.2924333810000004,-1.04767942415,9.278099538500001,41.83990097,-26.18120003,0.7823343574999999,8.178018093,-5.967136383
1970-01-01 00:00:50.300,-6.6538414955,-18.395721557,9.5014500615,0.5862606316000001,0.8230403363499998,-0.31947311759999997,13.450499535,37.972499850000005,-33.275499339999996,-7.7106002565,-9.0750007635,6.1209766885
1970-01-01 00:00:50.400,-3.7654055355000002,-10.849506856,-5.934499025,-0.735078305,-2.034121394,0.22502085940500005,17.622900010000002,34.861499789999996,-35.983900070000004,-1.4199436903000002,-2.0655980109999996,-6.5497915725
1970-01-01 00:00:50.500,6.2826550005,-12.200852875,-1.383201003,-2.8408215045,-1.6753249169,0.6149704530500001,19.41629982,34.38569832,-35.58739853,5.3496696945,-4.0390796665,-6.1562907687
1970-01-01 00:00:50.600,-1.9852950573500001,-7.273881674,2.836392164,-2.0865778329999998,-1.26239222295,-1.24467763285,17.988900185,37.86879921,-31.76270008,-0.2995359894999998,2.5505018235000003,2.1529631615
1970-01-01 00:00:50.700,-0.04845464249999998,-8.521140814,-0.8793623449999999,-1.36035686755,-2.060693264,0.60848022995,13.57859993,41.91919899,-27.565898895,-1.3688901215999998,1.4066066745,0.07326585100000005
1970-01-01 00:00:50.800,3.323481083,-13.918749805000001,3.2839994435,-1.0442433657499999,-0.3225273341,0.19592925904999997,9.107299806,46.177000045,-21.539099694999997,4.3793269395,-3.0574641225,5.276194095499999
1970-01-01 00:00:50.900,0.67686970535,-15.585052009999998,-0.3107678890000005,3.2494783995,0.6920899451,-0.44049721955,6.24029994,49.89189911,-14.658299920000001,0.775502622325,-5.010580063,6.7867059705
1970-01-01 00:00:51.000,-3.4217364784999997,-15.247514249999998,-0.53569315375,2.9887229205,1.2428450881,-0.006337538350000005,4.2638998035,51.014297485,-13.04789972,-3.189127803,-7.1544857025,-5.9605325460000005
1970-01-01 00:00:51.100,2.1515961217,-4.8964630365,-2.6376383305,2.6607743505,1.7929131092,0.10804361290499999,5.0446999075,48.397399899999996,-17.15319967,1.9847854078,2.48979949945,-6.110858201999999
1970-01-01 00:00:51.200,-0.05084750060000001,0.1728814356,-1.7123636604999999,-0.7933378370499999,2.2232549195,-0.95070737625,8.235000133500002,43.35269928,-24.90019989,2.1774796245,8.1217799185,-7.4275231360000005
1970-01-01 00:00:51.300,-3.7259240302000003,-13.3105249395,12.416356086499999,0.26396235825000003,1.4649644194000002,-0.6542174071,12.389099595000001,38.588598250000004,-32.55569935,-1.26476025585,-5.9480566965,7.076304435499999
1970-01-01 00:00:51.400,-3.4983067510000003,-8.809625149,-2.5803604124999997,-0.45866993055000005,-1.51856631035,-0.05451811849999999,16.915299415,35.197000505,-35.935100555,-3.4722340105000002,-1.3450279235000002,-6.0258336085
1970-01-01 00:00:51.500,3.2624641654999995,-12.540933132,-2.354088783,-2.667264581,-1.452365741,0.61817741395,19.812799455,34.13559914,-35.514198305,1.7870941759,-1.6384930610000001,-3.8354558945
1970-01-01 00:00:51.600,1.2658032179999998,-6.618996143,1.4334503559,-2.1936288475000003,-1.0953254700000001,-1.3218734859999999,19.61759949,37.020900725000004,-31.73219967,3.499410450499999,1.3685817721,1.35971355415
1970-01-01 00:00:51.700,-1.939831376,-8.6204428675,-1.43479621405,-1.4338112475,-2.0958933235,0.44759833440999997,16.5005002,40.61379814,-26.461799624999998,-2.4998737575,1.2005643845,0.38570427900000004
1970-01-01 00:00:51.800,4.586442828,-11.874233245,3.2325538395000004,-1.0430217289100001,-0.1911188661999999,0.30656898025,12.49889946,44.52389908,-21.05719948,4.6727140545,-1.33963775645,5.709719539
1970-01-01 00:00:51.900,0.55722858761,-15.86635828,4.5121158359999995,3.070041835,1.006218165,-0.40086852014999996,9.680699826,48.427898405,-14.15199995,1.6907994149999999,-6.3602495195,6.497151136499999
1970-01-01 00:00:52.000,-3.266202807,-16.958084104999998,-4.65000209235,3.0792046785,1.20680505594,-0.09613208474999999,7.460299968999999,50.05049896,-11.370399475,-2.4353305697499996,-7.5661182405,-3.7655130624999997
1970-01-01 00:00:52.100,1.0802099111,-6.516254186499999,-2.136192441,2.5959481005000002,1.41594399515,0.2376195863,7.673799992,48.671899795,-15.091399195,-0.006713747999999908,1.6072373389999999,-4.7261579035
1970-01-01 00:00:52.200,1.9446171094,-0.4016951173500001,-2.617448926,-0.5489226281,2.5540287495,-0.8028823732999999,10.266299727,44.19449806,-22.11249924,3.751681566,7.559587716999999,-7.558248997
1970-01-01 00:00:52.300,-4.6320561765,-17.8654119945,9.235846759,0.26052635915,1.3370682895000001,-0.629783524375,14.34109974,39.540199279999996,-29.89609909,-6.519709172,-7.3122572905,4.8974854935
1970-01-01 00:00:52.400,-3.692274809,-10.6663057737,-1.7890837185000001,-0.06780406829999996,-1.2093248019365,-0.18974441290000005,18.65379906,36.057100295,-33.78789902,-1.2702132462400002,-1.0385363105,-3.0179264545999995
1970-01-01 00:00:52.500,0.8804091214999998,-9.597312451499999,-3.2554352284999997,-2.8751053810000005,-2.1828627590000003,0.8194515705,22.039299015,34.281999584999994,-34.050197600000004,1.580067277,0.5889372825000002,-11.995093345
1970-01-01 00:00:52.600,2.677119851,-9.4512007225,0.8648558557,-2.640921712,-0.7352310123,-0.47982050475,22.771299364999997,36.050998684999996,-31.26250076,4.7810704710000005,-1.772743702,0.6741892098950001
1970-01-01 00:00:52.700,-2.5971099140000002,-7.358827114,-0.7535895109999999,-1.605230212,-1.921954513,-0.740957744325,20.227599145,39.954999924999996,-26.44960022,-3.1842387915000003,2.565659523,1.9821286205
1970-01-01 00:00:52.800,2.6747271123000003,-10.4184989945,1.8116658849,-1.695024729,-1.03912751375,0.8355626762000001,16.329699515,43.712598799999995,-21.88070011,2.032577916955,-0.6350493433000001,2.34726208425
1970-01-01 00:00:52.900,2.0104197265,-14.49691582,2.5932215152499998,-0.08360972259999999,-0.4710396228,-0.1741678305,12.736799715,47.5189991,-15.786799905,3.55775302655,-4.620954037,6.955357075
1970-01-01 00:00:53.000,-3.189632535,-16.72463417,-3.073431134,3.9346961975,0.5168531612500001,-0.35642936824999993,10.229699614000001,50.050498965,-11.114199635,-0.46281719200000004,-7.0739593505,-1.6599900719999998
1970-01-01 00:00:53.100,-0.4962116182,-10.70578766,-2.0751754044999995,2.7023118729999998,1.5714809001,0.21265120059999998,9.7843995105,49.043998715,-12.675799845,-0.46225965050000006,-3.1298356057,-2.7835261823
1970-01-01 00:00:53.200,2.26525533185,-1.7507984789,-2.765803933,2.0857380035,2.2939605115,-0.24945475530000003,11.858399395,45.47550011,-18.586699485,3.694878578,5.7004079815,-7.035130978
1970-01-01 00:00:53.300,-2.0715861916500002,-5.81934461245,6.6538416730000005,-1.5361281932000002,1.6946429907500002,-1.5936241745,15.256099225,40.36369896,-26.120199205,0.950114727,6.495465040500001,-2.854967356
1970-01-01 00:00:53.400,-1.403540015,-11.844172953500001,9.228668449,1.272242129,1.716862559,-0.29778802395000004,18.757499695,36.996498110000005,-31.048999790000003,-4.006941557,-10.6322014345,5.893090247
1970-01-01 00:00:53.500,-2.12901392575,-9.110223293,-7.8629648665,-1.2643010988999999,-1.7160226705000001,0.23441263284999997,21.923399925,34.532098770000005,-31.604099275,-3.0746897460000002,-2.4934926030000004,-13.5112640835
1970-01-01 00:00:53.600,4.440330982,-12.460623739999999,0.8503493669,-2.585105538,-1.2578108611,0.1638597846,22.954298975,35.28849983,-29.578899385,6.579481363,-3.68991518,-3.65029925085
1970-01-01 00:00:53.700,-2.5251756905000002,-6.801149606999999,2.271386981,-1.708539724,-1.2882768811,-0.77776125085,21.39269924,38.728899005,-25.162500385,-1.8127699495999998,3.3347718715,2.167835951
1970-01-01 00:00:53.800,1.2789637593,-8.662466526,-1.6694424748,-1.5769022105000001,-1.7461069225,0.6420004815,18.751399995,41.705698014999996,-21.166999815,0.76540405285,1.04126238815,-1.0980747046000001
1970-01-01 00:00:53.900,1.8403797446999999,-14.34841156,4.6402813195,-0.68101833785,-0.2776300907,0.04611897469999998,15.67700005,44.92650032,-15.695300105,2.970061421,-4.308265209,7.1570949555
1970-01-01 00:00:54.000,1.4190933705000002,-16.661223890000002,-3.947260023,3.6669924255,1.3193537595,-0.28977066279999997,13.81039953,47.433599475,-10.113800047,1.0155874493,-6.055173397000001,0.8018591405
1970-01-01 00:00:54.100,-1.1654542087,-13.740335465,-0.004336952999999921,2.852885842,1.27010416995,0.0994917489399999,13.121099950000001,47.854499815,-10.046699522499999,-2.2685762047,-5.3900289535,-3.268399954
1970-01-01 00:00:54.200,2.6938696505,-3.736691594,-2.7191438675,2.5113457439999998,1.9265358445,-0.007330164350000015,14.530200005000001,45.298599245,-14.426499365,2.63483551145,4.360503435,-6.3599596025
1970-01-01 00:00:54.300,-0.5081757158,-0.3610171378500001,-0.9463613030000001,-1.38624145855,1.9637975095,-1.4205253125000001,17.439899445000002,40.558898925,-21.42319965,1.614875793,7.8142631055,-7.0175526139999995
1970-01-01 00:00:54.400,-7.090681314199999,-17.9850530615,7.818398476,0.8742751481000001,1.5990453960000002,-0.6025244594,20.654600145,37.124597545,-26.81559944,-1.1614294049999998,-6.629368782,12.6805605905
1970-01-01 00:00:54.500,-3.8228333589999997,-11.821590426,-2.8461128772,-0.71667653325,-1.6157673595,-0.23235102745000002,23.686299325,35.60569763,-28.26739979,-2.03529131415,-0.8618962765,-5.068942787
1970-01-01 00:00:54.600,4.1697926522,-11.5869445825,-4.42971295095,-2.7359085085,-1.5156648007999998,0.68491248765,24.72939968,35.910699844999996,-26.8217001,2.1742885110000003,0.06673240649999967,-4.8831596375
1970-01-01 00:00:54.700,0.48409795749999995,-7.0440211295,2.642423928,-2.2133287189999997,-0.8408312724,-1.1256388130000001,23.789999005,38.917999265,-22.594399455,2.9162350895,0.23333072649999997,2.0254718065
1970-01-01 00:00:54.800,-1.7434703485,-8.451748848,-2.6808587315,-1.5724735855,-2.223407626,0.5755708218000001,21.14869881,41.986299515,-17.879099845,-2.53156808025,1.46711683265,0.353953838
1970-01-01 00:00:54.900,4.308725834,-12.351750375,4.181756735,-0.63749548815,-0.4368321297499999,0.18898086250000007,18.641599655,43.999298095,-12.75509977,4.6308089495,-2.0014896395,6.009078026
1970-01-01 00:00:55.000,1.6657036543000001,-16.300805095,2.5873891415,3.4828984739999997,1.2250542045000001,-0.59962293505,17.019000055,45.908597945,-6.8014998435,3.4874485735,-6.7415122985,4.8821265695000005
1970-01-01 00:00:55.100,-3.8178981540000003,-16.84188175,-3.9474095699999996,3.0679039955,1.5738480090000002,0.035429149850000036,15.914899824999999,46.622299195,-5.130100012,-3.688690901,-8.379878044,-4.33159863925
1970-01-01 00:00:55.200,1.8020945339999999,-5.6805610655,-1.8704395295,2.6563456060000004,1.7542770205499998,0.18409408678,16.683499335,45.03019905,-9.36349964,1.19525521985,1.62341690045,-6.3147125245
1970-01-01 00:00:55.300,1.0072288366,0.59087763725,-2.6808587315,-0.90443575385,2.2396714094999997,-1.08471199895,19.239398955,41.18109894,-16.34800005,3.2043537499999997,8.2599015235,-8.472035885
1970-01-01 00:00:55.400,-2.046461642,-14.787643911,14.99477291,0.626194775,1.6373761295,-0.6362737715,22.30770016,37.807800295,-22.606598855,-4.7691594355,-11.747504951,5.0110919475
1970-01-01 00:00:55.500,-3.239881873,-7.193722365,-2.9213376039999996,-0.72889347375,-1.76901367295,0.132019359645,25.284499165,35.501998900000004,-24.589099885,-2.273242295,1.4230813979999999,-7.1543009264999995
1970-01-01 00:00:55.600,3.9471105335,-12.2847514175,-2.0463118574999997,-3.0070483685,-1.3723447025000002,-0.06925481560000007,27.157198905,34.67239952,-23.58869934,2.4767791035,-2.589887619,-5.2642486095
1970-01-01 00:00:55.700,-0.6768696305,-6.9792654515,1.58659091595,-2.339392185,-0.3678827584,-1.238798261,26.49229908,37.00869942,-19.458999634999998,1.1509326700000004,1.4785399435,0.46206985415
1970-01-01 00:00:55.800,-0.78948194512,-8.244619846500001,-1.628614962,-1.3712757230000001,-2.4702662825,-0.07253810760000001,23.826599125,40.11359978,-14.615599629999998,-1.7242792472000001,1.0891647338,0.6469693184999998
1970-01-01 00:00:55.900,3.6705899239999997,-10.843375205000001,2.608924389,-1.8566702605,-0.56587362265,0.60260081295,21.06329918,42.370597835,-10.638400078,3.74496758,-1.9239487647445,5.190040885999999
1970-01-01 00:00:56.000,2.5144079032,-15.940386775,2.715554535,1.2667445168,0.028404384849999964,-0.2666348219,19.111299515,44.340898515000006,-5.099599838,2.6595089433999997,-6.244278908,5.053043842
1970-01-01 00:00:56.100,-3.3212378025,-16.464862825,-3.830011785,3.7919107675,1.14243707065,-0.5941253304,18.184099195,44.822799685,-2.8669999839999996,-3.7391781809999998,-6.614889145,-2.970641196
1970-01-01 00:00:56.200,0.86365943415,-6.6466631885,-1.56281232825,2.784852624,1.04829025255,0.32596336305,18.440299985,44.02369881,-6.282999992000001,-0.028995387250000004,0.5208725930000002,-5.1637582774999995
1970-01-01 00:00:56.300,1.5279668124999999,-1.022931694865,-2.9047371149999996,1.3059914856,2.4970673325,-0.3345915875349999,20.6729002,41.858200075,-12.187799935,2.95037961,6.4263539315,-7.772797107499999
1970-01-01 00:00:56.400,-5.4255758105,-17.2380443835,8.948558569500001,-1.1318999826499998,1.29652330295,-1.1641985175,22.94209957,39.21080017,-18.79409981,-3.9086680415000004,-2.2227230055000002,2.3474948404999996
1970-01-01 00:00:56.500,-2.7406792639999997,-11.6884903895,3.546163142,0.6481853128,0.6758261622,-0.3342861682,24.97339916,37.911499019999994,-22.2954998,-0.6215222476,-2.6098017695,3.1756398675
1970-01-01 00:00:56.600,-0.9415757655000001,-6.2493048905,-8.096264839,-1.92523789395,-2.4197950365,0.3148154020199999,26.406899449999997,37.209999085,-21.972199439999997,-1.504450858,2.3703103066,-11.2631423465
1970-01-01 00:00:56.700,4.8414278035,-11.795120241,2.4460629225,-2.4283468724999997,-0.99675004195,-0.015042126200000006,25.912799835,38.716697695,-19.086899755,5.654191017,-2.1896133423600004,-0.2160665985000001
1970-01-01 00:00:56.800,-2.6760730145,-7.5946695805,0.5247758999500001,-1.7953564524999999,-1.8168888685,-0.67888040086,23.747300145,41.3519001,-14.749799724999999,-2.9411517385000003,2.7093262670000002,1.6433815660500002
1970-01-01 00:00:56.900,1.5664014966500002,-9.883404254,0.20398807500000005,-1.9650192855000002,-0.9836167695,0.77081289885,20.990098955,43.02939987,-11.108099935,0.6378548739499998,-0.32330513000000005,0.6549849509999999
1970-01-01 00:00:57.000,2.25822629015,-13.612169745,3.8657544855,0.6161921675200001,-0.68903571375,-0.3580328524,19.263799665,44.52389908,-5.7217998505,4.15952002985,-4.665281296,7.5908169745
