,acc_Acceleration x (m/s^2),acc_Acceleration y (m/s^2),acc_Acceleration z (m/s^2),gyr_Gyroscope x (rad/s),gyr_Gyroscope y (rad/s),gyr_Gyroscope z (rad/s),mag_Magnetic field x (µT),mag_Magnetic field y (µT),mag_Magnetic field z (µT),lin_acc_Linear Acceleration x (m/s^2),lin_acc_Linear Acceleration y (m/s^2),lin_acc_Linear Acceleration z (m/s^2)
1970-01-01 00:00:00.000,2.176870346,4.746761799,8.090133667,-0.3542914092999999,0.3119902313,-0.3994941114999999,,,,,,
1970-01-01 00:00:00.100,1.8858433964999999,4.594817638,7.6353476045,-0.2667111754,-0.183635950795,-0.31848049165000003,-27.413399695,-12.919799805,-36.703699115,-0.10879594086,-0.063081979735,-0.24353480335
1970-01-01 00:00:00.200,2.6318057775000003,4.453641176,8.0089268685,-0.47943873704999995,-0.7372162938,-0.56190311905,-27.80989933,-12.968599795,-36.17300034,0.49290215969999995,0.1421318054,0.3151850699
1970-01-01 00:00:00.300,1.9170996544999999,3.853939891,9.155537605000001,-0.2512872964,-0.88687384125,-0.12751436604,-28.61509895,-12.907599925,-35.319000245,-0.9942974448999999,-0.357005834565,0.64426803595
1970-01-01 00:00:00.400,3.900600076,4.8978087905,8.622984886000001,0.39582901445,-1.2817102070000002,0.03649812565,-29.78629875,-12.82219982,-34.025798795,0.170946359635,0.1785681248,0.72720766065
1970-01-01 00:00:00.500,4.3063330650000005,4.331457734000001,7.9429745675,-0.10216420773699995,-0.4323271513,0.22265382115000001,-32.09209824,-12.779499529999999,-31.366199495000004,0.2810835838000001,0.4044008255,0.07169985780000004
1970-01-01 00:00:00.600,5.202893734,4.7002514600000005,6.991229296,0.8090671897,-1.3219498096,-0.53189524635,-34.855400085,-12.63309956,-27.98679924,0.2500134707,0.19767475104999999,-0.16988587375000003
1970-01-01 00:00:00.700,5.1239304545,-1.1605189445000001,0.83614197365,-2.987043023,-2.307857275,-0.35688750819,-37.63089943,-13.23089981,-23.442299845,-0.1875448227,-4.730511904,-4.372374058
1970-01-01 00:00:00.800,9.210721970000002,-1.2945170886200001,6.1618173125,-5.398133516,-3.2259607315,-0.23380178583999994,-40.46129799,-13.188199995,-18.147500039999997,2.247351408,-3.6139285565,0.05627107649999996
1970-01-01 00:00:00.900,10.6268243815,-0.6768697126500001,10.9115705495,-3.5835354329999998,-1.9312699439999998,0.49470991639999995,-43.047698975,-12.0291996,-12.419599535,1.2211799622,-0.61479258525,6.650374889
1970-01-01 00:00:01.000,9.5026464465,-1.7518452702,2.9801111220000003,-0.61871194263,-1.621035874,1.7503064275,-45.646299365000004,-10.0100994095,-5.8986997605,0.080708742,-0.24942755699999997,3.8657684315000003
1970-01-01 00:00:01.100,14.557932854999999,0.8995518084999999,10.3884391775,-0.8515974732499999,-0.6632274090999999,1.1254860905500002,-48.12899971,-5.20329988,0.7503000498,2.382857323,2.1655604835,-2.232370317
1970-01-01 00:00:01.200,9.829416275,-2.954986453,0.5189434254999999,-0.1424801275,-0.37009710084999997,0.6328377724,-49.80649948,0.35379999869999995,6.94789958,1.942082405,2.440677166,0.8030172887
1970-01-01 00:00:01.300,8.2171022895,-3.906582117,0.09511470237,-0.47019968925,0.24754586815000004,1.638292372,-50.599498749999995,5.685199976,11.797399519999999,-0.10183620450000008,1.6931610105500001,-0.21538573500000002
1970-01-01 00:00:01.400,7.6808109285,-6.317500353,-0.12996017935,-0.45531027765,-0.43286164105,2.2491396665,-50.64830017,11.96820021,14.932799815,0.2781009674,0.03437948229999996,-0.18919193745
1970-01-01 00:00:01.500,4.8809094425,-8.45773053,-1.19416800125,0.29106871779999993,-0.33993650225,2.2688393595,-49.45879936,18.665999415,16.848199845,-1.164159774905,0.35232329375,0.32391011699999994
1970-01-01 00:00:01.600,4.1795134545,-6.092425585,-0.35742787275,0.15423893924999998,-2.5605190395,1.40578860065,-46.73819923,26.34589958,18.11089897,1.0041584970000001,1.70221972475,0.751801490715
1970-01-01 00:00:01.700,4.297958255,-11.989088535,-0.8769694564999999,0.29755896142,0.09949171550000002,1.4646589755,-42.18149948,34.477197645000004,20.184900284999998,2.056414485,-2.7871308325,-0.08342146849999987
1970-01-01 00:00:01.800,1.89900389315,-8.2651083445,1.4333007931500001,0.61237438405,1.34523840265,2.095435202,-36.416999815,41.778900145,21.636699675000003,1.12929567705,1.141319275045,1.987310052
1970-01-01 00:00:01.900,-2.9071299434999998,-12.391231537500001,0.06400799749999997,-0.40323555469999994,1.3523394467,1.491689086,-29.511798855000002,47.62269974,21.490299225,0.6714948567000001,0.45989465715,-0.7190470991000002
1970-01-01 00:00:02.000,-2.886641502,-8.577521324,-1.662114382,1.1823711993,0.69812206945,0.24647687375,-22.69199944,51.3253994,20.6668005,-1.8221975565,-0.25420331952499997,-2.6187660695
1970-01-01 00:00:02.100,-2.4868905545,-7.7312099935,0.52238307895,2.2671597,0.5893148779999999,0.3976615667,-17.787600519999998,54.06430054,17.51309967,-0.21507990360000007,1.8848462105000001,0.12533393505
1970-01-01 00:00:02.200,-1.3592728227,-6.6106212135,2.696262479,1.6967809795000002,0.20784078167499997,0.07353074104999999,-13.743299485,55.98579979,12.30369997,0.5969814656499999,1.6505942345,-0.13929021361
1970-01-01 00:00:02.300,-0.39332022147,-7.4750282765,5.694917917,0.5828246324999999,0.6080220937999999,-0.3096231967,-11.57169962,56.742198939999994,6.3928000925,1.866498768,1.8222424985,1.89419102675
1970-01-01 00:00:02.400,-1.5987046061999999,-8.369196175999999,6.094668864999999,0.5619031191,1.1874870657999999,-0.5883986056,-11.065400125,57.04719925,-0.140299976,0.8938591481500001,-0.0010819434999997934,4.1720707415
1970-01-01 00:00:02.500,-6.8908803464999995,-10.743025778,-2.59815681,-0.42644774915000005,-0.91940146705,-0.170197323,-11.083699705,56.876399995,-5.7888998984999995,-4.563621998,-2.8227443694999996,-3.05504918085
1970-01-01 00:00:02.600,1.1401799396999999,-12.1902346615,-2.6449663635000005,-2.2041659355,-1.19519901275,0.5476245731,-11.864500045,56.626298905,-7.197999954,1.9901372190000002,-1.6323847775000002,-4.998423816
1970-01-01 00:00:02.700,-1.7291134875450003,-6.5400328635000005,-0.18858434259999998,-1.982123077,0.1782146692,-0.7082773745,-12.883199690000001,56.5958004,-3.7271000145,1.125053227,2.2484369276,-0.7918824554000001
1970-01-01 00:00:02.800,-2.253440678,-8.922237396,-0.4962115882500001,-1.3495143055,-1.52589643,0.33291176705500003,-14.133699895,56.22979927,3.0072998405,-0.8219848273999999,0.4651107788,0.52442166205
1970-01-01 00:00:02.900,1.2406785785,-12.227323535,1.3963616194000001,-1.1812258659,-0.32153472304999997,0.5862606614999999,-14.11539984,55.314798355,11.821799755499999,3.31886458375,-2.318130493,3.621731043
1970-01-01 00:00:03.000,-1.1044372022,-13.78340626,3.3834511039999997,1.201078448375,-0.19585290549999995,-0.5287646651,-13.389499664999999,53.808099745,20.184899335,1.3955768345,-4.3354177475,5.5222325325
1970-01-01 00:00:03.100,-6.0432231425,-15.616158485,-1.291077256,3.5037435295000003,0.12201675769999998,-0.6162685305,-12.883199695,53.063898085,23.143400194999998,-4.4027314185,-5.991835117500001,-2.092945218
1970-01-01 00:00:03.200,-1.2946665885,-7.73823905,-1.2468101381999999,2.8286045790000003,0.196998246,-0.21952324174499996,-12.108499525,53.570199965,19.38579941,-0.9951021074,0.41632676150000003,-5.5556135179999995
1970-01-01 00:00:03.300,0.4663012624999999,-2.2749760749999997,-0.37657046330000005,1.8647639750000002,2.4415565134999997,-0.707513839,-11.955999850000001,54.28999901,10.2174997325,2.0666381714999997,5.38458848,-7.1576116085
1970-01-01 00:00:03.400,-5.6075799465,-6.903891443999999,6.34008264385,-1.3558518290000001,0.9387195259500001,-0.8092198968,-11.80959988,54.80849838,-1.9886000159000001,-1.0182285309499999,3.904925108,0.6907920840000004
1970-01-01 00:00:03.500,-2.3001008035,-8.80020356,5.26630336,0.448896370825,0.7281299364699999,-0.26961270719999997,-11.67539978,54.735298154999995,-11.2300996805,-1.054437816,-3.1032381039999994,3.6213006971499997
1970-01-01 00:00:03.600,-3.615704477,-10.69143057,-4.2059839965000005,-1.97700721,-1.5840032695000001,0.04306472835,-11.589999675,53.92399788,-16.140599725,-2.4375994804,-3.0372066495,-9.6246442795
1970-01-01 00:00:03.700,-0.24122643450000003,-10.842178343499999,0.35368908925,-2.520890236,-0.918027062195,0.046500757300000056,-12.389100075,54.18629837,-14.56679964,1.60035216805,-1.8655304905,-3.0615065398
1970-01-01 00:00:03.800,-1.4479568,-7.257131815,0.5463113413999999,-1.6484476925,-1.9108065365,-0.24556059018,-14.139800075,55.05249977,-7.368799924499999,0.4670035243,2.37732172,0.7316588314500001
1970-01-01 00:00:03.900,-0.89491564025,-9.2956671715,0.40154558399999996,-1.628976941,-0.7887565245635,0.80746370555,-15.396399975000001,55.113498684999996,1.7933999298,0.6911976338,0.6233863830499999,1.5871680379
1970-01-01 00:00:04.000,1.8010476378999998,-13.145420075,2.7969106435000004,-0.3651339561,-0.32290913165,-0.11140325665000009,-15.43299961,54.436399460000004,12.694099425000001,4.4910173415,-4.2651658055,4.407568693
1970-01-01 00:00:04.100,-3.1154551505,-15.941583155,-0.6770191189999997,3.486945152,-0.2799207531,-0.68170556425,-14.542399885,53.112697600000004,20.752199175,-0.89619010695,-5.359434128,4.12596827735
1970-01-01 00:00:04.200,-4.998457073999999,-12.86650658,-0.3381357195000001,2.9395496845,0.47157409770000003,-0.24319356679999998,-13.51149988,52.99679947,21.557399750000002,-4.094288826,-5.1394758225,-5.0300633910000005
1970-01-01 00:00:04.300,0.803838849,-4.433302164,-1.3772189615000001,2.7136889695,1.5701064764500001,-0.4808895141,-6.0511996749999994,46.9090004,11.754700184499999,1.0036486985000002,3.0767419335,-7.167445183
1970-01-01 00:00:04.400,-1.378415406,-0.5117649435999999,-0.44476592545000004,-0.7711946815,2.238984346,-0.8700755535,-5.8498997685,47.451898575,0.4514000415000001,0.9768369795,6.865368128,-6.5721051695
1970-01-01 00:00:04.500,-5.592026472,-13.010076047000002,10.0688481325,0.4263713881500001,1.2309335469999998,-0.40690062195,-5.752300024,48.23269844,-10.7725996975,-0.6771503687,-3.4198117255000007,6.741405010499999
1970-01-01 00:00:04.600,-4.3746780155,-8.570193527999999,-1.4383852485,-1.2505569905999998,-1.23826372635,0.16615045911,-5.1971998215,47.63489914,-18.690399165000002,-2.9927879575,0.5106401441,-5.1133060445
1970-01-01 00:00:04.700,1.702792406,-12.05489111,-1.9015464785000002,-2.8736546040000004,-0.8296833335,0.18501035870000002,-6.197599887999999,47.024900439999996,-20.843699455,2.0904089215,-2.6958975791,-4.894028543449999
1970-01-01 00:00:04.800,-1.7507984637499998,-6.791578293000001,0.7450651527500001,-1.891106725,-1.3438639939500001,-0.54075255245,-6.9783997535,48.055799485,-15.66479921,0.8442798255,1.9446902275,-0.15443463624999998
1970-01-01 00:00:04.900,-0.6828517616,-8.589485645500002,-0.5225326415,-1.4844352005,-1.1915339232,0.60420429705,-8.436299801,48.623098375,-7.5701000689999995,0.75539177676,1.4533939359999999,0.8976785839500001
1970-01-01 00:00:05.000,0.6613163354999999,-11.200204370000002,2.8362426165,-1.0247726292,-0.5612922905500001,0.3926220825115,-9.217099667,48.55599785,2.9767998531549997,2.0435826776,-1.5436601636999998,4.9074821470000005
1970-01-01 00:00:05.100,-0.19815561175000002,-15.48440409,3.8250765199999996,2.6669591665,0.23616882038499998,-0.8281561733,-8.7717995645,47.177398679999996,13.261399745,3.367310405,-6.4902276995,4.948165417
1970-01-01 00:00:05.200,-5.5896337035,-16.256537440000002,-2.446362257,3.663556337,-0.4769189954,-0.3860554695,-8.2715997695,46.45149994,17.28739929,-4.827848196,-5.8698730470000005,-1.8965677621500001
1970-01-01 00:00:05.300,-0.029312074199999982,-7.2236325745,-2.0057835729,2.8060795065,0.23548159015000003,-0.32000761850500004,-7.5334997175,46.66499901,13.895799635,-0.22279524804,0.6277701855,-5.072826147
1970-01-01 00:00:05.400,0.5295615496000001,-1.44062877465,-1.7854943572,2.1952323315,2.7111691235,-0.77157643435,-7.4358997344999995,46.982198714999996,4.629899979,2.745478749,5.959458828000001,-7.7402520175000005
1970-01-01 00:00:05.500,-6.235994697000001,-14.609378814500001,12.252298595,-1.304846078,1.6803644298,-1.0469922124,-8.1008000375,46.390499115,-7.7835996155,-3.0646545885500003,0.3383839129999995,0.9571433065000003
1970-01-01 00:00:05.600,-4.445266246999999,-10.4053384075,0.7954640389999996,0.43981001525,0.75149485485,-0.2786990628,-7.8506996634999995,45.98180008,-17.4460001,-1.6997020245,-1.7760090829500002,0.8056342599999999
1970-01-01 00:00:05.700,-1.304237939645,-8.08788991,-7.123133898000001,-2.3032759129500002,-1.8801878095000002,0.28457847234999994,-7.734799861999999,45.04240036,-22.216199875,0.7273346185,-0.23346805572,-12.09943819
1970-01-01 00:00:05.800,1.27178528905,-9.2514002335,2.2078276279999995,-2.623894334,-0.38223768025,-0.25266170499999996,-8.546099901,45.823198315,-19.70909977,2.989130497,-1.202219486,1.8397764265999998
1970-01-01 00:00:05.900,-2.2594227790000003,-7.516902685,-0.7691429552999999,-1.776649177,-2.073673725,-0.09223791954999999,-10.47370005,47.01269913,-11.742499349,-1.1393352151,2.6435537335,0.6139697433
1970-01-01 00:00:06.000,1.702792436,-11.2504539495,2.4797120095,-1.590417206,-0.5606814325,0.9568921926,-11.51069975,47.213998794999995,-1.2200000885,2.7106291056,-1.75110149365,4.2860379215
1970-01-01 00:00:06.100,-0.5525924859,-14.09940815,2.936890721,0.5854971111,-0.24349899216,-0.54479940235,-11.315499785,46.53689957,10.077199935,2.5755476952,-5.588384628,5.3031859395000005
1970-01-01 00:00:06.200,-6.547361134999999,-15.438940525,-1.3413267134999998,3.7012763025,0.1644706279,-0.6022190377,-10.839699745,45.84759903,16.103999135,-4.2564263345,-6.3582019805000005,-1.104203939
1970-01-01 00:00:06.300,-1.9805093353449998,-7.687989712,-2.2906790375,2.859681487,-0.1223221719,0.01771456745000001,-10.016199589,46.158699035,14.206899645,-2.1882490517499997,-0.30388760549999994,-4.793086648
1970-01-01 00:00:06.400,1.7193925976,-2.4544378219,-1.6957634685,1.8881288170000001,2.4063564535,-0.71942535045,-9.363499641499999,46.628398895000004,5.6607999805,3.3773573635000003,4.906751633,-6.7586343289999995
1970-01-01 00:00:06.500,-5.2401317955,-7.659275891,7.37796957705,-1.1490800380000001,1.62775519475,-1.107084274,-9.070700169,47.457998274999994,-6.4781998395,-0.7548121214000001,4.183927059,0.7314558029999998
1970-01-01 00:00:06.600,-5.3970116375,-10.012766361499999,5.6123657225,0.80372226215,0.6239804775000001,-0.2053973898,-8.661999702500001,47.36039734,-16.433400155,-4.4705845115,-5.9477996845,3.110505581
1970-01-01 00:00:06.700,-1.196560919,-9.924232004499999,-8.236394405,-2.5576937795,-2.2238657475,0.45737187565000004,-8.2044997215,46.298999785,-22.23449993,-0.940940976,-1.8406853675000001,-11.02000618
1970-01-01 00:00:06.800,0.71276205775,-10.547861336,1.9230816364499999,-2.8378436564999996,-0.7137750089,-0.41270369013,-8.7778997425,46.695499420000004,-20.59359932,2.6551499365,-2.0847420694500003,-0.17366945749999985
1970-01-01 00:00:06.900,-2.091925144,-6.895516634,-0.05458627645,-1.710295975,-2.6208401915,-0.09017632905000006,-10.74209976,47.61659813,-12.78559971,-1.2365955115,2.996586323,0.764405489
1970-01-01 00:00:07.000,1.4513965396,-11.3546915045,2.002044797,-1.4859623315,-0.24533152580999995,0.8931350708000001,-12.041399955,47.62879753,-2.3972998858,2.3674420715,-1.2441949845,2.798494935
1970-01-01 00:00:07.100,-0.24975085250000006,-13.883904455,3.9566817280000004,0.50265091645,-0.08788564800000001,-0.3314609984,-12.43179989,47.171300885,9.7660999275,3.0855017898,-4.6883735655,5.8309373855
1970-01-01 00:00:07.200,-4.1220856905000005,-16.527076725,-2.2725832465000004,4.022658348,-0.23525255174999998,-0.48890687529999993,-12.053599835,46.122098925,17.232500075,-2.03840172275,-6.761603832,-1.9585299489999994
1970-01-01 00:00:07.300,-3.6445680855,-10.569396495,-0.3729812505,3.1596074105,0.53808005875,0.09689564258499994,-10.943399905,46.378299715,15.859999655,-1.5142908094,-2.35240268725,-2.113039374
1970-01-01 00:00:07.400,1.00124673525,-3.177668452,-2.542074978,2.0671070815,2.330305874,-0.82044422625,-9.827099802500001,47.018798829999994,7.606699944000001,3.1548061374999996,4.0314397809999996,-7.5082142350000005
1970-01-01 00:00:07.500,-3.129812002,-2.9621648786,4.9718365645,-1.5232239965,1.2061178834,-1.0770000517,-9.6989998815,47.00049782,-4.9470999835,0.4679535627505,6.5552051065,-2.5407526495
1970-01-01 00:00:07.600,-3.973581076,-14.138889791,8.195567131499999,0.5380800816,0.57587623595,-0.27602660655,-9.2171001435,47.14079857,-15.841699125,-3.4966976641,-8.7197816365,6.4115211956
1970-01-01 00:00:07.700,-3.33200562,-8.758179663,-6.2205910685,-2.8063085675000004,-2.077415168,0.24342263864999997,-8.5216999055,46.26239967,-22.179599765,-3.469249487,-1.8055858609999997,-9.4240269675
1970-01-01 00:00:07.800,1.9613668322,-11.0780210475,2.695066034865,-2.0983366965,-0.09979716689999998,-0.17111359535,-9.2171001435,46.329498290000004,-21.14259911,3.0861896275,-2.43605279935,-1.8541989922
1970-01-01 00:00:07.900,-2.2043878435,-7.135097980499999,0.6290132527160001,-1.5791928765,-1.7981815934999998,-0.18806459004999995,-10.723800180000001,47.31769943,-13.828699584999999,-0.23061931149999992,2.926406145,0.4678927064999999
1970-01-01 00:00:08.000,-1.34745827325,-9.7434239395,-0.31914275850000007,-1.6287478805,-0.3933092679165,0.92077586055,-12.175599575,47.769100185,-4.587199807,-0.03862053155000006,0.34722185137000006,1.4565480947
1970-01-01 00:00:08.100,2.4952653476999997,-13.842030045,2.778814852,0.5526640415500002,-0.11193776129999994,-0.36093437483999996,-12.55379963,47.360399244999996,6.600199819,4.705071091500001,-4.575129986,5.608124733
1970-01-01 00:00:08.200,-3.7329529525,-16.178771495,-2.7071797849999997,3.828103423,-0.393461981113,-0.70736116195,-12.126799585,46.506399155,14.17639971,-1.8864372373499998,-6.025681496000001,0.7893171310000002
1970-01-01 00:00:08.300,-3.4912777242499997,-12.022587777,0.811017275,2.9012954234999997,0.5360948146000002,-0.04230117052,-11.60829973,46.420997619999994,14.371599674999999,-2.9600964187499996,-3.1120066645,-2.4795933365
1970-01-01 00:00:08.400,1.5973587036999999,-3.9735811949999995,-1.3606187999500001,2.7733993530000003,1.807649732,-0.4659237564,-10.69939947,46.6405983,7.740899561,2.47684687385,4.091221094,-5.274007796999999
1970-01-01 00:00:08.500,-1.257577896,-1.18923288575,2.0714366435000002,0.18867546344999997,2.5717433695,-0.8989380896000001,-10.376099585,47.085899355,-3.9954999684,0.85896432415,6.6641368865,-5.6061383485
1970-01-01 00:00:08.600,-5.91879642,-14.562718392,13.782209393999999,-0.5093702377,1.19336646805,-0.7293516324499999,-9.857599735,46.9333992,-15.042600155,-2.9689360857,-4.414775371499999,6.938706874999999
1970-01-01 00:00:08.700,-5.329862833,-10.906934261499998,-6.0397834775,-0.3089360148,-1.0355388225,-0.11102148895000001,-9.0096998215,45.859798435,-22.22229958,-2.95774549235,-0.651124716,-8.155783295500001
1970-01-01 00:00:08.800,1.84292214345,-12.603146554999999,-2.1744775769999993,-3.3686698674999995,-1.69166514275,0.5153260231,-9.2414999005,45.566999435,-22.972599985000002,2.8049767015000002,-4.1231093405,-4.49817014
1970-01-01 00:00:08.900,-1.3879866636000002,-6.139085769999999,0.44581276179999996,-2.3366434575,-1.21047022955,-0.7961630225,-10.790899755,46.567399975,-16.195499895,0.7135176659999999,3.426732063,0.90365052245
1970-01-01 00:00:09.000,-0.8279166072,-9.472885848,0.280708015,-1.5218495724999999,-1.6994534285999998,0.6310815811,-12.443999765000001,46.96999741,-6.5086997745,0.08154559150000007,0.8053002359500001,2.2838578225
1970-01-01 00:00:09.100,2.995664358,-13.53335619,2.9584261175,-0.6828508636999999,-0.3846810609,0.30252210795,-12.84659958,47.26280022,5.215499759,5.957294941,-4.1551198959999995,4.9982167485
1970-01-01 00:00:09.200,-3.6312577725,-15.747764590000001,-1.2025427820000003,2.9214533565,0.17241163550000002,-0.9641460479,-12.584299565,46.43319893,14.591199875000001,-1.7453639505499998,-5.751032829,3.73427817215
1970-01-01 00:00:09.300,-4.01904473849,-13.134502415,0.19217371949999995,3.2087806464999997,0.27029994145,-0.10918894034999996,-12.309800145,46.201400755,16.055199625,-4.044280410000001,-5.2953066825,-4.8035883905
1970-01-01 00:00:09.400,1.4765211048,-3.8156547549999997,-0.5261218539965001,3.0810371635,1.158013668145,-0.34726665915,-11.699800015000001,46.597898485,9.900299550500002,1.7900257109500002,3.4781320095000003,-6.318070411500001
1970-01-01 00:00:09.500,-1.5877873894999999,-0.5667998867,-0.4519444105,-0.05657970899999987,2.6656610965,-0.9378796220000001,-11.19960022,46.45759964,-1.6774998905,0.818502724285,6.496056794999999,-6.494105338999999
1970-01-01 00:00:09.600,-6.069693684500001,-12.0152597435,10.064212086000001,-0.3923929930000001,0.8854994328299999,-0.43018919229999997,-10.668899535,46.542999265000006,-13.36509943,-2.2444648745,-3.867503645,5.911961079
1970-01-01 00:00:09.700,-4.931158781000001,-9.623633623,-4.747060895000001,-0.645131092295,-1.00461468095,0.12591089309999998,-9.290299892,45.621898650000006,-21.356100085,-2.6267050505,-0.7063641549999999,-5.3858486391
1970-01-01 00:00:09.800,1.963759661,-11.86092281,-1.6096220015,-3.207253456,-1.6233265398499999,0.33581327650000004,-8.723000049500001,45.298599245,-23.05189991,2.6211930509999997,-2.064718723045,-4.98605287
1970-01-01 00:00:09.900,-0.5057829025000001,-6.4897835255,0.6457629877000001,-2.1179602145,-0.9278769714,-0.735078305,-8.857199669,46.20749855,-17.079999445,1.6720716354999998,2.1055073736499996,0.0035178661000000444
1970-01-01 00:00:10.000,-1.5831512810000001,-8.5498542785,-0.6889833508999998,-1.51574111,-1.7505355480000002,0.5760289653999999,-10.376100065,46.976099015,-8.125199794,-0.70782965435,0.9954750540499999,1.0182588102
1970-01-01 00:00:10.100,2.9751758574999996,-12.519397255,2.07741867025,-0.94734773035,-0.30557632470000007,0.48554720362,-11.04099989,47.037097935,3.062200017105,4.880130291,-2.4590516090000003,4.744913101
1970-01-01 00:00:10.200,-2.841177881,-15.65922976,3.756880999,2.1479680241,0.53197161855,-0.7831825614000001,-10.69939995,46.158699035,13.084499834999999,0.8385352492500001,-6.5522003175000005,5.075078725999999
1970-01-01 00:00:10.300,-5.064259529,-15.95952845,-3.4781172873500004,3.492137432,0.44515493534999995,0.031153209500000043,-10.22969961,45.676797865,16.54930019,-4.414032936,-6.2303118705,-3.4461919665000003
1970-01-01 00:00:10.400,0.5392824114500001,-6.677769661000001,-2.808874726,2.845631957,0.50944662095,-0.18898087664420002,-8.954799652,46.115999224999996,12.59039974,1.717499256,1.8172037600000002,-5.320298433
1970-01-01 00:00:10.500,-0.21849462405000003,-1.189232900625,-1.7183458210000002,0.5828246176,2.6006058455,-0.9410102069999999,-8.399700164999999,45.92689896,2.6717999277,2.9142406585,6.250380516,-7.2315354345
1970-01-01 00:00:10.600,-4.763810754,-14.222638609,10.437641857,-0.5769452155499999,1.2962178585,-0.8580113349,-7.997099638,46.28679848,-9.180499553,-2.3062678575999995,-1.2047467235,2.4843733309999996
1970-01-01 00:00:10.700,-6.520890236,-11.606087446,3.7927734849999997,0.4333197919500001,0.4115583448,-0.041003122899999994,-7.338299989499999,45.7743988,-18.171899795,-3.356410265,-2.0647540095,5.3017416
1970-01-01 00:00:10.800,-0.10603195449999991,-7.281060097999999,-10.0402836795,-3.2469586135,-2.7788968085,0.3694862276,-6.813699722000001,44.65199852,-22.954298975,0.19074869154999996,0.3209614755,-13.24583006
1970-01-01 00:00:10.900,1.9422242045,-10.671091555,2.884248525,-2.399636984,-0.23792502280000005,-0.58641339079,-7.399299859999999,45.432800295,-20.17269993,3.923767567,-2.80670881295,0.28653988245
1970-01-01 00:00:11.000,-2.5455147030000003,-7.254739046000001,1.4262718555,-1.5991981625,-1.9966306685,-0.038636088350000014,-9.1317000385,46.32339859,-12.523299695,-1.179326117,2.4057831766,1.550056219
1970-01-01 00:00:11.100,0.2866900565,-10.2352991105,0.6206383109999999,-1.5491086245,-0.5452575236499999,0.8927533032999999,-10.595699790000001,46.09769821,-2.39119991645,1.4553694128499999,-0.7309107779,2.56417316185
1970-01-01 00:00:11.200,0.9163016080000004,-14.207234855,4.6187458635,1.01255569245,-0.05169294775000001,-0.46439662574999996,-10.998299594999999,45.688999175,9.5586998485,3.8320161106000006,-4.5715999605,6.7049827575
1970-01-01 00:00:11.300,-2.9585755467,-16.740187645,-3.9831523945850003,3.773127079,0.37429664656,-0.69041010735,-10.97389984,44.652000425,16.707900045000002,-0.3299355504999999,-7.283079624000001,-2.346721649
1970-01-01 00:00:11.400,-2.7442684324999997,-11.357083799,-0.5047360659999999,2.9168719055,0.366584710785,-0.23693237825,-10.498099804999999,44.65199852,16.12230015,-2.34006315489,-2.4086208342499997,-2.1741740105
1970-01-01 00:00:11.500,1.8774684664999999,-4.2704405785,-1.8895820975,2.0710777045,2.7670617105,-0.7597412764999999,-10.211399555,44.834999085,8.930399656999999,3.121294737,4.057492018,-5.3250823025
1970-01-01 00:00:11.600,-1.8403796555,-0.9629615320000001,1.654935837,-1.155112147,2.66833353,-1.21802938,-10.14429998,44.956998825,-3.2329999765200004,0.7865219711999999,7.1471493245,-5.684335470000001
1970-01-01 00:00:11.700,-6.7304116475,-15.717853964,10.594371555,-0.21089506150000004,1.0195803943000001,-0.5616740659,-9.808799746,44.365299225,-14.670500279999999,-4.87898087485,-4.3144042495,7.7282855495
1970-01-01 00:00:11.800,-4.936093807500001,-12.384053231,-5.3443694115,-0.8379297555,-1.3734136818,0.14858859035,-9.0402002335,43.212400435,-21.90509987,-3.8705331085,-2.7269363405,-8.803799627
1970-01-01 00:00:11.900,2.0546869041,-11.787941455,-1.2599705455,-3.303156614,-1.9392873050000001,0.25350161644,-9.101200104,43.09649849,-22.46630001,3.0293625595,-2.42894077315,-3.9594128134999997
1970-01-01 00:00:12.000,-1.343719506825,-6.5496041775,0.39556352805000006,-2.218597293,-1.5335320086,-0.7860840559,-10.516399861,44.255498885,-15.579400060000001,1.271898806,2.6565666199999995,0.82638674955
1970-01-01 00:00:12.100,-0.5476572809,-9.818798067500001,1.1389835776000001,-1.620195985,-1.3768496664,0.74309566625,-12.54769993,44.847198485,-5.416799784,0.10744255800000013,0.5877499580500001,2.3891550602500002
1970-01-01 00:00:12.200,2.97771815673,-13.392030235,2.8914270405,-0.557321783325,-0.468214415,0.13934952020000008,-12.992999555,44.66419983,6.5941001175,5.6733272075,-5.0195732115,4.7813796995
1970-01-01 00:00:12.300,-3.0411280395,-16.88151312,-3.0279676915,3.3579801320000002,0.16309621935000002,-0.74676078555,-12.767300129999999,43.858999255,15.420799735,-1.45838534845,-6.3624415395,0.7424640655000001
1970-01-01 00:00:12.400,-3.592972696,-12.379268168500001,0.6110670569999999,3.0546181205000003,0.5645755678500001,-0.20784077421499994,-12.24269962,43.80409813,16.067399979999998,-3.5888620615,-4.087767124,-2.8928601144
1970-01-01 00:00:12.500,1.8212370875000001,-3.8611184355,-0.88773719975,2.7601896525,1.217342213,-0.54281415045,-11.32159996,44.566598895,9.42449975,2.2407946587,3.9451041225,-6.566481352
1970-01-01 00:00:12.600,-1.1606685521,0.2856431901,-0.7751250265000001,-0.4424061179,2.643823266,-0.9961391985500001,-10.986100194999999,45.03020096,-2.4217000007,0.8128896357000001,7.772691965,-6.87485075
1970-01-01 00:00:12.700,-7.2512995005,-15.0607252115,9.653543948500001,0.21868330254999996,1.517191887,-0.59443074465,-10.48589945,45.115600584999996,-13.651799675,-2.1681654450000005,-5.7831315995,8.172980545
1970-01-01 00:00:12.800,-4.2945185304999995,-9.398708107500001,-2.3576781760000003,-0.58549709599,-1.21558602145,0.0671931952,-9.479399681,44.03589821,-21.14260006,-2.44809055305,0.392177105,-5.1264777200000005
1970-01-01 00:00:12.900,0.9103194475999999,-12.659377575,-2.216501474,-3.2571902274999998,-1.52513286475,0.45324866475000003,-9.333000183,43.553998945000004,-22.85669994,1.08799684045,-2.3545117380550002,-2.8302376269
1970-01-01 00:00:13.000,-0.6542874575,-7.0595748425,0.5177469849,-2.2621964814999997,-1.3947170602499999,-0.9228374958,-10.345599652,44.719099045,-17.299600125,1.7510043975,1.48215627685,-0.05951371784999998
1970-01-01 00:00:13.100,-1.2468101681000001,-8.6732344625,-0.6985546881695499,-1.496804893,-1.9482973814999998,0.5970268324,-12.078000070000002,45.52429962,-8.411900045,-0.7134355307500001,0.9848949909500001,-0.013344109049999997
1970-01-01 00:00:13.200,2.8171000480000004,-13.189687249999999,2.2162024375,-1.03133925805,-0.52021279935,0.40422817322,-12.93809986,45.859798435,3.147600056765,4.6193556785,-2.904018879,4.3359813695
1970-01-01 00:00:13.300,-1.2623634787500002,-14.630914215,4.3290647265,2.1985156239,0.335965991,-0.8200624585,-12.468399524999999,44.99359894,13.828700065,1.4519292115,-5.7888154985,6.299483061
1970-01-01 00:00:13.400,-5.2329535485,-15.975081920000001,-2.73948276,3.5754417184999996,0.96758205435,-0.0216850787,-11.888899805,44.389699934999996,17.647298815,-4.136920452,-6.4634442325,-3.8342340590000004
1970-01-01 00:00:13.500,-0.030508517999999984,-6.6562342645,-2.0979071855,2.8369274135,0.0850604774999999,0.046118963490000005,-10.931200024999999,44.633699414999995,13.62739992,0.33923798800000005,1.678523302,-5.769645691
1970-01-01 00:00:13.600,0.4529911875000001,-1.48968168737,-1.25264266145,0.5733565242,2.6068670750000003,-0.8108233809000001,-10.333400245,44.883800504999996,3.60509994615,3.2792622446500004,5.904553890500001,-6.5927636624999995
1970-01-01 00:00:13.700,-5.1468120815,-15.108581302500001,11.6860973835,-0.7411104739000001,1.2547566589999999,-0.7934905776,-9.589199543,45.59749794,-8.527799846,-4.166858077,-2.905709268,4.85394144
1970-01-01 00:00:13.800,-6.8968627455,-9.494421484,-1.0683951374999996,0.34176905444999994,-0.24991288765000003,-0.06390988825000002,-8.50949955,45.444999695,-17.452099325,-1.6299985645000001,-4.67749738695,-3.2229132655
1970-01-01 00:00:13.900,-0.7715357689,-10.3646607425,-1.840529263,-3.1722825765,-1.8485001625,0.50631603595,-7.820199728,44.66419983,-21.64279938,1.914971113,0.5624513625,-11.498271939999999
1970-01-01 00:00:14.000,0.8062317369999998,-8.0721874235,0.76420770213,-2.2399768829999998,-0.33268269915,-0.79387238625,-8.3447999955,45.341299055,-18.434199335,3.6905990245,0.014664888500000028,0.7372395695
1970-01-01 00:00:14.100,-1.9998015765,-7.728667498,0.76420775045,-1.5032187700000001,-1.688534558,0.33848574477,-10.2418994925,45.798799515,-10.8701996805,-1.1443684696,2.10492515585,1.9316570164999998
1970-01-01 00:00:14.200,0.84571331745,-10.665258885,1.7098214030000003,-1.4423630835,-0.34589225054999995,0.75706881285,-11.516799925,45.63409996,-1.1041000485,1.789616406,-0.9145960808000001,2.0311837195000004
1970-01-01 00:00:14.300,1.1053345351,-14.13186121,2.777618468,1.69242870815,0.34314344449499995,-0.7040014714,-11.60830021,45.28030014,9.881999729,4.297470689,-4.8329834935,6.1758410935
1970-01-01 00:00:14.400,-5.8721363545,-16.760526655,-1.6274184584999998,3.5978139639999998,0.69147908675,-0.43393061684,-11.461899755000001,44.67029953,15.518399715000001,-2.3976384402,-7.70533371,-2.4882521625
1970-01-01 00:00:14.500,-2.9238796235,-9.7061858185,-1.7003996375000001,3.127690673,0.53586574666,-0.056427015010000005,-10.979999545,44.731300355,13.737199785000001,-1.2827276587,-1.9738945960000003,-3.4319024085000005
1970-01-01 00:00:14.600,1.4609678239,-2.4163022635,-2.907130003,1.3749408723999998,2.8333386185,-0.7508839965,-10.424900054999998,44.670299529999994,5.282599926,3.789129496,4.6207726,-7.6188049315
1970-01-01 00:00:14.700,-4.9660043715,-5.06769936849,4.834249290050001,-2.19324708,1.160609841,-1.5387243030000002,-9.9551997205,44.688598635000005,-7.423700094000001,-0.22595369815000005,6.0760605335,-1.2367241384999996
1970-01-01 00:00:14.800,-2.6149064305,-11.3282206065,7.6209905145,0.509370259945,0.98628926285,-0.44126079974999993,-9.271999835999999,44.389698030000005,-18.031599999999997,-3.1428666116,-6.029914855500001,4.953453064
1970-01-01 00:00:14.900,-3.098705262,-9.51834917,-6.306732654499999,-1.1764917969500002,-1.2119209470999999,0.10506572948000001,-8.320400238,43.053798674999996,-24.22919941,-2.6965759395,-2.527534008,-7.756301163
1970-01-01 00:00:15.000,2.1049362125,-11.8525481215,1.91575363295,-2.8488389255,-1.2518550453500001,0.17867282870999995,-8.8022994995,43.26119804,-23.35079956,4.1003756525,-2.744110107,-3.38680005055
1970-01-01 00:00:15.100,-2.664108872,-6.8035426139999995,0.59431731695,-2.11246258,-1.30392983565,-0.79013089845,-11.242300035,44.80449867,-16.634699345,-0.8247349558,3.1422424319999998,1.06663697945
1970-01-01 00:00:15.200,-0.43040901415,-9.179615496,0.459122896,-1.5668231845,-1.2237561643500001,0.81983339765,-13.731099605,45.664598465,-7.5029997845,0.42065286645000005,0.86685705185,1.9531434776000003
1970-01-01 00:00:15.300,3.1031918525,-13.35374498,2.7094230355,-0.76409357765,-0.2549523860100001,0.21486550570000007,-14.774199965000001,46.018398285,3.79419985395,5.2009990214999995,-4.274430752,4.508022785
1970-01-01 00:00:15.400,-3.7989050750000004,-16.81077576,-3.077020406499999,2.948483288,0.06368082762,-0.99598646165,-14.92059994,45.49379921,12.016999720000001,-1.89728623645,-6.029529095,2.386335939
1970-01-01 00:00:15.500,-4.16994199165,-11.697014333999999,1.2610174714,3.12784338,0.046271681785,-0.020387023650000002,-14.73149967,45.438898085,12.950299739999998,-4.372209668,-3.35418129,-2.0957515237999997
1970-01-01 00:00:15.600,2.332403779,-4.9120161535,-0.13713866500000005,2.7786679265,1.37303191435,-0.405526224545,-13.999499799999999,45.518198014999996,6.8502998355,3.3972542285,4.008742571,-5.620413064999999
1970-01-01 00:00:15.700,-1.4262718262,-1.517199099,-0.3430709839999999,-0.06742227050000005,2.7698868515,-0.9906415342,-13.36509943,45.10949898,-4.3859000205,0.5334732533000001,5.8221890925,-6.1137208935
1970-01-01 00:00:15.800,-7.3230842345,-13.101152418999998,11.2372932445,-0.4435514509500001,0.5185329465499999,-0.4905867111150001,-12.4805994,44.706899645,-15.640399455,-3.2321956155000002,-3.83358907715,6.795486927000001
1970-01-01 00:00:15.900,-5.0581279995,-10.3838033685,-2.8902305959999994,-0.582900995625,-1.35127052655,0.18775917964,-11.254499915,43.523498535,-22.82009983,-3.481430888,-1.2238337995,-4.671916723
1970-01-01 00:00:16.000,1.02397853125,-11.250603676499999,-2.7514469619999997,-3.1667848825,-2.4284996985,0.23555798082500007,-11.095899580000001,43.224599839999996,-23.918099400000003,1.6197407842000002,-0.7165975569999998,-5.7123620509999995
1970-01-01 00:00:16.100,0.6206383109999999,-7.376773119,-0.6542874682100001,-2.2247056965,-1.33508308975,-0.7199598253,-12.340299609999999,44.63979912,-17.567999365,2.374028235665,1.25074696525,-0.04776370525000001
1970-01-01 00:00:16.200,-1.2994522899,-8.354839325,0.5835496335,-1.5132976775,-1.84918732945,0.6383353771,-14.17639971,45.49989891,-7.637200118,-0.7976025345,1.2782654761,1.875629544
1970-01-01 00:00:16.300,3.8718861339999995,-12.934701919999998,1.9241284730000001,-0.8586985169000001,-0.34505235217999997,0.39659259465,-15.054799554999999,45.597499845,4.1785000565,5.978737831,-2.62128973,4.702716589
1970-01-01 00:00:16.400,-1.0516455469500001,-14.53400469,3.779612899,2.3084681036,0.1928750201915,-0.70759019255,-14.761999605,44.767898560000006,14.725399495000001,0.4171081781499999,-5.0222234725,6.813187837999999
1970-01-01 00:00:16.500,-5.5369915965,-16.756937025,-3.3403804305,3.549633503,0.6197045595,-0.0868930221,-14.109299660000001,44.224998475,18.324398995000003,-4.4023087025,-6.784219264999999,-2.350873947
1970-01-01 00:00:16.600,0.9844969807499999,-6.9853971005,-2.2224835155,2.9400078055,0.4127037077499999,-0.029091604049999997,-12.8343997,44.798398975,13.901899815,0.7470270400000001,1.05644011505,-4.767625332
1970-01-01 00:00:16.700,-0.07731807240000005,-1.7099708913,-0.5763711329999999,0.816015593565,2.772177577,-0.9442935288,-12.071899890000001,45.48159981,3.3305999709000003,2.9568836684999997,6.204024315,-8.069176197
1970-01-01 00:00:16.800,-5.9582780585,-14.5051410795,12.8017504195,-0.9601755066,0.8241856694,-0.94795856265,-11.437499525,45.957399365,-9.174399853,-3.466418624,-1.2960505484999998,4.7090297935
1970-01-01 00:00:16.900,-4.0897825365,-10.474731206,1.9817057845000001,-0.026419132950000035,-0.46393850455,-0.1308740228,-10.626199719999999,45.43889809,-18.30000019,-0.9912714959000002,-1.6073670384999998,1.4880334139999998
1970-01-01 00:00:17.000,-0.9990034401,-8.1873419275,-7.957481384500001,-2.940084219,-2.602361977,0.433777906,-10.345599655000001,44.41409874,-22.429699895,-0.18461477744999993,-0.22210311888,-11.935457710000001
1970-01-01 00:00:17.100,2.500050962,-10.5070335885,1.8774684669,-2.2405114175,-0.1879882216,-0.36185064889999996,-11.388700005,44.83499908,-18.702599525,3.3342114983499997,-1.6885929106499997,0.7507233619999998
1970-01-01 00:00:17.200,-2.4294627904999997,-7.685746193,0.6744768917499999,-1.474279821,-2.46156168,0.02771720289999996,-13.224799635,45.536499019999994,-10.296799660000001,-1.1908723416,2.0717096329999998,1.6251437665
1970-01-01 00:00:17.300,1.70144645855,-10.079765318,1.90618230405,-1.23597306015,-0.43255622591399995,0.87832200535,-13.93849945,45.48769951,0.12199997900000015,1.8484173419449998,-0.38454294199999994,2.9751198293
1970-01-01 00:00:17.400,0.02931213399999999,-14.17612791,3.47916406395,1.1218209713500003,0.0981173366,-0.5196019560499999,-13.420000075,44.786197665,11.6509995475,3.0564827917999997,-4.744564056,6.501338961
1970-01-01 00:00:17.500,-3.4960633515,-16.52229071,-3.0424739417999995,3.6243858335,0.20180866125000002,-0.53074992445,-12.706299784999999,43.6942997,18.159699439999997,-1.30029290925,-7.0781927105,-2.8875741959999996
1970-01-01 00:00:17.600,-2.3588744404999997,-11.3497557635,-0.542871654,2.6963561775000002,0.3896442056,-0.27075804024999994,-11.8034997,43.968797685,17.025099750000003,-1.3597451449,-2.2650632858499997,-2.7756592629999997
1970-01-01 00:00:17.700,1.6452150939,-3.3007491825,-1.274327641085,1.7064017949499999,2.8138678075000003,-0.7879929542499999,-11.108099939999999,44.53610039,9.5952999595,3.2316086294999997,5.063765764,-6.2131664755000005
1970-01-01 00:00:17.800,-0.8624630271,-1.7650057972500002,1.6824535134999998,-1.4825263025,1.3894483896,-1.070204377,-10.864099504999999,44.969198225,-2.1289000512500005,1.1252570154,6.5606527329999995,-5.725708723
1970-01-01 00:00:17.900,-5.125126839,-17.071742537000002,11.5568850055,1.293163657,2.290677309,-0.3695625961,-10.674999715,45.40229988,-12.443999765000001,-4.904482244,-7.3022689839999995,7.2546825429999995
1970-01-01 00:00:18.000,-5.533402443,-11.275578975,-4.6607698205,-0.3761291951,-1.2983558776000002,-0.08536590635000002,-10.308999539999999,44.54829979,-18.934399605,-3.0624433160000004,-0.6434526439999999,-6.89204383
1970-01-01 00:00:18.100,2.7335007190000002,-11.96979618,-2.6676981444999996,-2.9193918705,-1.984108269,0.6025244593500001,-10.546899795,44.438499455,-19.318698885,2.7289574145,-2.70857095702,-5.328204394499999
1970-01-01 00:00:18.200,-0.613459945,-6.591628313,0.9378369153999999,-2.3128967885,-0.58862769595,-0.79058906435,-11.632699965,45.371799464999995,-13.194300175,0.9297454354999999,2.3398649695000002,0.23516167699999999
1970-01-01 00:00:18.300,-0.8147561548500002,-8.657680988500001,0.8792127780000001,-1.4634373185,-1.9705169200000001,0.55312220005,-12.712399959999999,45.62800026,-4.385899842,-0.26141136899999995,1.2489950655,1.4042825105
1970-01-01 00:00:18.400,2.5622644425,-13.39681578,2.2030419115,-1.03195008625,-0.27175065880000004,0.473253909495,-12.70629978,45.371799464999995,6.8076001405,4.9866912365000005,-3.1024236675,4.944352626500001
1970-01-01 00:00:18.500,-1.6550854591,-14.565111640000001,2.8052853345,2.018086642,0.32565794139999993,-0.7136223316,-12.00479984,44.21279907,16.103999615,0.52771919967,-5.791487694,5.705439806
1970-01-01 00:00:18.600,-4.357928276,-15.284603115,-2.296511434255,3.500612855,0.3921639320000001,-0.247393145214,-11.370399475,43.816299435,18.45249939,-3.2554793355,-7.306828499,-4.658775985399999
1970-01-01 00:00:18.700,1.3042379357499998,-6.5555863379999995,-2.2787148950000002,2.852427602,0.85182648895,-0.30206397175,-10.254099844999999,44.353099825,13.456599715,2.361631632,1.7090907097,-5.6290142535
1970-01-01 00:00:18.800,-0.81341013335,-1.3028918726999998,-2.0235801935,1.21390625845,3.1045548915,-0.8191461861,-9.607499599499999,44.69470024,2.7206000387000002,1.7518576982,6.026861429,-7.467269658999999
1970-01-01 00:00:18.900,-5.720042467,-16.0912833235,12.315708635,-0.97689747835,1.1318235995,-0.8614473718,-8.9486999515,44.8715992,-9.680699587,-4.98111790185,-6.5504031175,6.7421543580000005
1970-01-01 00:00:19.000,-4.2921254635,-10.1792166255,-1.7566308975,0.20043425260000006,0.04573714699999998,-0.19936528804999998,-7.978799581500001,44.090799335,-18.44639969,-0.9233251812500001,-2.231005907,0.5495756860000002
1970-01-01 00:00:19.100,-1.36046925925,-8.0220874565,-3.9281173945,-2.8287573459999997,-2.4489629864999998,0.32451261581,-7.2467999455,43.224599839999996,-22.25889969,0.7484224435,1.9889643194999997,-13.041615005
1970-01-01 00:00:19.200,1.9517955779,-9.4320583355,1.5040386319999999,-2.169500351,-0.06322267655000002,-0.42018653475,-7.625,44.005399705,-18.629399300000003,3.411678791,-1.6197814940000002,1.5445866882500001
1970-01-01 00:00:19.300,-1.8142082095000003,-7.786244631000001,0.28773695219999995,-1.500546277,-1.9608960745,-0.13835689424999997,-9.4305996895,44.987499240000005,-10.6993999505,-1.27967834475,2.1993436811500002,1.4722633360000001
1970-01-01 00:00:19.400,0.8181958199999999,-10.310672760500001,1.7793627975500004,-1.6703618765,-0.5008183718,0.9264262318500001,-10.778699875000001,45.28029823,-0.7075999975,1.4331217408499999,-0.6116490363499999,2.05279851
1970-01-01 00:00:19.500,0.9354441170000001,-13.7066865,3.9795632359999997,0.6839962003,-0.16416519885000003,-0.40102121235,-10.748199934999999,44.694698335,10.3943996435,4.0941880941,-4.5048394205,7.820658206
1970-01-01 00:00:19.600,-4.016651869,-17.25359726,-2.27856542524,3.8768947125,-0.06039752627000005,-0.6507050543999999,-10.443199635,43.785799025,16.53709936,-0.9839189049999999,-7.679746151,-2.8247125145
1970-01-01 00:00:19.700,-2.840130925,-11.2408823955,-1.3664512635000001,2.763473034,0.6356629094000001,-0.20440475644,-10.119900225,43.6942997,15.04869986,-1.5326312185500002,-2.4547653197,-3.0726058485000003
1970-01-01 00:00:19.800,1.6033406556499998,-2.990878761,-2.3564816715,1.991820216,2.6996395590000004,-0.6913263798,-10.193099974999999,43.865098955,7.3138999935,2.8981298205000003,4.306277275,-5.933077573499999
1970-01-01 00:00:19.900,-1.802094519,-1.8249758632900002,3.3930227760000005,-1.4319786726000001,1.5568969846,-1.1370921431499998,-10.248000144999999,44.566598895,-4.6176998615,0.8393282294,7.135314465,-4.6120141745
1970-01-01 00:00:20.000,-6.596413612,-17.437993766,9.8810112495,0.6317687780000001,0.67376453439,-0.2745758444,-10.0833001125,45.005800245,-14.737599370000002,-5.7279192193499995,-9.539373877,9.401940347
1970-01-01 00:00:20.100,-3.9665521385,-9.099306585999999,-3.5223845835000005,-2.32496106615,-2.0789422985,0.37338038535000007,-9.8514995575,43.93829918,-20.85589981,-2.445498109,-1.736824751,-9.641124723
1970-01-01 00:00:20.200,2.7106194199,-12.01062393,-0.16106688950000003,-2.3703927995000003,-0.727213636,0.09269607069999997,-10.144299985,43.90779877,-20.587499615,4.2274222375,-3.446156979,-3.7372624885000003
1970-01-01 00:00:20.300,-1.3413266240500001,-6.972236395,1.194018483,-1.6137057540000002,-2.095435262,-0.47814070060999997,-11.077600005,44.8898983,-13.932399270000001,-0.02347946150000002,2.7150449754999997,1.1326915620000002
1970-01-01 00:00:20.400,-0.650698199895,-9.049057007,0.4673482179999999,-1.6787610050000001,-0.6232932805500001,0.8381587863,-12.15119982,45.207099915,-5.184999943,0.18561342365000005,1.0260996817,1.676281929
1970-01-01 00:00:20.500,3.169144154,-13.236496445,3.2385360005,-0.0374907404,-0.26862008125000003,-0.15126106144999996,-12.407399654999999,45.225399015,5.782799721,5.093943119,-4.164502144,5.485351324
1970-01-01 00:00:20.600,-1.4346467255,-15.127573965,-1.5484552385000003,3.6986801624999996,0.03642177584999995,-0.6934643685999999,-11.766899585,44.468999865,14.182499884999999,0.02587383984999997,-5.0895733835,4.570365041700001
1970-01-01 00:00:20.700,-5.776423335,-15.002100944999999,-0.040229320500000054,2.6617668864999997,0.65788251155,-0.1511083394,-11.028800010000001,44.383598325,14.890099525,-4.934909463,-6.6644854545,-3.644359708
1970-01-01 00:00:20.800,0.81565347305,-5.687739372499999,-2.610270381,2.4417091605,1.9813594225,-0.5567109138,-9.881999969999999,44.68249893,9.0279998775,1.3282862005,1.7280161380499999,-6.4000344275000005
1970-01-01 00:00:20.900,-0.80742809185,-0.14656037094999996,-1.2468101382999999,-0.5647282897,2.4117012620000002,-0.9071845413999999,-9.1438999175,44.676399235000005,-1.8116999269999998,1.1972233654,7.305468320499999,-7.0138967035
1970-01-01 00:00:21.000,-4.5349969865,-11.221740245,8.309226035999998,0.2670165971,1.03095749015,-0.36009445039999993,-8.2105998995,44.627599715,-13.29189968,-3.7229824664,-6.678885937,8.3161373135
1970-01-01 00:00:21.100,-5.0533424615,-11.389237256400001,-0.11904299250000006,-1.367686987,-1.7028894419999998,-0.0366508364699999,-7.277299881,43.736999510000004,-20.53259945,-2.8492047787,-1.7170176494999998,-1.84779453295
1970-01-01 00:00:21.200,0.24720850216999996,-8.581110956,-3.111865759,-2.15041139745,-2.2928915620000003,0.25815930963,-7.063799857999999,43.438100815,-22.447999955,2.0958564877,1.0847024915999999,-10.149446964500001
1970-01-01 00:00:21.300,1.5913766025,-9.426225664,1.810469449,-2.494929314,-0.36521029475,-0.2531198263,-8.356999874,44.810598375,-17.41549921,3.276137829,-0.9389824865000003,1.6345292329999999
1970-01-01 00:00:21.400,-1.9686948655000003,-7.808976889,-0.6136094335000001,-1.4707674385000002,-2.8079121115000003,-0.31985488535,-11.004399775,46.01229858,-8.430199863,-1.5819675925,2.054102898,0.7938902378949999
1970-01-01 00:00:21.500,2.7273691894,-11.141580581500001,3.3151061535,-1.7154117819999999,-0.43301434815000006,0.9047411381999999,-12.67579937,46.158699035,2.6657000035500005,3.1521493200000004,-1.2169761655,4.99159956
1970-01-01 00:00:21.600,0.309272349,-15.08704567,3.820290923,0.8470924532499999,-0.213643834,-0.5576272011,-13.13329935,45.170497895,13.731099605,2.425800561885,-5.0805478095000005,6.6409893035
1970-01-01 00:00:21.700,-4.7660539150000005,-17.375780105,-2.4318554399999996,3.8064947129999998,0.14805410428000002,-0.47630816699999995,-13.4138999,44.53609848,18.940499305000003,-4.431907177,-7.231374263500001,-1.6352905632
1970-01-01 00:00:21.800,-0.13474580644999995,-7.4080295565,-1.1008479593499998,2.8488389255,0.581602931,0.035658210530000053,-13.041799545,45.10949898,16.17109966,-0.85854491585,-0.051830292,-5.215624093999999
1970-01-01 00:00:21.900,1.2981062981,-1.7877376263395,-2.145763695,2.105666876,2.893201709,-0.5741200596,-12.803899765,45.774398805000004,6.783199668,3.08438015,5.704257488,-7.8328077795
1970-01-01 00:00:22.000,-6.971040009999999,-8.944969179000001,6.9818080045,-1.30049380635,1.37112303825,-0.9887326359499999,-12.504999640000001,46.268497464999996,-6.429399729,-2.3045740129,3.72129774105,-0.11634993550000017
1970-01-01 00:00:22.100,-3.1561330555,-11.1978120815,5.894868135499999,0.74210307005,0.8435037357999999,-0.186384774735,-11.766899585,46.164798735,-17.110499385,-1.76208198045,-4.56595563905,4.3984668255
1970-01-01 00:00:22.200,-1.5029917061,-8.370392797000001,-9.82373333,-2.570216179,-2.4927148814999995,0.23517619819500002,-10.809199809999999,45.03629875,-23.247098925,-0.62021660805,-0.42184710495000005,-12.64134121
1970-01-01 00:00:22.300,2.9344979525,-10.37901783,2.8854449389999997,-2.477138281,-0.3024457544,-0.12507095934999996,-10.74819994,45.26809883,-21.697699550000003,3.5830423835,-2.22443151495,0.6495022475500001
1970-01-01 00:00:22.400,-1.839332819,-6.6083779335,0.9677472265,-1.7118994,-2.1777468325,-0.5117372839334999,-12.12680006,46.414899825,-14.072700025,-1.04630804065,3.051796198,1.9336251020000002
1970-01-01 00:00:22.500,-0.34546378265000005,-10.81107187,0.5679962635,-1.8526998159999999,-0.45217967035000006,0.80517303945,-13.413899425,46.56129837,-4.093100011,0.47503209109999994,-1.1569466591,1.7434386014999999
1970-01-01 00:00:22.600,3.1595727205,-13.98216009,3.3894332645,0.08918369565,-0.35513132810000003,-0.18103984,-13.682299610000001,46.091598515,7.9787998205,5.018167972500001,-3.9681277275,5.289873123
1970-01-01 00:00:22.700,-2.7897320985,-17.367405415,-3.159722328,3.8210786580000002,-0.05520531534999995,-0.7554653288000001,-13.44439983,45.12779808,16.097899915,-1.2612186075,-6.6661133765,0.013945579500000083
1970-01-01 00:00:22.800,-2.76819676165,-11.9711418165,0.17048871500000007,2.952377558,0.8216658533499999,-0.03153498889799995,-13.005199905000001,45.13999748,16.54320002,-2.3350221813000003,-3.31409263605,-1.3380385040000002
1970-01-01 00:00:22.900,1.9983059765000002,-4.349553227,-1.9793130159999999,2.7239207025,2.388870835,-0.3653630204549999,-12.382999900000002,45.579198835,10.0283999435,2.5274477603000003,3.395761013,-3.8336554765000006
1970-01-01 00:00:23.000,-1.9722840785,-1.20837539415,0.7727321385000001,-0.8249492349499999,1.85590675465,-1.205659777,-12.114599705,45.95129967,-1.8909998535,0.46282172194999993,6.2505333425,-6.799811363
1970-01-01 00:00:23.100,-6.349803686,-14.643027304499999,14.059777259,0.2399866283,0.92001235475,-0.22479178755,-12.053599835,46.396600725,-13.206499574999999,-3.7297297714599997,-3.851416111,5.1523430345
1970-01-01 00:00:23.200,-3.8491543530000003,-10.0138131365,-7.9586777705000005,-1.856059432,-1.8046718839999998,0.06833853665,-11.803500175,45.69509888,-20.776599885,-2.10747480395,-2.0141663564999996,-6.66826891905
1970-01-01 00:00:23.300,2.80887466675,-12.877274035,-1.4335998295,-2.7841655015,-1.2767470777999999,0.2938939035,-12.77949953,45.725599290000005,-21.722099305,4.193613529,-3.8585762975,-5.494354723000001
1970-01-01 00:00:23.400,-0.6195915638999999,-6.462266207,0.83374917515,-1.9104248285,-1.8336871265,-0.7124006002500001,-15.16459942,46.963899615,-14.993799685,0.8666988610000002,3.1053886415000003,0.443853557
1970-01-01 00:00:23.500,-0.7691429554,-8.736644268,-0.48305109125000006,-1.5123050805,-1.2434559317999998,0.8288433553500001,-17.750999450000002,47.311597825,-5.3862998485,-0.07724681495000002,0.7535214424000001,0.8667196037
1970-01-01 00:00:23.600,2.6914768220000003,-13.292728425,2.7106194495,-0.66765602659,-0.29641363769999995,0.15225367245000007,-19.019800185,47.10420036,6.819799663,4.563723921999999,-3.1487646105,5.2596092225
1970-01-01 00:00:23.700,-0.31316067275,-15.87697601,2.64960232355,3.5355838535000004,0.33871480075,-0.8561787901,-18.733098984999998,46.036699295,16.84209967,2.6078647375,-6.8329391479999995,5.760771513
1970-01-01 00:00:23.800,-6.113960743,-16.2517519,-2.6796622274999997,3.043470025,0.579388602855,-0.22547899184999995,-18.257300375,45.61579895,18.51350021,-4.092522383,-7.235325813499999,-5.1107413175000005
1970-01-01 00:00:23.900,1.3568800095000002,-5.1059844495,-4.0694436729,2.8612085584999996,1.7858883145000002,-0.5212817936999999,-16.95800018,46.073299410000004,12.4012994775,2.067000985,1.5492672920350001,-6.670914649999999
1970-01-01 00:00:24.000,-0.68060846927,-0.01256230475000003,-1.71969169355,-0.44278791535000006,2.6174041624999997,-1.1222791372,-15.756299495,45.933000565,-0.14030003549999992,1.0676047801,7.107033968,-8.249313831
1970-01-01 00:00:24.100,-3.7558343410000004,-12.220145225,9.766155721,0.39598174114500007,1.313016176,-0.42026291785,-14.29839945,45.4815979,-14.072699544999999,-1.8322488665999996,-4.8514668940000005,7.501836061500001
1970-01-01 00:00:24.200,-4.790131807,-8.710322857000001,-1.0061819554999998,-1.018740535,-1.586981177,-0.1021642014,-12.187799935000001,44.041999815,-23.704599379999998,-3.169705391,-1.14462018,-5.050607444000001
1970-01-01 00:00:24.300,0.09870398050000007,-10.935647966000001,-2.8172496556,-2.88197732,-2.5180651545,0.39162945745,-11.01049948,43.236799239999996,-26.602099420000002,0.498556137,-0.88317632675,-5.075423240499999
1970-01-01 00:00:24.400,0.8983554244999998,-8.2986080645,0.6659524739,-2.507069826,-0.22692975400000004,-0.511890020235,-11.57169962,44.56049919,-20.990098955,2.8193317055000002,0.31174087500000014,0.8002453446950001
1970-01-01 00:00:24.500,-2.064407766,-8.5689969065,-1.183400333,-1.5991217494999999,-2.7268221375,-0.10705098509999997,-13.93239975,46.00009918,-10.7421000025,-1.4320417045,1.4053649902999998,-0.12253546704999996
1970-01-01 00:00:24.600,3.2026435135,-11.83340502,2.1157039405,-1.46511718605,-0.56953871813,0.8152520359,-15.664799689999999,46.579599380000005,2.0129998325000003,4.268807768499999,-2.41461277,5.085609316999999
1970-01-01 00:00:24.700,-0.11081761150000002,-13.601551535,4.950301409,0.8079982104500001,-0.09025267513000006,-0.22860958425,-15.99419975,45.7682991,14.060499664999998,1.787031293,-4.384142876,5.8070123195
1970-01-01 00:00:24.800,-3.1045377849999998,-16.315162179999998,-2.6210380195000003,3.7392251495,0.76340636615,-0.76951482895,-16.012499804999997,44.95089912,19.6602993,-1.3492848275,-6.985719204,-2.6377046404
1970-01-01 00:00:24.900,-2.543121815,-8.1824066645,-1.7699410320000002,2.8916745185000003,0.5884749889,-0.3277195543,-16.140600205,45.042398455,16.756699085,-2.54686451,-0.8333234789999999,-3.7742898465
1970-01-01 00:00:25.000,1.8309580237,-2.0367407205,-2.9813075065000003,2.254484534,2.7675198315,-0.5705313384499999,-16.805499075,45.158298495,6.691699981999999,2.8087776305,4.6409947875,-7.3706853390000004
1970-01-01 00:00:25.100,-5.8087263986,-8.140531836549998,7.2151081267090005,-1.27079138175,1.7806961087,-1.133579791,-16.84209919,45.24979973,-7.258999704000001,0.1651468279999999,5.4338243004999995,0.5595202444999994
1970-01-01 00:00:25.200,-3.8816070555000004,-13.075878620000001,2.3838495014999994,0.89962530135,0.76157383615,0.0749815005255,-16.256499769999998,44.853300095,-18.879499435,-3.6350387335,-7.548185348500001,3.9099781515
1970-01-01 00:00:25.300,0.154935241,-9.311220766,-6.8035423755,-3.013920307,-2.8676223755,0.25479967145,-14.87179947,43.145298005,-25.674899099999998,2.30192720915,0.6651031970000001,-16.180335995
1970-01-01 00:00:25.400,2.3946173637,-9.355488063500001,2.50244371602,-2.4141447544999997,-0.4461475758,-0.42194275549999993,-14.438699719999999,43.71870041,-23.667999265,4.225483656,-1.5159788134999999,2.48201049845
1970-01-01 00:00:25.500,-2.16131705,-7.418797254499999,0.4685445575,-1.6850221154999998,-2.582738519,-0.31260108945,-16.45169973,44.8898983,-15.402499675,-2.0092722775,2.520308018,1.5527407525
1970-01-01 00:00:25.600,1.8140587101200003,-10.076176167,1.5339489134,-1.7037293315,-0.5788541285000001,1.004843712,-17.549699779999997,45.38399887,-4.1845999362,1.9735819099,-0.9487195016000001,1.4113131170000002
1970-01-01 00:00:25.700,1.7470596637100002,-14.46700573,3.442075312,0.27190339585,-0.1618745178,-0.16095825843,-18.31829929,45.438899995,8.783999678999999,3.962184548,-4.3140387535,6.531854868
1970-01-01 00:00:25.800,-4.476522445500001,-17.13993835,-3.0064321923,3.8190934655,-0.03222221139999998,-0.8493831308,-18.11699963,44.26769829,16.421200275,-1.6611065865,-8.0838193895,-2.5270431040000005
1970-01-01 00:00:25.900,-2.46535512785,-11.413166045499999,-1.2659527695000001,3.0298787355,0.8548043892,0.03626905661,-17.11660004,44.32259941,15.951499939999998,-1.7649255395,-2.7529191973000002,-3.1792691946500002
1970-01-01 00:00:26.000,1.7817555664999998,-3.87906456,-2.697608411,2.3039631245,2.4243001345,-0.6245149821,-15.8416996,45.03629875,8.3020999445,3.7264746425000004,4.2519533635,-3.3777149914999995
1970-01-01 00:00:26.100,-1.8847965298999998,-1.658525230475,3.4612181189999998,-1.19550444905,1.7454196585000001,-1.2633848487,-14.993799684999999,44.98749924,-4.318799912999999,0.6893756984500001,6.609359264,-4.736183881650001
1970-01-01 00:00:26.200,-5.9919269085,-15.8591794985,10.5501046155,0.50051298735,0.84022040675,-0.067574974135,-14.786399840000001,44.499498365,-15.481799125,-5.465530273950001,-6.672515393,9.2347629065
1970-01-01 00:00:26.300,-3.514009595,-9.6104731565,-5.475974798500001,-2.42208579195,-2.2051586509999996,0.1912715435,-13.65789986,43.401498794999995,-22.44190025,-2.3220505118,-2.5335474030000005,-11.485012054999999
1970-01-01 00:00:26.400,3.1009486021,-12.572039605,-0.028115659950000038,-2.5806006195,-0.9562813544850001,-0.06742227074999996,-13.901899815,43.4076004,-22.14909935,4.850905299,-3.4498739245000003,-3.376674831
1970-01-01 00:00:26.500,-2.5313072204999996,-6.9302127365,0.8792127668,-1.7093033195,-2.5861746070000002,-0.5516714604749999,-15.689199445,44.62759781,-14.700999735,-0.30989539599999993,2.84582305,1.067885697
1970-01-01 00:00:26.600,0.48888361449999995,-10.2879409775,0.20174491400000005,-1.5733134745,-0.71789823835,0.9760575293,-17.86689949,44.487298965,-4.6847997905,0.44920200099999996,0.05061817170000002,1.9623553752499998
1970-01-01 00:00:26.700,2.399402797,-12.97418356,4.2355952265,0.30885961665000006,-0.17531315979999998,-0.2986279391,-18.67210007,44.279899595,7.6676995755,4.7219469545,-3.8815460205,5.681675434
1970-01-01 00:00:26.800,-1.7125132084999999,-17.05499315,-3.055634379,3.8322266345,-0.06001573804999999,-0.7371399105,-18.611099245,43.267297745,16.37849998,-0.7278438809999999,-5.650686264,0.1778411864999998
1970-01-01 00:00:26.900,-2.49406886105,-13.133455278000001,0.7594220635,2.787448764,1.2707149833,0.007635589690000007,-18.123099330000002,43.13920021,16.823799135,-3.4795105459999998,-5.417570114,-2.2530107498499996
1970-01-01 00:00:27.000,2.28454729895,-2.7047868969,-2.9742785094000004,2.452628076,2.237075329,-0.44500221315,-16.54319954,44.09689903,9.576999902,2.1792094407150002,3.8637025355000003,-6.621305227500001
1970-01-01 00:00:27.100,-0.8219345659499999,-0.69840510195,-0.9523434343,-0.8932113812649999,2.3080099819999997,-1.255138427,-15.37809992,44.005399705,-2.9829000532,1.19612848765,6.645151137999999,-7.179503918
1970-01-01 00:00:27.200,-7.515855788,-14.119896890500002,11.7041931155,0.6783459037,0.90741357185,-0.25594499709999996,-14.17639971,43.438098905000004,-15.048699855,-2.722694755,-4.23625612265,7.1489622595
1970-01-01 00:00:27.300,-4.164109707,-8.6012999995,-3.1633115409999997,-2.12910813095,-2.1129207015,0.29771168530000003,-12.199999810000001,42.15709877,-23.0152998,-2.27609932435,-0.25303554500000014,-5.4905023580000005
1970-01-01 00:00:27.400,3.626472354,-12.944272995,-2.629413127,-2.901371717,-2.32610631,0.5376983285,-11.333799835,41.69959831,-24.442700385,3.133010507,-3.4339618685,-4.359693408
1970-01-01 00:00:27.500,-0.7069295942999999,-6.8059353824999995,0.90553385025,-2.3579467535000003,-0.65543910875,-0.8680903317499999,-12.328099725,43.041599274999996,-18.080399515,0.8467010260000001,2.1055011749,0.03474339839999996
1970-01-01 00:00:27.600,-1.1449656485,-8.670841217,-0.7679464965499999,-1.5196353195,-2.547920227,0.30641623959000003,-14.359399795,45.481599805,-8.570499659,-0.5955305396949999,1.00417089485,-0.055788099499999966
1970-01-01 00:00:27.700,3.7114175560000002,-12.49771261,3.5736807585,-1.3655489981,-0.46164780879999995,0.76905672265,-15.530599595,45.554798125,3.74539986245,5.100926161,-2.886841774,5.286372661500001
1970-01-01 00:00:27.800,-1.186989546,-15.061921595,2.66635216314,1.8926339147,0.5648809969499999,-0.70140536125,-15.335399625,44.590997695,14.725399495000001,2.1802213195,-6.464274883,5.640460968
1970-01-01 00:00:27.900,-4.7457151415,-16.28285837,-3.24945322405,3.5603996515,0.6934643535,-0.4173613749,-15.54889965,44.292099,18.440299035000002,-3.969968557,-7.6291446685,-4.272433519550001
1970-01-01 00:00:28.000,1.0215857328999998,-6.3173508645,-2.416302204,2.9450473785,0.903290361,-0.09338327402999999,-15.457399845000001,44.902097705,14.725399495000001,1.91915488235,2.1672663689,-6.1000156400000005
1970-01-01 00:00:28.100,-0.19935202600000002,-0.86246304235,-2.107478559,1.2722421588,2.7869142295,-0.7790593207000001,-16.0673995,46.02449989,4.00159984835,2.28738281115,6.628493786,-6.6397411825
1970-01-01 00:00:28.200,-5.4831531049999995,-16.4433273075,9.9874923245,-1.001713200464,1.4043378232000001,-1.23070451635,-16.732299805,46.567398069999996,-8.814499617500001,-5.355435726685,-7.358922484,3.584098816
1970-01-01 00:00:28.300,-3.6146576405,-7.77772058045,2.3994028564999996,-0.24380439539999998,-0.30840152500000007,-0.49310645459999997,-16.88479996,45.87809944,-18.96489906,-0.65390694125,1.6044185163,-3.0583031160000003
1970-01-01 00:00:28.400,-0.6399304870000001,-9.123234272,-5.642425418,-2.3325202464999997,-2.0860434175,0.352687928845,-17.549699785,44.73739815,-23.60700035,-0.7400499585000002,-1.3331551550000003,-9.912173747
1970-01-01 00:00:28.500,1.9996520285,-10.753643987,2.165953219,-2.433386445,-0.5693096369499999,-0.3316900581,-19.282099725000002,44.975299835,-20.270299915,3.0624763965,-2.1487021445,0.05816131800000002
1970-01-01 00:00:28.600,-2.2725833655,-7.6749784944999995,-0.9571290908500001,-1.458168745,-3.217027068,-0.13545536995000002,-21.532999995,45.078998565000006,-11.596099854,-2.2350919245,2.0028412345,0.8721370101
1970-01-01 00:00:28.700,4.787589490499999,-10.8471136095,3.5006995200000004,-1.3479872048500001,-0.7161420584,0.905275613,-23.137299534999997,45.066799165,0.39649999150000026,4.360566378,-1.36502027515,5.845831752
1970-01-01 00:00:28.800,-0.5584249941,-15.43774414,4.236941098999999,1.603244926585,0.44660571215,-0.72118154165,-22.7347002,44.334798815,12.5293998725,1.7948297859,-5.2428383830000005,6.5495712755
1970-01-01 00:00:28.900,-3.9366419314999996,-18.163317685,-2.7574291229999996,3.6143068075,0.6969767513,-0.42392800750000004,-22.460199355,43.621099475,18.245099070000002,-3.7696087360000003,-8.240792751499999,-2.0885081889999997
1970-01-01 00:00:29.000,-0.16704893099999996,-6.9758255485,-2.601745963,3.074470639,0.72927527515,0.012293301539999996,-21.630599025000002,44.05419922,15.402499200000001,-0.7935492693999999,0.4959611895,-5.158906936499999
1970-01-01 00:00:29.100,1.6691433487,-0.87323072555,-1.8620646,1.301410109,2.8744944329999997,-0.6423822641000001,-20.92910004,44.194499965,4.6970000265000005,3.331814289,6.549860000499999,-7.623855591
1970-01-01 00:00:29.200,-7.889136194500001,-13.257882354500001,7.6245799665,-1.1563338341,1.3492852446999999,-1.0546278061,-19.83109951,44.16399956,-9.833199737000001,-2.7675333617000004,1.4385690689999997,1.1996171475000001
1970-01-01 00:00:29.300,-3.7582271695,-5.881707668500001,1.0933704375,-0.3083251414,-0.249225676,-0.3904841095,-17.78149986,43.224599839999996,-21.392700195,0.3640873432,2.2417478564999995,0.7730095385000002
1970-01-01 00:00:29.400,-1.0504491329999999,-12.256037236000001,-4.9384868145,-2.3425992725,-2.5265406375,0.3227564198699999,-15.8416996,41.89479828,-27.437799455,-1.9246160984999996,-5.258024695,-8.3351397515
1970-01-01 00:00:29.500,2.2534407077500003,-11.169097902499999,0.97731855495,-2.48317039,-0.34894651175,-0.24808032810000002,-15.463499545,42.425498965,-25.31499958,3.705951452,-1.83712053275,-2.2964033486
1970-01-01 00:00:29.600,-2.7683463095,-7.7537922859999995,0.73310102505,-1.591409862,-2.8066904545,-0.31122666600000004,-16.964099885,43.877298355,-16.701800345000002,-1.6042095721999998,2.3091156484999997,1.8384131195000002
1970-01-01 00:00:29.700,2.04391917601,-9.976874352500001,1.8308084307999999,-1.6099643114999997,-0.32840675115,0.9049702287500001,-18.72089958,44.828899385,-5.520499706500001,1.9042057096,-0.77886152245,2.71113628155
1970-01-01 00:00:29.800,0.8431708214999999,-12.777971745,4.4464627505,1.23246067785,-0.14667969939999997,-0.44912545385,-19.135699270000003,45.066799165,6.6062998775,3.4163960813500003,-3.4600038525,7.5712466240000005
1970-01-01 00:00:29.900,-2.004587173,-17.811424255,-3.7199418544499996,3.8276453014999996,0.71285872145,-0.55449658635,-18.367099760000002,44.633699415,13.90189934,0.12605905549999996,-8.265158176,-3.2812023140000006
1970-01-01 00:00:30.000,-2.4498018029999997,-11.9711422945,-0.8457132579,3.013691306,0.9953756332,-0.213414754705,-16.92749977,44.712999345,12.919799805,-1.5752842426,-3.1123051644000004,-2.9221970441
1970-01-01 00:00:30.100,2.1013469695,-3.4552358389999998,-2.7729823590000002,1.918747604,3.099362731,-0.7747070193,-15.170700069999999,44.694698335,4.9409998655,2.7052710655,3.8992786410000004,-6.946809291499999
1970-01-01 00:00:30.200,-3.0387352105,-2.042722702,3.7030425074999997,-1.3053042295,1.1838983597500001,-1.00339299425,-13.16989994,43.7186985,-7.563999892,-0.35962343210000003,7.924472570500001,-3.0011496545
1970-01-01 00:00:30.300,-3.286541939,-14.933905364,9.810273886000001,0.35673476774999996,-0.09330695849999993,-0.3909422457499999,-11.71810007,43.084299085,-18.342700005,-3.2296586630000004,-8.627569915,8.7221641545
1970-01-01 00:00:30.400,-3.7331024405,-9.719495772999998,-5.726174116,-2.70612967,-2.5767828230000003,0.43820655345,-11.45579958,41.75449753,-24.564699175,-3.0373578070000002,-2.9416151049999995,-8.572916509
1970-01-01 00:00:30.500,3.353540957,-11.518599509000001,0.997657478,-2.2988473175,-0.24433891474999997,-0.27732464675,-12.004799845,42.053398134999995,-23.576498985,3.9020457865000004,-2.971338749,-2.9404124617849994
1970-01-01 00:00:30.600,-2.108674884,-7.316952467,1.4394323825000002,-1.793447495,-2.465990305,-0.7614210844,-14.26179981,43.956598285,-16.29309988,-0.7434722485,2.9599335195,1.9551706315
1970-01-01 00:00:30.700,0.6097211243,-9.968499186,-0.2030909059999999,-1.3997564914999998,-1.5901880862,0.7748597564,-16.518799780000002,44.816698075,-6.032899976,0.8356676099999999,0.24675226212499998,2.0556797982
1970-01-01 00:00:30.800,2.49033026385,-12.901202205,3.7676488165,-0.8055547999000001,-0.24617145212499994,0.23899398745000003,-17.06779957,45.335199355,6.1914999485,4.4212629795,-4.075510979000001,5.472548722999999
1970-01-01 00:00:30.900,-1.7866908014499998,-17.00235128,-3.0329027175,3.1360898015,0.37093698975,-0.80990710855,-16.97020054,44.84719849,14.73149967,-0.9795577530000001,-6.2744679450000005,-0.012890338499999654
1970-01-01 00:00:31.000,-1.8512969463000002,-12.4211421035,-0.06774687800000012,3.1624325515,0.6374954429999999,-0.09422318731000001,-16.970199585,44.999698635,15.359799384999999,-2.62838256365,-4.236436844,-1.7576689125000002
1970-01-01 00:00:31.100,2.5156043175000002,-3.771387458,-1.1798111347,2.8631937499999998,1.6325656175499998,-0.23105297985,-16.4394989,45.39009857,8.3996999275,2.8847239612499997,4.0478920935,-6.514706134999999
1970-01-01 00:00:31.200,-1.022931695,-0.5847460179999999,-0.13235294799999986,-0.2989333866,2.6245052815000003,-0.9705599247500001,-15.86609936,44.633699415,-4.2089999916,0.899922967,7.177482128,-5.6841511725
1970-01-01 00:00:31.300,-8.012516022,-16.58809352,11.1966149825,-0.26136624814999987,1.3408860862999998,-0.6781168135,-14.75589991,44.475099565,-16.24429941,-2.35421377415,-2.7853927615,6.860812428000001
1970-01-01 00:00:31.400,-3.801297903,-10.544122696,-2.5468605755,-0.5332696663,-1.13304536069,-0.07146912815,-13.999499795,43.09039879,-24.412199970000003,-2.8117729425,-1.740843296,-5.67814850645
1970-01-01 00:00:31.500,1.3339986205,-11.338988305,-1.8680467605,-2.7956951855,-2.3605428935,0.18470494077,-13.340699675,42.63289833,-26.327599525,1.911355555,-1.5990757943,-3.9535138605499998
1970-01-01 00:00:31.600,0.558275461,-7.1949186325,0.1609173417,-2.265097976,-0.9643751085999999,-0.8344173727499999,-14.86569929,44.096899035,-20.75829983,1.853531659,1.17880344375,-0.45226532235
1970-01-01 00:00:31.700,-1.0600204023000002,-8.3201437,-0.07612168790000007,-1.4129660725,-2.267235994,0.42133189738,-17.23249912,45.02409935,-11.748600007,-1.132139474,1.20550322535,0.9450932144499999
1970-01-01 00:00:31.800,3.928117514,-12.636645795,2.3084756432,-1.09685258565,-0.56610269865,0.53968356548,-19.00759888,45.329099655,0.1281000375000001,5.3505756855,-2.2773160935,4.779135704
1970-01-01 00:00:31.900,-0.856630519,-14.903845310000001,4.3326539995,2.2724280656999998,0.51784577965,-0.64169505235,-19.21500015,44.975297929999996,11.095899584000001,0.8427816630999999,-5.711645126500001,6.6224451065
1970-01-01 00:00:32.000,-4.13883543,-16.35225058,-3.6288651003899997,3.4038699864999997,0.87099182625,-0.28144787810500005,-18.83679962,44.65810013,14.822999475,-3.2115273474999997,-7.378681183000001,-3.5894482735000004
1970-01-01 00:00:32.100,0.832552731,-6.377321005,-1.9351952675000001,2.9698630570000004,1.044319691915,0.014125842602999998,-17.671699525,44.78619957,10.6201000225,1.1449672878500001,1.97389507275,-5.785159826500001
1970-01-01 00:00:32.200,0.20279169099999994,-1.170090258365,-2.1613170505,0.6791857926,3.0796627995,-0.8480086923000001,-17.04949951,43.724800110000004,0.012199997500000004,3.1142484546,6.033156633000001,-7.5624666215
1970-01-01 00:00:32.300,-5.6974600550000005,-16.07214117,12.112318514999998,-0.7673768696500001,0.9261208175,-0.82227676007,-15.707499505,43.34659958,-12.736799716,-5.82180822025,-7.567533972,6.7564622182
1970-01-01 00:00:32.400,-4.3577786685,-8.7930250175,0.141774893,-0.17164808505,-0.69170811775,0.0016798377000000198,-14.395999905,42.498699189999996,-21.960000039999997,-1.8336803915000002,-0.48216819750000006,-4.7528450509999995
1970-01-01 00:00:32.500,1.3688441515,-10.9045414905,-1.4970097545,-2.975513339,-2.017552197,0.208069853475,-13.49319935,41.723999025,-25.8151989,1.7940310237999997,-0.9920964240000001,-5.7872416975
1970-01-01 00:00:32.600,0.18604195099999998,-8.0089268685,0.8409275933799999,-2.397499204,-1.2158914803,-0.99560466395,-13.944599629999999,42.70610046,-21.545199394999997,2.1001252530500003,1.121138573,0.6359540224
1970-01-01 00:00:32.700,-1.43359982945,-8.162067412999999,-0.880558759,-1.474814355,-1.9983868005,0.6035934612,-16.787199975,44.060298919999994,-12.63920021,-1.2062646746999999,1.7760455606,0.6082823275
1970-01-01 00:00:32.800,3.6228829620000003,-11.948260785,2.914158821,-1.1038773359,-0.55755081755,0.47974416985,-18.73919964,45.243698120000005,-1.2749000785,4.5255750415,-2.0893692969999997,5.447542429
1970-01-01 00:00:32.900,0.7450651266814999,-15.33844185,2.900998354,2.4213221369999998,0.7842515110999999,-0.818611711,-19.458999634999998,45.207099915,10.400499821499999,2.6743962765,-5.6860585215,4.7074377535
1970-01-01 00:00:33.000,-5.077270746,-16.91486311,-3.170490146,3.4108947515,0.64047336585,-0.14393088225000006,-19.6480999,44.981399534999994,15.182899475,-4.978829503,-7.024862766,-2.3337669967999997
1970-01-01 00:00:33.100,1.634447396,-7.038038969,-1.87283232795,3.0188834665,0.9954519572000001,-0.12247487531499994,-18.80019951,45.15219879,11.400899409,0.7585210798,1.10179352755,-4.5876665115
1970-01-01 00:00:33.200,1.1988041101000002,-1.3423735348499997,-2.1038892865,0.3711660502500001,3.045684457,-0.9865947067,-17.23859978,45.347398760000004,0.5123999115000002,3.4960253239999997,6.241909980999999,-7.1384794715
1970-01-01 00:00:33.300,-5.8960644015,-16.414613843,11.768649815,-0.420568347,1.4288480879,-0.7543963503100002,-15.695299625,44.584897995000006,-12.986899374500002,-4.672076819,-3.2416887260000005,4.8213886045
1970-01-01 00:00:33.400,-5.217400193,-10.135996579499999,-0.7260720730000001,-0.22876232874999997,-0.9785009447749999,-0.06665870545,-14.066599365,43.438098905000004,-23.52769947,-2.01660710585,-3.2751817701999997,-2.985653162
1970-01-01 00:00:33.500,0.10109674930000001,-9.228668453,-3.0279675725,-3.0935596225,-2.0178575815,0.3649048805,-12.047499655,41.92529869,-28.462599755,1.6013702153,0.23689842249999993,-11.723265170000001
1970-01-01 00:00:33.600,2.3898317331100003,-8.5606219785,1.3280165789999998,-2.3525255325,-1.302097246,-0.9823187589,-12.065799715,42.822000505000005,-25.217399595,3.6788731809999997,-0.244473457,1.01567362255
1970-01-01 00:00:33.700,-2.151745677,-7.7084782125,-0.149102807,-1.392579079,-2.655047655,0.1798945217999999,-14.103199485000001,44.46899986,-16.787199975,-1.8029208184999999,2.1645798684999997,0.80956464985
1970-01-01 00:00:33.800,2.92373019465,-10.54068279,3.0231817960000003,-1.6476077435,-0.7457681743,0.9313130081,-15.768499855,45.152198795,-5.7095998525,3.225741029,-1.0199570656499999,4.6469248535
1970-01-01 00:00:33.900,1.33055900015,-14.422738555,2.7859933975,0.29198499025,-0.09300148489999999,-0.25571592150000005,-16.500499724999997,45.713399885,6.289099693,3.729316652,-5.3236432075,5.8762334585
1970-01-01 00:00:34.000,-5.181507826000001,-16.803597449999998,-2.168495655,3.9227848055,0.1314085424,-0.6689540893,-16.25649929,45.51209831,12.700199605,-4.1526675225,-7.3100595475,-1.106774509
1970-01-01 00:00:34.100,-0.9163014889500001,-8.791828873,-0.8146065769999999,2.7673671244999998,1.22054919585,0.012293299660000003,-15.658699515,45.51819801,10.894599913499999,-0.15347009899999997,-1.6041193010000003,-4.6248311995
1970-01-01 00:00:34.200,1.2335000185,-2.0368903127999998,-2.5205396415,2.31488204,2.542117238,-0.50181103495,-14.95719957,44.584899905,2.64739994705,3.0296579599999998,5.4097948075,-7.045176029
1970-01-01 00:00:34.300,-5.194668590999999,-6.8597739935,6.06116917835,-1.37944576135,1.7479394076,-1.374329984,-14.31669998,43.974899295,-9.6075000775,-0.8658813237,5.225957394,-0.9055454730000001
1970-01-01 00:00:34.400,-3.9352960585000005,-14.816506865000001,8.102097511,0.8800018133499999,0.85488073545,-0.13728791662,-13.535900115,43.23069763,-19.52000046,-4.3909852505,-8.594811441,5.922252655
1970-01-01 00:00:34.500,0.4123132224999999,-7.22348267,-12.453594924999999,-2.5073753296,-2.120098114,0.26579490305,-12.76119995,41.760599135,-25.412599565,-0.12313783150000002,1.4149093626,-14.856907365
1970-01-01 00:00:34.600,2.24147659565,-10.101300478,-0.4579263924999999,-2.4493448735,-1.1507598457500001,-0.36375954725,-13.663999555,42.18149757,-23.552100185,3.8703351020000003,-2.0019140244999996,-0.3450837134999998
1970-01-01 00:00:34.700,-2.5301108359999995,-7.3145599365,0.3716352582,-1.6573050025000002,-2.542269945,-0.30725616215000007,-16.48219967,43.45029831,-15.652599810000002,-2.4571548699999997,2.8343200685,1.867799938
1970-01-01 00:00:34.800,2.7011976835000002,-9.6034445785,0.6168995650499999,-1.456641674,-0.72797723095,0.98865631205,-18.76970005,44.127399445,-5.361899853000001,2.9176955225,-0.15922260249999998,1.3328430653499999
1970-01-01 00:00:34.900,1.4214861837500001,-14.46102333,3.8573797345000003,-0.03985777494999998,-0.22089764476,-0.1343863979,-19.843299865,44.554399495,7.0759997365,3.3748348950000002,-4.844851494,6.836344719
1970-01-01 00:00:35.000,-4.08978262545,-18.356090545,-0.6363412735000001,3.8471159935,0.3295520991,-0.81311404705,-20.6789999,44.07859802,14.725399495000001,-0.8492399454999999,-8.1726059935,-0.8003044124999996
1970-01-01 00:00:35.100,-2.1529421508,-10.781161309,-1.07572335,2.9393206835,0.34169267115,-0.10934166239999998,-20.251999855,44.078599929999996,14.10929966,-1.2832085491,-2.1605401039000003,-3.7490590215
1970-01-01 00:00:35.200,2.7813572583500004,-3.3870403765,-2.629413009,2.385053098,3.2456606624999997,-0.71476764965,-19.593199730000002,44.066400525,6.228099823000001,3.843766928,4.983800888,-5.927054882
1970-01-01 00:00:35.300,-4.5160042642,-4.39606365575,3.9951163530000002,-1.1775608065,1.8441478612,-1.3711993694999998,-18.824599265,43.09649849,-6.7038999815,-0.37839001399999983,6.6047918800000005,-3.524850607
1970-01-01 00:00:35.400,-2.654537618,-10.9918794615,3.1284662485000005,0.37131877989999995,0.31748783599999997,-0.08880191294999999,-17.208099365000002,42.64509964,-18.580599784999997,-2.3414952757000003,-5.1147704114999994,5.8736293295
1970-01-01 00:00:35.500,-0.842273593,-10.8290181145,-7.7395846865,-2.4901952145,-2.3889473079999997,0.40858047455,-15.573299885,40.937099455,-25.857899665,-2.1630651949999997,-4.8683104505,-8.052518366000001
1970-01-01 00:00:35.600,2.431855559,-11.0110218545,2.0977577566,-2.6190840005,-0.3862845375999999,-0.31657157840000005,-15.402499675,41.046899795,-25.32719898,4.5513262745,-2.020125388885,-1.74262672685
1970-01-01 00:00:35.700,-3.4205400944999997,-7.4666535855,-0.14192430001955,-1.596372962,-2.268686652,-0.2171562165,-17.28129959,42.64509964,-17.738799574999998,-2.0929757954,3.2005496024999998,0.88900500525
1970-01-01 00:00:35.800,2.509622296415,-10.5393366835,2.641227603,-1.31584134685,-0.816550076,0.94078111645,-19.550499915,43.86510086,-7.399299621499999,2.1016685067500003,-1.3181638717,3.0383512974999998
1970-01-01 00:00:35.900,1.7890836895,-13.61471224,3.056681395,1.05210804215,0.16821207105,-0.45408858355,-20.593599320000003,44.725198745,4.562799990499999,3.89772081355,-4.500950336500001,7.2764191625
1970-01-01 00:00:36.000,-4.3148573635,-17.14113426,-2.497807741,3.5503970385,0.67674242725,-0.60634225605,-21.173099515,44.65199852,11.73029995,-1.313013792,-7.389674663499999,-2.0883579255
1970-01-01 00:00:36.100,-1.83335080725,-10.285548212,-1.2934702040500001,2.787830472,0.37399123605,-0.20906246826000002,-20.807100300000002,44.64589882,10.766499995,-0.8460468352,-2.7711639405999997,-3.5936812165000003
1970-01-01 00:00:36.200,2.1958634260000003,-3.3008989095,-1.7590237855,1.8717123865,3.3743966815000004,-0.77348536255,-20.160499575000003,43.87120056,3.33059996345,3.5384891035,4.56369853,-6.354037285
1970-01-01 00:00:36.300,-2.709572554,-2.1994526087,3.6574293375000004,-1.1451858879999999,1.57056465725,-1.1780953405,-19.18449974,42.55360031,-9.052399635499999,0.46067836880499996,6.6305241585,-3.7577629089999998
1970-01-01 00:00:36.400,-4.261018871999999,-13.445868254999999,8.779714823499999,0.3894151412,0.18394142400000002,-0.12942326069999993,-17.470399855,40.61989784,-20.081199644999998,-4.136072099450001,-6.227773664500001,8.294661761
1970-01-01 00:00:36.500,-2.2630121704999997,-12.574432608999999,-5.3168518545,-2.4843158125,-2.605492592,0.11209047029000006,-15.62819958,38.69839859,-26.888798715,-2.3313393595000003,-4.1127557735,-10.2101964975
1970-01-01 00:00:36.600,1.64536473145,-12.118300914999999,0.7452146413499999,-2.563496947,-0.31038677694999994,-0.33497336504999997,-15.408599855,38.728899,-26.78509998,2.91815578935,-2.3527765274999997,-2.9223825933999996
1970-01-01 00:00:36.700,-2.180459678,-6.773632288,0.4039383605000001,-1.562699974,-2.9778803585,-0.17691662904999994,-17.330099105,40.510099415,-19.867699625,-0.392239213,3.3883399964999996,1.041079819
1970-01-01 00:00:36.800,1.815255031,-10.283305166999998,1.378265798,-1.51574111,-0.47875154765,0.8993962408,-19.861599925,41.68739891,-9.662399769,1.1002214555000003,-0.06722831725,2.40011787425
1970-01-01 00:00:36.900,2.21859517705,-12.920344830000001,3.767648816,-0.2417428046,-0.1572931707,-0.431563586,-21.64890003,42.590200425000006,2.7510999144499997,4.5148409605,-3.7545104030000003,5.928017139
1970-01-01 00:00:37.000,-3.04232445375,-17.421244145,-3.1130622329,3.402037382,0.09651386740000001,-0.811968714,-22.203999515,42.38889885,11.199599745,-1.5281294286500002,-8.007202147000001,-1.3656716345
1970-01-01 00:00:37.100,-1.7805591076,-12.957433702,-2.0630617141000003,3.1592257020000005,0.40254835040000003,-0.122245799735,-22.051499370000002,42.053400034999996,11.99870014,-3.4572241905,-4.432770252,-1.0542958974999999
1970-01-01 00:00:37.200,3.3595229385,-3.0471101999999997,-1.707727611,2.7637020349999997,1.98563534,-0.4670690968499999,-20.831499100000002,42.132699965,5.5509999995,3.863340974,5.273481369,-6.2761974335
1970-01-01 00:00:37.300,-1.77592310285,-0.9798608235000001,1.8847963809999995,-0.31183752405000015,2.9817744495,-1.16946706165,-19.702999114999997,41.016399385,-6.1549000739999995,0.38170170805000003,7.3383126260000004,-5.7640812395
1970-01-01 00:00:37.400,-7.974231004,-17.770746229,11.5700454715,0.012904167000000077,1.0808942316,-0.41667418185,-18.678198815000002,39.540199279999996,-17.061699865,-5.42452072935,-6.785100459750001,7.999053002
1970-01-01 00:00:37.500,-4.062265157500001,-9.343523742,-6.064907965850001,-0.7500440477999999,-1.3144669085999998,0.14354910607999993,-16.652999875,37.88100052,-24.4914999,-2.402674913,-3.1790969385000003,-8.49802232
1970-01-01 00:00:37.600,3.657429457,-12.276376725,-0.7920242549999998,-3.0617191795,-2.1071175560585,0.6428403854,-15.54890013,37.75289917,-25.321100235,4.121333122,-3.954921722,-5.4800657035
1970-01-01 00:00:37.700,-0.6112166345000001,-7.232007265,1.1436196715,-2.2738025785,-1.7507646084000001,-1.0191223027,-16.280899525000002,39.52190018,-18.87949944,0.9147935510000001,2.135096788,0.536112561965
1970-01-01 00:00:37.800,-0.21849462380000007,-7.871190071000001,0.39556349795,-1.5841560365,-1.79726541,0.45615020395,-18.202399255,40.96150017,-9.4427995665,0.04746717249999999,1.8017373085,0.93713730555
1970-01-01 00:00:37.900,3.0649067164999995,-12.88086367,1.6585252283999998,-0.98766368615,-0.6035934761999999,0.45485214888500003,-19.587100030000002,42.03509903,2.79379996635,4.454598427,-2.795200348,4.87311244
1970-01-01 00:00:38.000,-0.54287165385,-15.554992675,3.843022764,1.67020908755,0.20341214070150002,-0.42980740964999997,-19.544399265,41.699598315,13.322399615,0.482975244545,-4.8269991875,6.8752014635
1970-01-01 00:00:38.100,-5.939135551500001,-17.548213485,-3.7965120075500005,3.561163187,0.85465168195,-0.5088357627,-18.970999714999998,41.48609734,17.287399290000003,-4.112059593500001,-8.0507168775,-4.7838948967
1970-01-01 00:00:38.200,1.12821579,-6.483801842,-3.539134264,3.1221930980000003,0.20768803349999998,-0.061848282800000015,-17.82419968,42.76099968,13.40170002,1.2543071510000001,1.65842676145,-4.338481903
1970-01-01 00:00:38.300,0.5847460628000001,-0.37163525799999997,-0.8636593965,0.7876875175,3.24947834,-0.9311602714,-16.726200104999997,43.834598545,3.3732998671499996,2.9501812460000005,6.9865117075,-7.8572435375000005
1970-01-01 00:00:38.400,-4.295714736,-13.8049416555,10.344172479000001,-0.42530241625000004,1.465346217,-0.9116895272149999,-15.829499720000001,44.383600235,-8.9730999495,-3.6164991854999995,-6.821140048999999,6.6652517325
1970-01-01 00:00:38.500,-5.5190452333,-8.645716725000002,-3.8359940045000003,-0.2386121750000001,-1.31446695325,0.22868595274999998,-14.719299795000001,43.80410004,-18.934399605,-4.8513551355,0.4200019835000002,-6.5278501515
1970-01-01 00:00:38.600,3.2050364015,-14.30055475,-2.512015103,-3.727848172,-1.7393112780500002,0.32298548520000003,-13.993400099999999,43.00500107,-22.393099785,2.4311463835,-5.532592773,-5.4403252605
1970-01-01 00:00:38.700,-0.6471090315,-6.4191954135,0.6049354971,-2.076651633,-2.359931946,-1.0485956968999999,-14.938899515,43.61499786,-17.5862999,0.9789890050000001,2.8691089155,0.3354250342
1970-01-01 00:00:38.800,-0.848106027,-8.870791912,0.474526646565,-1.5494140985,-1.7800088526,0.8601492939,-17.134900095,44.0053997,-8.021499871,-0.9313356875000002,1.2292261125500001,0.9531993866499998
1970-01-01 00:00:38.900,4.2716372015,-13.04716444,2.418545425,-0.7770740539499998,-0.23326729239,0.2730487287,-18.08039951,43.85899925,4.086999833549999,6.0289368625,-3.0536274910000003,5.393210411
1970-01-01 00:00:39.000,-0.45074798169999997,-14.857185365,2.7191438974000004,2.891674459,0.71675290165,-0.7308787405499999,-18.11089897,42.852499005,15.024299619999999,0.91237705945,-5.8767490385,5.9588561055
1970-01-01 00:00:39.100,-4.419094801,-15.956089495,-3.6960135995,3.2145073415,0.8089145052000001,0.04390464725,-18.037699699999997,42.364498139999995,18.842900274999998,-3.5032054185000003,-7.171198368,-4.1187107563000005
1970-01-01 00:00:39.200,0.9880861640000002,-6.3498036865000005,-1.7507984045,2.7996656895,0.7290461661000001,-0.08307522534999999,-17.513099675,43.560100555,15.207299705,0.6783202290500001,2.39904236785,-5.5494441985
1970-01-01 00:00:39.300,0.4613660872000001,-0.50084771205,-1.9182960395,-0.093459666,2.7013956305000004,-0.9969027639,-17.897399905,45.048500065,5.300899982000001,2.9567707179999996,6.9693412785,-7.4972047805
1970-01-01 00:00:39.400,-3.2733813525000004,-14.489588023,11.95902872,-0.035352826000000004,1.3445511312499998,-0.66299832635,-18.586699485,46.030599595,-6.618499756,-3.8586714267500004,-8.116898776,6.50524020104
1970-01-01 00:00:39.500,-4.955236554,-10.763215541,-4.627270222,-0.3836884424,-1.2875133643,-0.06917846205,-18.489099500000002,45.560897825,-16.183300015,-1.5285374521000001,-1.7577571864999997,-1.54839801815
1970-01-01 00:00:39.600,-1.0875379442000002,-8.7451684465,-1.9362422225000002,-3.2903288605,-2.3625282050000003,0.41064207999999996,-18.51349926,44.487298964999994,-21.069399830000002,-0.7020844223000001,1.4216909405,-11.648074625
1970-01-01 00:00:39.700,4.426123738499999,-8.9126663215,2.2151556015000002,-2.324884653,-1.05875097235,-1.05012282735,-19.67859936,44.60930061,-17.787599565,5.5358581545,-0.40553426749999977,2.6078876255
1970-01-01 00:00:39.800,-2.768196702,-8.491230488,0.014955133200000026,-1.4306806925,-1.8564411404999999,0.502498228105,-21.112099649999998,44.847198485,-9.4366998655,-2.7930885549999998,1.40893530865,1.6816983815
1970-01-01 00:00:39.900,4.058526218,-11.08519936,1.5004493595000001,-0.9381850359499999,-0.5402944088,0.5115082412499999,-21.7159996,44.79839897,1.7567999359999997,4.1641021965,-1.10912656785,4.7047985795
1970-01-01 00:00:40.000,0.5259723216000001,-14.939737795,3.5174492600000002,2.606485307,0.6181774288,-0.9610154331,-21.124299999999998,44.231100085,13.615199570000001,3.166069746,-5.184082508,5.0679309365
1970-01-01 00:00:40.100,-5.701049566,-17.33734655,-2.4294629100000003,3.992955923,-0.8163973689,-0.3538332879999999,-20.203199384999998,43.81629944,19.257699965,-5.6531419755000005,-7.7143793105,-1.12974566225
1970-01-01 00:00:40.200,0.43998023859999996,-6.8908803465,-1.4347962439,3.0721036195,0.7583668830000001,0.31130303439999996,-19.01979923,44.834999085,16.811599255,-0.003583490849999982,0.6004300119999999,-4.829455376
1970-01-01 00:00:40.300,1.7327026949500002,-2.593371093,-1.22886398435,2.0757353305,2.862888455,-0.54846447705,-18.055999755000002,46.140399935,7.606699941,2.7664771675,5.591473341,-5.7833702559999995
1970-01-01 00:00:40.400,-6.6813588715,-9.919445989000002,9.145966291999999,-0.67895673965,1.9150062130500005,-1.21016475575,-17.671699525,47.2444973,-5.422899842,-1.6662130354999998,3.53250598925,0.6795308589999998
1970-01-01 00:00:40.500,-4.3734813925,-8.707930328000002,-2.498854635,1.0646304486,0.898021847,0.19989976285,-16.970199585,47.049299239999996,-16.695699689999998,-0.9400506019999999,-7.0778000355,-0.42318105699999986
1970-01-01 00:00:40.600,-1.3568799494999997,-12.119496582,1.3963616042500002,-3.3940964934999998,-4.3674051765,0.575112687525,-15.866099835,45.420598985,-23.161699295,0.1437392234999999,0.9832563399999996,-10.681216240000001
1970-01-01 00:00:40.700,3.2612677216000003,-7.995616913,2.1480069755,-2.6412271259999995,0.06085568650000006,-0.4724140018,-16.421198845,45.097299575,-20.703399660000002,5.795820236,-0.5909485815,1.0331785976
1970-01-01 00:00:40.800,-3.0566813945,-7.98365283,-0.34905299525,-2.0224390029999997,-1.875988305,-0.41461258011,-18.299999235,44.91429900999999,-12.517199995,-2.1839915514999997,2.07785129555,1.04522538205
1970-01-01 00:00:40.900,2.5395324825,-11.36306572,3.4048370125000003,-1.7189241649999998,-1.2109283509,1.1460257770000002,-19.092999454999998,44.261600494999996,-1.238300085,1.378218532,-1.4897513390500003,3.8199788330000004
1970-01-01 00:00:41.000,2.685644388,-14.466856005,3.6598221065,0.8940512538500002,-0.363301426,-0.4915029705,-17.793699265,43.468599319999996,11.382599829,6.2466709615000005,-4.1154055595,6.5050075055
1970-01-01 00:00:41.100,-5.959474206,-19.125831605000002,-3.1381871099999996,3.9281295535,0.99758993085,-0.9862129092,-15.31709957,42.681699755,18.39759922,-4.349019169800001,-10.568807127,-2.221531987
1970-01-01 00:00:41.200,-0.2567797900000002,-6.441927014999999,-2.8832016585500004,3.3458395005000003,0.21234577708500002,-0.054441761224999996,-13.743299485000001,43.492998125,18.373199465,-1.230603218,0.2256770130000001,-4.937127471
1970-01-01 00:00:41.300,1.6775182188000002,-2.24985159925,-3.569044471,2.3164854645,4.0700752735,-0.8299887180500001,-12.828299999999999,45.396198275,10.388299944,3.5563991665000003,4.3063573835,-8.1874084475
1970-01-01 00:00:41.400,-7.674978552000001,-8.678019940699999,9.1591272375,-0.6822400391000001,1.3669998569,-1.35585185905,-12.553800105,48.7023983,-2.53759998095,-2.5445562599000002,3.0232279301,1.7340023539999998
1970-01-01 00:00:41.500,-4.538735985500001,-7.702346802,1.5052349564999998,0.0729198903,0.35077905675000004,-0.12232216258999995,-12.6147995,51.66089821,-14.603399755,-1.09360206115,-3.0681355,3.516493082
1970-01-01 00:00:41.600,-2.5995026235000003,-13.0459685305,-4.8020961280000005,-2.521042943,-3.097224712,0.34703760969999997,-12.035299779999999,52.600299835,-22.77129936,-1.7695498465,-4.404041052,-7.0293319235
1970-01-01 00:00:41.700,2.9789146185,-11.236096857,1.8991534705,-2.8491443395000005,-0.5161659568,-0.045889899149999996,-12.797799585,54.533998485,-21.575699805,4.136579871,-2.476296425,-1.3171576260000002
1970-01-01 00:00:41.800,-1.2827024458,-7.370940924000001,0.1202393398,-2.071230292,-2.2489104865000002,-0.7858549657,-14.91449976,57.181398395,-12.41349983,0.26954483949999997,2.3682391645,0.56042195845
1970-01-01 00:00:41.900,-0.7906783820000001,-8.7942214015,1.3256236913000001,-1.7115176915,-1.40998818745,0.8882482650000001,-16.750599865,58.303798674999996,0.7197998765,-0.8709162469999999,1.4625277515000001,2.1842895744999997
1970-01-01 00:00:42.000,4.0453659592,-13.74272823,4.1865422725000005,-0.07009473440000002,-0.4089622498,-0.26946000010000004,-16.878699305,57.840198515,16.40289974,5.774208903,-5.8370423315,5.783694744
1970-01-01 00:00:42.100,-1.02532449375,-17.48958969,-3.5786158445,3.946531415,0.43942825515000006,-0.53143711385,-15.91489935,56.687299725,26.96809959,-0.23766463984999997,-6.803328514,0.315887928
1970-01-01 00:00:42.200,-3.8131123785000005,-12.9837551135,0.5967101454999999,3.000939846,0.9797989728000001,0.01901262249999995,-14.8107996,57.4863987,26.772899629999998,-3.888172388,-4.508577824,-2.2048155664999998
1970-01-01 00:00:42.300,3.3164523244999997,-3.04352080825,-4.166352928,2.561664343,2.2295924425,-0.27679015694000003,-13.4138999,58.651498794999995,16.646899225,2.88030442577,3.8050282005,-6.5113518235
1970-01-01 00:00:42.400,-0.2328515349,-0.03409773099999991,1.025324464,-1.1912285016,2.267465055,-1.2743037045499999,-12.523299695,59.151699065,-0.3050000664999999,1.433867991,8.039324045,-6.100272179
1970-01-01 00:00:42.500,-7.3731840239999995,-16.619350075,9.983902929,0.58847498895,1.0920421778999998,-0.1891335845,-11.376499655,59.33469772,-16.049099925,-4.007300617499999,-4.76708412155,6.3371174329999995
1970-01-01 00:00:42.600,-4.5554856059999995,-11.0409321775,-4.300500512,-1.7411437630000002,-1.9320334789999998,0.20890975745,-9.4671998025,57.651098250000004,-25.802999495,-2.9640841484999996,-1.4733629227,-6.5909659860000005
1970-01-01 00:00:42.700,3.7066317795000003,-12.161371705,-1.809422612,-2.67482388,-1.27178394815,-0.14057123659999998,-8.8754997255,57.2057991,-27.16939926,4.212778806499999,-2.7736220358,-4.510268568
1970-01-01 00:00:42.800,-0.8027920128999999,-6.215656041999999,0.9330512582,-1.846438527,-1.5113887789,-0.71507309365,-10.7481994605,58.858898165,-19.782299995000002,1.097866118,2.8820414545000004,0.16945299510000003
1970-01-01 00:00:42.900,-1.37841544275,-9.077920437,-0.07372885199999998,-1.6659331919999998,-0.976286635,0.86824300895,-13.80429983,59.859298710000004,-9.131699799,-1.432452827485,0.82069110885,0.89030873785
1970-01-01 00:00:43.000,4.2405304909999995,-13.29990673,3.9556350704999996,-0.28259322045,-0.45118705920000013,0.010842546799999964,-15.689199925,60.41439819,4.4164000152,5.3465931415,-3.3079032895,5.978727817499999
1970-01-01 00:00:43.100,-1.0001998840000002,-14.079069615,3.4875389039499995,3.8499412535,0.1885227412,-0.6797966361,-16.02469921,60.06059837,15.9758997,1.1709408166,-4.6749572755,5.6779569384999995
1970-01-01 00:00:43.200,-4.4321057795,-16.17518187,-2.1206391526,2.614578962,1.82597518,-0.3324536085,-15.927100185,59.90199852000001,18.12309933,-3.1579186915,-7.376429558,-4.34499311435
1970-01-01 00:00:43.300,1.23708933615,-5.9965629575,-2.5168007015,2.961616516,0.66605255745,-0.082311667505,-14.993799684999999,59.69459915,11.1751999845,1.6777873187,2.0215344429,-6.17027092
1970-01-01 00:00:43.400,-0.58250279725,-0.8504989222,-1.7184953095,1.1450331958,3.187324643,-0.7643226385,-13.907999995,58.334299085,-2.989000082,2.18549156185,6.4504117965,-7.3019976615
1970-01-01 00:00:43.500,-4.8222855330000005,-13.141830443,10.064062593500001,-1.2284901737,0.822353130985,-0.9520054607499999,-12.517199515,57.016700745,-18.14139938,-5.0602124929,-8.325382469500001,6.3211476791
1970-01-01 00:00:43.600,-4.1101216075,-10.0354983815,0.16689938300000007,-0.07574507594999996,-0.521816194,-0.04588989915000001,-10.93729973,55.083000185,-27.8769989,-2.4106458427,-1.8165383339999996,-4.7136409282
1970-01-01 00:00:43.700,0.9785149099,-9.869047402,-1.95179545155,-2.3760431410000002,-2.710252881,0.27793550494999997,-10.174799915000001,54.05819893,-30.75009918,1.5148761865,0.5683379169999996,-7.939812659999999
1970-01-01 00:00:43.800,1.15932256,-8.0256767275,1.0803594768395,-2.3353453875000003,0.009315431000000096,-0.55610005918,-11.370399475,56.071199414999995,-25.052699089999997,2.9365462065,0.6208405495,1.1172658205500001
1970-01-01 00:00:43.900,-1.652543187,-8.191977738999999,-0.649501741,-1.2998830080000001,-2.6447395085,-0.03352025149999999,-14.38989973,58.151298525,-14.682699685,-1.5784397124999998,1.5987811085,0.5418896079000001
1970-01-01 00:00:44.000,3.4516466855,-11.091331005,2.1360428330000003,-1.36448007835,-0.54548659915,0.7656970322000001,-17.043399815,58.852798465,-1.9702999595000001,3.9964393375,-1.6401138307499998,4.6040883065
1970-01-01 00:00:44.100,0.7091728448999999,-14.330465315000001,3.1799117325,0.5431959032,0.10330954099,-0.18378866465,-17.85470009,58.72469902,10.8152995115,1.8701974149999998,-4.121752262,4.8043358325
1970-01-01 00:00:44.200,-3.8419759869999996,-15.680765155,-1.8873388171999999,3.791681647,0.35872005672999996,-0.59168192745,-17.470399855,58.541700365,16.95799923,-2.04527440689,-5.6791200635,-1.5899746419999998
1970-01-01 00:00:44.300,-0.5596214234999999,-9.195019482,-0.1395314634,2.71758306,0.71316418045,-0.17050273997,-16.37239933,58.675897595,13.17599964,-0.9862573147000001,-1.4483897689999998,-3.5160197620000004
1970-01-01 00:00:44.400,1.6154543755,-2.972932577,-2.2139590975,1.8741558194999999,3.018501639,-0.84037309905,-15.50009966,58.071998595,1.6164999005000003,3.003996015,3.99095583,-6.7643227575
1970-01-01 00:00:44.500,-4.1316570045,-7.889136283955,6.35802907545,-1.509632647,1.1851964293000001,-1.212379098,-14.53019953,56.69949913,-13.975100040000001,-1.37082994,4.81505394,-2.9261620045
1970-01-01 00:00:44.600,-3.0662525895,-12.561272144,2.9691939355,0.08780929445000002,0.0313059685,-0.021303297950000005,-13.35290003,55.1500988,-26.400798795,-1.90709728,-5.770854473,2.1638188359999995
1970-01-01 00:00:44.700,-1.5243775991500002,-6.4838018415,-8.232805491499999,-2.0600060522,-2.5045500995,0.40079214425,-12.559899810000001,53.3993988,-32.525199889999996,-2.0981671957,0.480533361,-8.873770238
1970-01-01 00:00:44.800,3.7197923665,-11.679068328,3.0841989220000006,-2.547691166,0.11712996382999995,-0.23418357950000002,-13.16989994,54.009397504999995,-30.207199095,4.7865092755,-2.6213221548999996,-1.0119277835999998
1970-01-01 00:00:44.900,-2.99327147,-8.082955122000001,0.40034911035000004,-1.2018419505,-2.6632939574999996,-0.39766158185,-15.75020027,56.11389923,-21.246299745,-2.6624618175,1.9037511349,2.466463327
1970-01-01 00:00:45.000,1.8762720825499999,-10.2376918795,0.6264708638,-1.6654750704999999,-0.8053257765,0.9706362784,-18.983199114999998,57.15699768,-9.8392999155,1.60724127275,-0.4122986795,1.0120920537499998
1970-01-01 00:00:45.100,2.7094228862000005,-12.676127435,5.145466089,0.1289651245,-0.0862058252,-0.20173230020000002,-20.465499880000003,57.46809769,3.3549999148,4.7334012985,-3.736374855,6.7459323405
1970-01-01 00:00:45.200,-1.7063817380000001,-18.029470445,-5.0246282815,3.936757803,0.24922568162999995,-0.87206083535,-21.08769989,56.278598785,11.99259949,-0.40470957750000025,-7.60915661,-0.8558535574999997
1970-01-01 00:00:45.300,-3.0195927320500004,-12.0201950095,0.05802595599999982,3.0632463695,0.7342384156999999,0.04573718829000005,-21.331699370000003,54.40589905,11.65100002,-4.0681387785,-3.6988830564999997,-0.9145058989999999
1970-01-01 00:00:45.400,3.094966531,-4.298107624,-1.979312956,2.5258533955,3.206871748,-0.3800996989,-20.605799675,51.496200560000005,3.4769998938,4.216397524,3.9219062325000005,-6.353682518
1970-01-01 00:00:45.500,-1.86924317485,-0.29506498550000004,2.2534406185,-1.0842538924,1.5965257139,-1.362265766,-19.092999454999998,47.537298205,-10.5225000375,0.6153426169,7.7180912495000005,-4.6060684919999995
1970-01-01 00:00:45.600,-5.875725627,-14.360375167499999,10.738090754,0.3924693763,0.684607084932,-0.10017894955,-16.95189953,44.44459915,-22.966499325,-5.26630770915,-6.991148235000001,7.6521017565000005
1970-01-01 00:00:45.700,-3.13579413315,-12.943076372,-2.783749938,-2.179273963,-2.558915615,0.085594967,-14.3654995,41.644699095,-30.32919979,-2.39837873,-3.4867525098299996,-9.861618043
1970-01-01 00:00:45.800,2.1886849405,-11.732906815,-1.3845470251499998,-2.7039917705,-1.0560785532499999,-0.08551861344999995,-13.52369976,41.479999545,-30.054698945,3.1608183385000004,-1.80594635005,-5.52048712975
1970-01-01 00:00:45.900,-0.96071829853,-7.108627558,1.2502498328999998,-1.6504329444999999,-2.9394733905,-0.66185300785,-15.7562995,43.663799284999996,-21.97219944,0.28406310049999994,2.2995266914999997,0.87897089134
1970-01-01 00:00:46.000,0.37642097500000005,-9.034849644000001,0.960568786,-1.7328973410000001,-0.9146674162,0.9739959538,-19.117400170000003,44.76179886,-10.821399687,-0.051630258500000026,1.1860222814499999,1.4155700207
1970-01-01 00:00:46.100,3.63828682885,-13.51047468,3.5306098465,0.42324082565,-0.5351785567999999,-0.23067120138,-21.252399445000002,45.36569977,2.56199985765,4.5850086215,-5.1083846095,6.9767704010000005
1970-01-01 00:00:46.200,-1.4561820922500002,-17.06576109,-3.184847057,3.844977975,0.31542624534999997,-0.578319639,-21.398798945,44.975297929999996,13.029599665,-0.22421818970000001,-6.4896755215,0.8616788385
1970-01-01 00:00:46.300,-2.55523544555,-13.152597906499999,0.41231322250000013,2.887551308,0.67842222751,0.0729198949485,-20.67289925,44.798398969999994,15.11579943,-3.635445833,-4.737070560499999,-1.187986493
1970-01-01 00:00:46.400,3.5786157844999997,-3.32363081,-1.7172989245,3.0701184269999997,3.0986754889999997,-0.06795676053,-19.147899629999998,44.963098525,9.101199865,3.93334907305,4.745788097,-5.8732922075000005
1970-01-01 00:00:46.500,-1.11864458785,-0.9655039534500002,0.5201398134999999,0.16615045100000003,3.1132593155,-1.09753981255,-17.488699914999998,44.64589882,-3.0134000480500003,1.141311764895,7.4231157305,-6.6311571595
1970-01-01 00:00:46.600,-7.599604605,-17.3518528925,12.448659898999999,-0.213262081,1.2029109449,-0.697129413465,-15.713600159999999,44.475099564999994,-14.93279982,-5.38015341755,-7.2503142375500005,8.285634039
1970-01-01 00:00:46.700,-3.80608356,-11.063663957,-6.348607062999999,-0.5373165458,-1.3410387558499999,-0.0657424331,-13.724999905,43.291698455,-22.966500285000002,-2.403991103,-0.90702438355,-8.1324915885
1970-01-01 00:00:46.800,3.519842148,-11.90175009,-1.4754743575000002,-3.0323984625,-2.0002193155,0.32626879215,-13.444399835,42.913497925,-24.131599424999997,3.8441640139999995,-2.5254683495,-4.709572553
1970-01-01 00:00:46.900,-0.30224341200000004,-6.3089761735,1.817647934,-2.2579969165,-1.3586769998500001,-1.00262942935,-15.18899965,44.029798505,-17.54359913,1.5758062599499998,3.35998106,1.2036865352500001
1970-01-01 00:00:47.000,-0.31674987050000003,-9.439386368000001,0.58938208245,-1.5870575305,-1.4968048779,0.5658736378,-17.647299765,44.658100125000004,-7.7103998680000005,-0.6431475280000002,0.63880586625,1.8356953860999998
1970-01-01 00:00:47.100,3.3068808314999996,-13.396815775,2.9153552055,-0.5336514339,-0.51845662295,0.18180340530000005,-19.09299946,44.865499495,4.6359998585,5.428602457,-4.365752697,5.780579805
1970-01-01 00:00:47.200,-1.30543425675,-17.21411514,-2.5299615855,3.2845257524999996,0.5471664517999999,-0.66437274215,-19.391899109999997,44.261598585,13.926299575,-0.8955920335,-6.6250481605000004,1.6510620120000001
1970-01-01 00:00:47.300,-3.3584761019999996,-13.516456604999998,1.2239286900000002,3.0497312545,0.79662119595,-0.12865970844,-19.288199425000002,44.054199215,14.932799815,-3.6249135135,-4.9015717505000005,-3.0514674184999997
1970-01-01 00:00:47.400,2.68669128415,-3.007628441,-1.6347464918,2.6955162285,1.8824022411499999,0.037643462415,-18.281700135,44.20059967,8.4972999105,2.9107622875000003,4.690132141,-6.3944978715000005
1970-01-01 00:00:47.500,-1.1078768672,-0.5033900738500001,-0.49381876,-0.59832489505,2.5795316694999997,-0.9069554658,-16.80550003,43.944398879999994,-3.7148998677,1.3888916968,7.5938560960000006,-6.961571455
1970-01-01 00:00:47.600,-7.767102243,-18.433856486,11.653794529499999,0.3452050386,1.2869024577,-0.71537850795,-15.158499715,44.005399705,-15.622099875,-2.8287160395,-3.34486532195,7.5951850425
1970-01-01 00:00:47.700,-4.2201913595,-10.11924696,-3.0004497765,-0.6884248553000001,-1.3430240007,-0.05375456810000004,-13.218699455,42.95009804,-23.75339985,-2.1598932745,-1.5044131280000004,-5.945816992999999
1970-01-01 00:00:47.800,1.65972158315,-12.381660940500002,-2.9621648785000003,-2.8676224945,-2.2155430315,0.305805403765,-12.504999640000001,42.41939926,-25.735899925,1.9741446374999998,-2.0667924883000004,-5.0055668355
1970-01-01 00:00:47.900,1.023978531,-6.9542901515,1.46216413395,-2.4895843865,-1.4002909427899999,-1.0635614396,-14.121500014999999,43.621099475,-20.136099815,2.53324002,1.2407565114999999,0.7790129185000001
1970-01-01 00:00:48.000,-1.0217352806,-8.5571825505,-0.097657072335,-1.4612230065,-1.9397454263500002,0.54892261325,-17.189800265,44.3042984,-10.7603998165,-1.1075648367500002,1.6364822385499997,0.5105059144999999
1970-01-01 00:00:48.100,3.710221052,-13.4590292,3.7102209925,-0.8251782955,-0.6887302638599999,0.3013004101500001,-19.458999634999998,44.54829979,1.6836000085000002,4.757815599,-3.4224772455,6.0708818435000005
1970-01-01 00:00:48.200,-1.34850513935,-15.807734015000001,2.990729213,3.076379478,0.8498412074500001,-0.7297334074999999,-19.843298915,44.005397795,12.950299739999998,0.5464261770000001,-6.7262120245000006,5.0512542725000005
1970-01-01 00:00:48.300,-3.5618660449999995,-14.265858649999998,-1.4585749505,3.3036146165,0.8303704991574999,0.16195088064500002,-19.82499981,43.773599625,16.36629963,-3.270897627,-6.579898357499999,-4.462349236
1970-01-01 00:00:48.400,2.0774186624,-4.7744288445,-2.5096223355,2.8189073805000002,1.6485240311,-0.197227316,-18.818499565000003,44.2981987,11.2971997265,2.4836176334499998,2.8261876105,-7.2074546815
1970-01-01 00:00:48.500,-0.3644568024,-0.65054865915,-1.9316061139999998,-0.4105656744500001,2.7175830605,-1.27201306815,-17.5862999,44.49949837,-0.2927999499999998,2.569787145,6.7977900505,-8.0125756265
1970-01-01 00:00:48.600,-7.2128646375,-13.162169455,14.4728384045,0.4085040837,1.25628376,-0.5221980661,-16.97630024,44.21889877,-13.27970028,-2.480304539,-7.007656097,9.5765027975
1970-01-01 00:00:48.700,-4.498057961,-9.268299506349999,-6.1954662815,-1.07745823285,-1.9117991925,0.07429429885,-16.073499679999998,42.77930069,-22.64319992,-3.5948021411,-3.0520472549999997,-9.582846284
1970-01-01 00:00:48.800,1.7039888499,-10.02338457,-1.3389337957000003,-2.9472616910000005,-1.9046981037,0.106592844473,-15.939299585,41.77279854,-25.473599435,1.69568347915,0.321970463,-5.8357510569999995
1970-01-01 00:00:48.900,1.144965768,-7.4283685685,0.23270201700000004,-2.3871147635,-1.4094537051500002,-1.0498173835,-17.86689949,42.43160057,-20.319099425,3.2154797017,1.1297004225,0.34904554499999996
1970-01-01 00:00:49.000,-1.8991533668,-8.1752283575,-0.15987046065000002,-1.6966282725,-1.4874130415,0.8174663334,-20.831500055,43.187999725,-10.7543001195,-2.51614821,1.49068641665,1.2618311645
1970-01-01 00:00:49.100,4.372285366,-12.20219946,2.8603204188999998,-0.5822138041,-0.6034407543500001,0.10193513329999998,-22.728599545,43.395399095,1.7384999995000001,5.1582870485,-2.115823746,4.6024240254999995
1970-01-01 00:00:49.200,0.8756235242,-15.595819950000001,3.3702906372,3.1841940880000004,0.6146650463000001,-0.70774292945,-23.43009949,42.55360031,13.395599364999999,2.4478087425,-6.443804740999999,6.645107985
1970-01-01 00:00:49.300,-4.55294323,-17.369798665,-4.086193323,3.257801175,1.0346225202,-0.05245651305000004,-23.735099795,41.974098205000004,17.86079884,-4.164378643,-7.8414726255,-3.5085840819999996
1970-01-01 00:00:49.400,2.00922323035,-6.798607588,-2.8698915840000003,2.8478462694999997,1.6811279954499998,-0.08735115920500006,-23.55209923,41.864297865,13.968999865,1.3635022045,1.61662435525,-4.2331933975
1970-01-01 00:00:49.500,1.5148062354299998,-0.26156538724999995,-2.8939694165,-0.18806457529999993,3.2620770930000003,-1.23009365815,-23.24099922,41.754499435,3.26959985102,3.7435548305,7.4820156099999995,-8.152111053499999
1970-01-01 00:00:49.600,-5.845965027499999,-15.200705291,12.48694515,-0.3205420971,1.220930934,-0.7357655168,-22.515099525,42.17539978,-10.266299726,-6.0259946584,-7.29962778,3.4726209640000003
1970-01-01 00:00:49.700,-4.4464626315,-8.194520175,-1.7171492585,0.76394087085,0.1568350196,0.09888089450000001,-20.996199605,41.534900664999995,-20.947400090000002,-3.0165059565,-1.9911026954999995,-5.494102237150001
1970-01-01 00:00:49.800,0.6936194894500001,-11.6324081405,-1.747059584,-3.0944758649999997,-3.3413344620000003,0.21288026869999999,-19.135700229999998,40.625999449999995,-25.894499775,2.5515046418,-1.6417684555000003,-9.130805016
1970-01-01 00:00:49.900,1.7817556264999999,-7.4283685685,1.8752251419000001,-2.5546395774999997,-0.21265119329999999,-0.55701633565,-19.336999894999998,41.522699360000004,-22.179599760000002,3.3954524098500003,1.007747173,1.4176203012
1970-01-01 00:00:50.000,-1.77951225615,-8.105836153,-0.7093223334999998,-1.587210238,-2.955202699,-0.35742200915000005,-21.740400315000002,42.340099335,-12.968599795,-1.8103587625,1.89677715295,0.866383612
1970-01-01 00:00:50.100,4.442873359,-11.6766758,3.3714871410000002,-1.6942611935,-0.5806866884499999,0.8193752469,-23.61310005,42.5291996,-0.42700004550000004,4.386874795,-2.1505808828,6.171447038499999
1970-01-01 00:00:50.200,0.3728316724,-15.716656685,3.4227832554999997,1.28919313105,0.15591876209999997,-0.6431457996500001,-24.235300065,41.961898805,12.6086997975,1.825101435,-5.795725822,5.5641162395
1970-01-01 00:00:50.300,-3.7869409325000003,-17.516957285,-3.6242292524999997,4.050528169,0.5484644919999999,-0.5231906734499999,-24.29629898,41.162797925,18.293899535,-4.3467086555,-7.4799232485000005,-2.815127015
1970-01-01 00:00:50.400,1.32338052985,-7.332505701500001,-2.3026430605,3.2006869315,0.84487813695,0.20516832175,-23.387399675,41.608098985,15.01819944,0.47826313975,0.5586323739999999,-4.8954222205
1970-01-01 00:00:50.500,1.4813067316,-1.36630173015,-2.476122856,1.2183348385500001,2.973757267,-0.6213080286999999,-21.941699025,42.455999375000005,4.00769990665,3.613095641,6.3482949735,-4.8594938515
1970-01-01 00:00:50.600,-4.7590252165,-14.2036452295,11.5878419895,-0.926807975715,1.28041219715,-1.10662615295,-20.624099729999998,42.88910103,-9.6013996585,-3.62498521815,-6.3875658515,5.464303971
1970-01-01 00:00:50.700,-5.015057087,-9.312416909500001,1.4261221884999997,-0.29824617510000007,-0.7747834026,-0.09200885895,-19.83109951,42.504798885,-20.58139896,-4.0953943724999995,-1.4946854115000003,-5.312401297
1970-01-01 00:00:50.800,0.7989037037000001,-9.976874113000001,-1.9686948064999998,-2.810813665,-2.8398289085000004,0.2144837454,-18.977099414999998,41.723999025,-24.87579918,2.0429605843500003,-0.06259798999999999,-8.3711037635
1970-01-01 00:00:50.900,2.54790735225,-8.4529452315,1.19880416985,-2.431782961,-0.53716379395,-0.7720346006000001,-18.495199205,43.633298875,-19.763999939999998,3.6189436315,0.1800372600000002,1.11992138645
1970-01-01 00:00:51.000,-2.1625134944999997,-8.5559859275,-0.9918250439499999,-1.4267864824999998,-2.9748262165000003,0.12392562630000001,-21.20969963,44.243299485,-10.052799938,-2.4716813565000004,1.4249386786499998,0.5515169502999999
1970-01-01 00:00:51.100,4.96241498,-11.22652578,1.9851455089999999,-1.2970578074,-0.4013266858999999,0.68063655515,-21.453699110000002,44.18229866,2.4766000509999997,5.355459154,-1.6201243402,4.9508485795
1970-01-01 00:00:51.200,0.2938684819999998,-15.641283034999999,4.8976591825,1.5660596101050002,0.5408288836499999,-0.45447035135,-21.618399619999998,43.072099685,14.60949993,1.06226950875,-5.681236267,6.3079338074999995
1970-01-01 00:00:51.300,-2.6569304468,-16.29482317,-2.39835608,3.7005127669999998,1.2104701699,-0.5157841593,-20.95349884,42.175397875,19.879899979999998,-2.0095317958,-6.353776932000001,-3.2833049295
1970-01-01 00:00:51.400,-1.1497512758500001,-8.2362451565,-0.9810573163,3.0152947904999996,0.6979693472499999,0.07963921317499995,-19.861598970000003,42.596300125,16.756699085,-2.4280998115,-0.7721142765,-4.3551118375
1970-01-01 00:00:51.500,1.906331919025,-2.3527428210999997,-0.89012999438,1.5031423865,3.1006606815,-0.4167505354,-18.891699789999997,43.303899765,6.752699614,3.3409013749999996,4.9035224914999995,-5.9737277035
1970-01-01 00:00:51.600,-5.655436159,-10.71057290545,8.949605703,-1.1890141966,1.24986988315,-0.95880113545,-17.635099410000002,43.724800110000004,-6.8929998894999995,-1.2966393235,4.4976305965,0.45316839249999985
1970-01-01 00:00:51.700,-4.523032903500001,-11.3425774585,-0.5896811484999995,0.07192724919999999,-0.6235987244500001,-0.12255123255500006,-16.128399845,43.126998900000004,-17.506999965,-2.2521644834999996,-5.6880240440000005,-0.03499293300000028
1970-01-01 00:00:51.800,0.6924231054999999,-9.0981101965,-5.1466623545,-2.888925791,-3.1737332345000002,0.5193728954000001,-14.92059946,42.19369888,-22.832300185,1.1222081184999997,0.6334443094999999,-13.476210595000001
1970-01-01 00:00:51.900,3.4911281465000004,-9.396165850000001,3.2911779885000003,-2.2217278480000004,-0.10017892735,-0.591758269935,-15.07919979,42.700000765,-20.02019978,4.463399887,-1.7852530479000002,2.73514848965
1970-01-01 00:00:52.000,-1.2358928915,-7.3707909585,0.2542373985,-1.656235993,-2.094595253,-0.08338063955,-17.15929985,43.7125988,-11.541200163500001,-1.2519993184999998,2.3439316750000003,1.1271467803
1970-01-01 00:00:52.100,1.1268698869000002,-10.157532214,1.9815562365500003,-1.673263371,-0.332071829585,0.78486236915,-19.0807991,43.55399895,-0.4757999180000001,0.47398763900000007,-0.37959909449999985,1.6433624024999995
1970-01-01 00:00:52.200,2.620888591,-15.686747555,3.06849587,1.86048801265,0.57954134045,-0.6946096867,-19.666399955,42.76099968,11.846199513,4.3119876385,-5.909020424,6.0000653265
1970-01-01 00:00:52.300,-4.168745637000001,-16.422988415,-0.96909317365,4.025330663,0.60321167135,-0.35345148332789994,-20.014100075,41.827699665,18.470799445,-2.8007953165,-6.6951303485,-1.8910627365
1970-01-01 00:00:52.400,-0.5392823964000001,-8.827720644,-1.2827025055,3.2120639090000003,1.22612312455,0.4341596961,-19.678599355,42.17539978,16.78109932,-2.2974247934,-2.00372743595,-4.0780972245000005
1970-01-01 00:00:52.500,1.6896318497,-1.5375380813,-2.306082785,0.9168053752,2.7932517525,-0.81754270195,-18.684300425,42.30349922,7.441999674,3.6504395005,5.3055047989999995,-8.0323364735
1970-01-01 00:00:52.600,-5.1251268985,-8.47926601172,8.5773718935,-1.0030875829199999,0.7760050891000001,-0.7596649209649999,-17.22029972,43.00499916,-6.1121999025000004,-0.916149675645,4.535706997,0.6612992290000004
1970-01-01 00:00:52.700,-4.1878883835,-11.829816339,1.2945172784999999,1.170230627,0.8344173431,-0.0583359114799999,-16.28700018,42.42549896,-17.415500165,-2.2040997745,-8.6433780175,0.06076455099999989
1970-01-01 00:00:52.800,-0.04860413100000005,-8.593074562,-4.7349474435,-2.479352713,-2.852656722,0.23807771505,-14.731499675,41.80329895,-23.49720001,0.787538886,1.5753252510000004,-14.05413866
1970-01-01 00:00:52.900,3.5786157249999997,-9.0502536285,2.865105927,-2.4015460015,-0.482340276,0.017332762499999987,-15.25,42.687799455,-20.697299955,4.6421052215,-1.4325790405000003,2.2822328212
1970-01-01 00:00:53.000,-1.93878454,-7.7982089519999995,1.5339488985,-1.9788396355,-1.427550018,-0.76264283045,-17.622899054999998,44.060298915000004,-12.218299389,-1.6343393919999998,2.2385635375,1.60410720125
1970-01-01 00:00:53.100,-0.03888335825,-10.18146014,-0.8386842015,-1.8047481775,-1.45580172555,0.7615738213000001,-19.349199295,44.328699115,-1.3175998925,0.11181522910000005,0.07066345200000002,1.2520036700000003
1970-01-01 00:00:53.200,3.0877881049999996,-14.089986325,3.724578023,-0.3100050091,-0.63008895515,-0.10101886839999995,-20.380099295,43.749198910000004,11.577799799000001,4.1181631685,-5.1284050945,8.0581247805
1970-01-01 00:00:53.300,-1.3917254805500001,-16.421642305,-2.3265714645,3.7247176170000005,0.4563792497,-0.5215872079,-20.17269993,42.547498704999995,19.34309959,1.022196889,-7.9845633505,-1.9905804395000002
1970-01-01 00:00:53.400,-1.64775750015,-11.3247809425,-1.8465113638,2.846853733,1.2391799686,-0.02603736379999995,-19.434599875,42.91959763,18.83679962,-1.04542210683,-2.6085209846,-2.9519826772
1970-01-01 00:00:53.500,2.2558335065,-3.117698312,-1.951795459,2.644510508,1.942417979,-0.41155833750000004,-17.836400034999997,44.505598065,11.0836997035,3.153335929,4.8685684205,-6.9473662375
1970-01-01 00:00:53.600,-1.4537893534,-2.0140088595375,3.4959138039999997,-0.76073391745,2.3895580770000002,-1.28934583085,-16.82989979,45.36569977,-2.202099919,1.2027646901,6.7239382265,-4.316319823
1970-01-01 00:00:53.700,-4.6894836425,-15.4965178965,11.5509028415,0.74401193875,1.346460104,-0.37727454305,-15.975899694999999,46.396598815000004,-14.59729958,-5.22936636215,-8.532231332,8.177611588000001
1970-01-01 00:00:53.800,-4.6440200805,-10.994272231,-3.1345978975,-1.526660025,-1.9292083385,0.09376505388,-14.8961997,45.26199913,-22.55169964,-3.433202505,-2.4638991355,-10.196323871
1970-01-01 00:00:53.900,4.7706900835,-11.374880315,-0.8805587884999999,-2.9152685405,-1.56346353895,0.437748424725,-15.091400145,45.14609909,-23.320299145,4.7103523015,-2.775502205,-5.461649059
1970-01-01 00:00:54.000,-1.48609235905,-6.7519471645,1.6621144415,-2.3146530385,-1.6418810488,-1.06424862125,-16.787199975,46.3660984,-16.41509962,0.6562011839999998,3.015064478,1.06742167455
1970-01-01 00:00:54.100,-0.9846464695000001,-9.017950058,-0.390927404,-1.7258725165,-1.3686032517,0.8544989826,-17.738800050000002,47.2383976,-5.734000087,-0.9406068622499999,0.7063832283,1.278657794
1970-01-01 00:00:54.200,3.4827534555,-14.743525985000002,3.6504006385,-0.47325393565,-0.36139251294999997,0.11071605980000004,-18.88559914,47.01879883,7.7408995615,5.059862137,-5.3475704195,6.77504611
1970-01-01 00:00:54.300,-1.1796615125000003,-17.34706688,-2.585145831,3.4134907725000003,0.8276216833999999,-0.7346965372500001,-19.507799145,45.87199974,18.18410015,0.2526028155000002,-5.6766519545000005,3.5891537665
1970-01-01 00:00:54.400,-2.10628223435,-13.6649613385,-0.943968534,3.0311768055000003,0.97514128675,-0.076126836245,-19.42239952,45.58529854,20.056798935,-3.240299523,-5.5709261895,-3.3732289075
1970-01-01 00:00:54.500,2.6615666447499997,-2.1361924334,-1.4288141725,3.1768639084999997,1.7503064574,-0.4253787473,-17.940099715000002,47.07369804,13.38339996,3.1072196365,4.084769249,-7.89152813
1970-01-01 00:00:54.600,-1.53529488285,-1.4178969262999999,0.2147558930000001,-0.24624776855000008,2.9791784285,-1.1765681505,-17.006799695,47.14690018,-0.11590003949999983,0.88116443135,6.1166574955,-7.581588506999999
1970-01-01 00:00:54.700,-5.817101598000001,-13.045968054,12.3637146965,0.2606027126,0.7758523524000001,-0.2627406734949999,-15.69529915,46.445400235,-14.39599943,-3.801329374,-4.361605644,6.0919919015
1970-01-01 00:00:54.800,-5.2855956555,-9.017950535,-7.056134939,-1.30011208335,-2.015261412,0.319320403,-13.676199910000001,44.91429901,-24.528100015,-2.829444885,-1.8193621635,-6.46370959035
1970-01-01 00:00:54.900,3.1846974495,-13.33325672,-2.5849963425,-3.28597641,-1.9116465153,0.40819867699999995,-12.944200039999998,44.127399445,-27.553699495,2.5260807873,-3.2638392444999997,-5.749852538
1970-01-01 00:00:55.000,-0.37761735900000004,-7.253542662000001,1.15917299675,-2.3668041224999996,-1.2944616378,-1.1423607168,-14.26179981,45.554798125000005,-21.301199914999998,1.8060123920000002,1.677503586,0.3540944456500001
1970-01-01 00:00:55.100,-1.0456635055499999,-6.347410678500001,-1.135394374085,-1.4794720410000002,-2.17026394595,0.8563315125,-17.592399595,45.7560997,-10.278499601,-1.7373447864,3.3605222704999997,0.37557911899999996
1970-01-01 00:00:55.200,4.0357944965,-15.59447384,3.124727249,-0.9203940799449999,-0.19379130005000006,0.27908085285,-19.269900319999998,46.19529915,3.5257999225000005,5.8095258475,-4.969272136500001,5.338796973
1970-01-01 00:00:55.300,0.509222567,-13.87209034,2.36470701925,3.5028272865,0.7607339025000001,-0.87855106595,-19.67860031,45.457199095,15.94539976,1.684444547,-5.8794231415,6.135463833
1970-01-01 00:00:55.400,-5.559873104,-15.903446675,-3.5175989270000003,3.0736306905,0.98079159845,-0.0638335347,-19.739600179999996,44.871599195,19.91649914,-4.6711370945,-7.6384272575,-4.966283023
1970-01-01 00:00:55.500,2.4988545777,-6.0003018375,-3.21356082,2.9382516145,1.8746138215,-0.1806580648,-18.995399475,44.55439949,14.975499155,2.4231903998999997,2.5897266865,-6.1764674185
1970-01-01 00:00:55.600,-0.18020945770000002,-1.463360578,-1.77696991,-0.18516308064999998,2.882511854,-1.33210515995,-18.41590023,44.81060028,3.1902998388500006,2.001277447,5.710144043,-7.814984083000001
1970-01-01 00:00:55.700,-4.2765722275,-11.464761021000001,12.204442499999999,0.31687702240000004,0.99453568455,-0.3125247145245,-19.0625,44.261598585,-11.126399754,-4.0412346719,-4.257886409999999,6.024882078
1970-01-01 00:00:55.800,-4.4765225645,-10.333404658500001,0.1094715595000002,-1.33027264465,-2.26410532,0.24800398573500004,-17.671700475,43.194099425000005,-21.862399105,-1.8432717920000001,-0.6652681825000006,-1.7833960057500002
1970-01-01 00:00:55.900,1.1006984116,-11.632408141500001,-2.56719951335,-3.535125732,-3.406847954,0.2356343269,-17.15929985,42.27299881,-25.96769905,1.7970860599999998,-2.2388386725,-8.719786882
1970-01-01 00:00:56.000,1.9757236838,-8.452944994,0.8431708666,-2.927332759,-0.4800495933699999,-0.5276192965150001,-18.824599265,43.151399615,-20.916899684999997,3.0640726685,0.43502950650000005,1.1036882996
1970-01-01 00:00:56.100,-1.54486616227,-6.904041052,0.67686972045,-1.4966521265,-3.1237964629999997,-0.2887780517,-22.228399275,44.05419922,-10.4066,-2.4448236225000004,2.1354808805,1.32179352655
1970-01-01 00:00:56.200,5.232804059999999,-13.365709305,1.7135601045,-1.40815562,-0.5205182284,0.7879929841,-24.314599989999998,44.023698804999995,3.4526000472500002,5.999223471,-2.8797063825,4.9308183195
1970-01-01 00:00:56.300,-0.9846465176000001,-15.896119120000002,4.5625145434,1.45129677665,0.51799847185,-0.46516017615000005,-24.77820015,43.21239853,16.567600249999998,0.49578145155,-6.555640221,6.625281334
1970-01-01 00:00:56.400,-2.9035407305,-17.147116185,-4.0120156408,3.8205441235000004,0.50142921527,-0.47455194595000005,-24.90629959,42.43770027,21.81970024,-2.472480595,-7.7185502075,-3.86742520353
1970-01-01 00:00:56.500,0.6972087624999999,-6.553193568999999,-1.6250256895000001,3.10516572,1.4204489585,0.3312319368,-24.332900045000002,42.876899715,17.805899144999998,0.12628996349999988,2.1956176760100004,-4.886930227000001
1970-01-01 00:00:56.600,0.5751746895,-2.545514584,-2.2534407974999997,1.4792429803,3.3278958794999998,-0.5924454778499999,-23.393500324999998,43.883398055,6.1426997185,4.158577204,5.0452344415,-8.477470398000001
1970-01-01 00:00:56.700,-6.9985575650000005,-14.3436257855,11.3150603775,-1.0022476317,1.1141853930999999,-1.11120751525,-22.667599674999998,44.938699725,-8.564399956,-5.559055328,-3.0379722119999997,4.342862486
1970-01-01 00:00:56.800,-4.071836472,-9.30882764,0.3788137435000003,0.423393488,-0.31092125149999994,0.057419639050000006,-20.874199865,44.54220009,-20.20930004,-1.78752738225,-0.8312849995,-4.518829346
1970-01-01 00:00:56.900,0.977318525,-11.8645119675,-2.388784766,-3.0877565149999997,-3.3205657005,0.3119902387,-19.763998985,43.566198345000004,-25.9554987,2.6524601578499998,-1.20679783835,-10.209747795
1970-01-01 00:00:57.000,2.56944294255,-8.104639771,1.26221397495,-2.481719732,-0.17920732494999997,-0.63192147773,-21.14869976,44.188398365,-21.844099045,4.482949734,0.16306638750000002,0.9310128094000001
