"Time (s)","Acceleration x (m/s^2)","Acceleration y (m/s^2)","Acceleration z (m/s^2)"
7.477416900E-2,1.597508192E0,6.884748936E0,7.798209190E0
1.247741690E-1,3.571287692E-1,6.580860615E0,5.150251865E0
1.747741690E-1,6.780661345E-1,6.157031536E0,5.593223095E0
2.247741690E-1,2.643769979E0,6.080461502E0,7.903493404E0
2.747741690E-1,8.647062778E-1,5.694917679E0,7.443772316E0
3.247741690E-1,-5.835496187E-1,3.439682484E0,9.447761536E0
3.747741690E-1,1.762612939E0,4.940879822E0,7.922635555E0
4.247741690E-1,4.968397141E0,6.137889385E0,7.651947498E0
4.747741690E-1,5.114359379E0,5.726024628E0,8.571390152E0
5.247741690E-1,2.825624466E0,2.352742910E0,6.519544601E0
5.747741690E-1,7.067800164E-1,1.429711580E-1,3.469592810E0
6.247741690E-1,7.881359458E-1,-2.270190477E0,4.269094467E0
6.747741690E-1,5.001896858E0,-3.567698479E0,5.375176907E0
7.247741690E-1,5.839683533E0,-3.064906597E0,8.037490845E0
7.747741690E-1,9.957731247E0,-3.397808075E0,8.173882484E0
8.247741690E-1,1.219621658E1,-4.245465755E0,9.191430092E0
8.747741690E-1,1.306989670E1,-3.431307554E0,1.080987549E1
9.247741690E-1,1.222971630E1,-4.396213531E0,1.001515961E1
9.747741690E-1,1.175085258E1,-1.597508192E0,1.026640511E1
1.024774169E0,8.830113411E0,-2.756232500E0,8.059026718E0
1.074774169E0,5.720042706E0,-5.205286503E0,3.867100477E0
1.124774169E0,6.632306099E0,-5.846862316E0,3.847957850E0
1.174774169E0,8.449356079E0,-6.433403015E0,3.127120018E0
1.224774169E0,1.006301594E1,-3.498306751E0,3.237488985E0
1.274774169E0,9.236893654E0,-5.181358337E0,-1.373779297E0
1.324774169E0,7.034300327E0,-4.211966038E0,-6.481558084E-1
1.374774169E0,1.160489082E1,-3.840779543E0,-1.150947690E0
1.424774169E0,6.792625427E0,-3.201596737E0,3.725624800E0
1.474774169E0,8.533104897E0,-3.187239647E0,-2.629113793E-1
1.524774169E0,8.494819641E0,-2.071586132E0,-5.443671346E-2
1.574774169E0,5.250750065E0,-2.916551590E0,-1.238285750E-1
1.624774169E0,7.553842068E0,-4.015455723E0,7.776673418E-3
1.674774169E0,1.282582855E1,-8.930612564E0,1.733899117E0
1.724774169E0,8.921041489E0,-7.472486019E0,2.083251238E0
1.774774169E0,9.167501450E0,-6.706483841E0,1.776670814E-1
1.824774169E0,6.759125710E0,-3.941277981E0,5.153541565E-1
1.874774169E0,6.902695179E0,-4.515854359E0,1.300499082E0
1.924774169E0,8.114061356E0,-7.115955353E0,-3.227319419E-1
1.974774169E0,5.978467464E0,-6.936194420E0,7.067800164E-1
2.024774169E0,6.091228962E0,-8.657531738E0,7.187440991E-1
2.074774169E0,7.098906517E0,-5.945266724E0,2.468794823E0
2.124774169E0,1.101326561E1,-7.025028229E0,1.377069473E0
2.174774169E0,1.065912724E1,-1.382184124E1,1.690828323E0
2.224774169E0,4.858027935E0,-1.409462261E1,-4.083950043E0
2.274774169E0,6.696912289E0,-9.864411354E0,-8.279166222E-1
2.324774169E0,1.566401482E0,-9.926624298E0,2.222334146E0
2.374774169E0,1.788933992E0,-9.045467377E0,1.571187139E0
2.424774169E0,3.230310678E0,-6.356832504E0,-2.102692872E-1
2.474774169E0,4.850849628E0,-5.420939922E0,1.688435435E0
2.524774169E0,3.335594654E0,-4.546961308E0,2.063809484E-1
2.574774169E0,5.485546112E0,-3.694817305E0,3.641875982E0
2.624774169E0,1.060169983E1,-5.612365723E0,8.659924507E0
2.674774169E0,1.200209904E1,-7.230811119E0,5.933003902E0
2.724774169E0,-2.123031855E0,-1.301964664E1,-1.208016491E1
2.774774169E0,6.615556240E0,-7.338488102E0,-2.479861498E0
2.824774169E0,6.081657887E0,-1.063998508E1,-4.962415218E0
2.874774169E0,4.659423828E0,-8.887541771E0,-1.567597985E0
2.924774169E0,5.607579708E0,-8.267500877E0,9.947860718E0
2.974774169E0,3.900599957E0,-6.570092678E0,2.511865616E0
3.024774169E0,1.674078584E0,-4.231108665E0,-6.912266612E-1
3.074774169E0,6.411867142E0,-1.003430176E1,-9.523434043E-1
3.124774169E0,1.554437399E0,-1.020419216E1,9.942178130E-1
3.174774169E0,5.755934715E0,-8.578568459E0,9.289535522E0
3.224774169E0,5.126323223E0,-1.394626808E1,1.523031592E0
3.274774169E0,6.302096844E-1,-9.476474762E0,-1.727917075E0
3.324774169E0,2.696412086E0,-1.792762566E1,1.264606714E0
3.374774169E0,3.223132133E0,-1.639292908E1,6.021837234E0
3.424774169E0,-8.315058798E-2,-1.523181152E1,-1.941177368E0
3.474774169E0,1.482353687E0,-1.178674507E1,-2.860320330E0
3.524774169E0,-2.850749016E0,1.016949654E0,-3.030509949E0
3.574774169E0,-1.055234790E0,6.696912646E-1,1.322034478E0
3.624774169E0,1.058255768E1,-8.554341197E-1,-6.577271223E-1
3.674774169E0,-4.502694130E0,-2.471187592E0,3.864707708E0
3.724774169E0,1.404676628E1,-1.968006897E1,-7.373183727E0
3.774774169E0,6.320940018E0,-1.301007557E1,3.124727249E0
3.824774169E0,5.150251865E0,-1.735783386E1,1.015753269E0
3.874774169E0,5.272285461E0,-1.701296806E1,5.177469850E-1
3.924774169E0,1.913360834E0,-7.817351341E0,2.918944597E0
3.974774169E0,-1.040877819E0,-9.463613629E-1,1.123370457E1
4.024774169E0,1.025324464E0,-1.111466169E0,4.794618487E-1
4.074774169E0,-6.400800496E-2,-2.121835470E0,3.062513828E0
4.124774169E0,4.276273251E0,-1.594995785E1,-2.261815548E0
4.174774169E0,7.118348122E0,-2.156411743E1,2.277369022E0
4.224774169E0,-1.668993831E-1,-2.000339890E1,2.985943556E0
4.274774169E0,1.073569775E1,-1.350568962E1,1.841576099E0
4.324774169E0,5.018646240E0,-4.872684002E0,3.163012505E0
4.374774169E0,1.338784218E0,-1.185643673E0,5.560321808E-1
4.424774169E0,-1.457528114E0,1.428814173E0,-2.533400953E-1
4.474774169E0,5.942574978E0,2.982354403E0,1.486780357E1
4.524774169E0,4.115953922E0,-8.257929802E0,-7.031010151E0
4.574774169E0,1.729113460E0,-1.582074547E1,-3.710370541E0
4.624774169E0,1.391994667E1,-1.737458420E1,1.440090370E1
4.674774169E0,1.122173977E1,-8.887541771E0,-3.262613773E0
4.724774169E0,4.566103935E0,-2.146122551E1,-8.970093727E0
4.774774169E0,-1.890928149E0,-2.581377029E1,2.928755188E1
4.824774169E0,3.826422453E0,1.919342875E0,1.135334492E1
4.874774169E0,5.284249783E0,-2.928216755E-1,1.027717352E0
4.924774169E0,6.802196503E0,1.201765251E1,-3.755834341E0
4.974774169E0,6.466902256E0,-3.302095175E0,5.976074696E0
5.024774169E0,1.391276836E1,-2.835644341E1,4.764708042E0
5.074774169E0,8.523533821E0,-4.064029694E1,7.338488102E0
5.124774169E0,4.793421745E0,-8.200502396E0,-4.304089546E0
5.174774169E0,8.466105461E0,1.713560104E0,-8.901300430E-1
5.224774169E0,-2.796611488E-1,1.397408366E0,-5.793322563E0
5.274774169E0,-2.175673962E0,4.806881428E0,-6.454041004E0
5.324774169E0,2.301297188E0,3.030210733E0,3.559832001E1
5.374774169E0,3.859921932E0,-3.943670750E0,-1.180708408E1
5.424774169E0,-3.473181963E0,-2.724557686E1,-6.037390709E0
5.474774169E0,8.396714211E0,-1.663729668E1,-4.739882469E0
5.524774169E0,1.932323837E1,-2.374756813E1,-8.761918068E0
5.574774169E0,1.887308884E1,-1.266790199E1,3.946482468E1
5.624774169E0,7.737790346E-1,-5.131109238E0,-1.671984792E-1
5.674774169E0,7.666005492E-1,5.239982605E0,8.008777618E0
5.724774169E0,6.720840454E0,3.658027649E-1,1.025204849E1
5.774774169E0,-7.127620578E-1,-7.633104324E0,-5.907281041E-1
5.824774169E0,1.095823002E1,-1.771466446E1,-8.015955687E-1
5.874774169E0,1.414247894E1,-3.910829163E1,2.389831543E0
5.924774169E0,4.546961308E0,-1.704646873E1,1.250249892E-1
5.974774169E0,2.071586132E0,-2.002194405E0,-2.811566554E-2
6.024774169E0,-2.024926186E0,-2.398804724E-1,-5.046164036E0
6.074774169E0,-2.680858612E0,6.816553473E-1,-2.853141785E0
6.124774169E0,7.824530125E0,6.027819157E0,4.582853794E0
6.174774169E0,9.818648338E0,-7.455736160E0,4.453640938E0
6.224774169E0,1.989931107E0,-2.270848465E1,-3.456432343E0
6.274774169E0,5.248357296E0,-1.023769188E1,-5.022235394E0
6.324774169E0,6.308976173E0,-1.672583008E1,-2.319243431E0
6.374774169E0,2.117049932E0,-2.107837486E1,3.326651764E1
6.424774169E0,1.410568953E0,-8.037490845E0,5.827719688E0
6.474774169E0,-4.191627026E0,-7.378866673E-1,2.842374086E0
6.524774169E0,2.270190477E0,-1.846361756E0,7.680661678E0
6.574774169E0,-5.541777134E0,-6.088836193E0,1.200000525E0
6.624774169E0,2.308475733E0,-2.036710739E1,5.177469850E-1
6.674774169E0,7.750352383E0,-2.191137695E1,2.080858469E0
6.724774169E0,4.627120793E-1,-2.172952080E1,9.498010635E0
6.774774169E0,1.597508192E0,-1.025922680E1,1.049252748E0
6.824774169E0,5.023432255E0,7.821539044E-1,-1.014556766E0
6.874774169E0,-7.597211748E-2,1.119840980E0,-2.685644388E0
6.924774169E0,4.218845367E0,4.955236435E0,7.761718631E-1
6.974774169E0,1.041236782E1,-5.842076302E0,8.183453560E0
7.024774169E0,-3.403790236E0,-1.468116379E1,2.552543640E0
7.074774169E0,-3.300898790E0,-1.532273865E1,-3.552444220E0
7.124774169E0,7.391129971E0,-1.763779449E1,1.527817249E0
7.174774169E0,1.319432354E1,-2.179173470E1,-7.537391186E-1
7.224774169E0,6.665805817E0,-1.279950714E1,1.473859119E1
7.274774169E0,-3.188436270E0,-7.381558895E0,1.266999602E0
7.324774169E0,-9.044869542E-1,2.261815548E0,3.938885212E0
7.374774169E0,3.665804386E0,-1.499402523E0,4.692923546E0
7.424774169E0,-7.112366199E0,-5.226821899E0,7.833502889E-1
7.474774169E0,-1.098305583E0,-2.151626205E1,-6.337988973E-1
7.524774169E0,7.407879829E0,-3.906043625E1,4.664209366E0
7.574774169E0,6.732804775E0,-2.083640099E1,1.197607756E0
7.624774169E0,1.195214868E0,-1.085055351E1,-7.250252366E-1
7.674774169E0,-8.518448472E-1,5.393422127E0,-2.020140409E0
7.724774169E0,-1.584347725E0,7.038188934E0,-6.418148518E0
7.774774169E0,1.920240223E-1,-2.751446962E0,-2.587538481E0
7.824774169E0,9.667901039E0,-7.068099022E0,1.574656773E1
7.874774169E0,-2.225923300E0,-5.921338558E0,-1.462313771E0
7.924774169E0,3.237488985E0,-3.958715820E1,-4.359124660E0
7.974774169E0,7.489235878E0,-1.712333870E1,4.842474759E-1
8.024774169E0,4.005884171E0,-2.118605232E1,-1.719841212E-1
8.074774169E0,5.823532343E-1,-1.100638580E1,1.632114410E1
8.124774169E0,6.179763794E0,-2.579163790E0,3.888635874E0
8.174774169E0,1.154536963E0,-1.262213945E0,1.061216831E0
8.224774169E0,6.366403580E0,3.284149170E0,1.513609886E1
8.274774169E0,-5.419743061E0,-5.442475319E0,-1.431207061E0
8.324774169E0,4.285844326E0,-1.346261883E1,2.969193697E0
8.374774169E0,9.897611618E0,-4.197878265E1,5.562116146E0
8.424774169E0,8.396714211E0,-1.622782326E1,6.464509487E0
8.474774169E0,1.982752681E0,-5.724828243E0,-1.742274046E0
8.524774169E0,5.488536954E-1,8.347960114E-1,-3.746263027E0
8.574774169E0,-2.820539773E-1,7.342077255E0,-6.427719593E0
8.624774169E0,2.387438774E0,3.753740489E-1,-3.614657640E0
8.674774169E0,1.257428288E0,-8.916254997E0,8.595317841E0
8.724774169E0,-4.284946918E0,-9.442975044E0,1.934896231E0
8.774774169E0,5.799604058E-1,-2.999612617E1,2.176870346E0
8.824774169E0,8.600103378E0,-1.854527283E1,-6.146563292E-1
8.874774169E0,1.869123459E1,-3.066910744E1,1.502602863E1
8.924774169E0,2.040180445E0,-5.217250824E0,3.055335522E0
8.974774169E0,9.942178130E-1,4.330410957E0,1.004148006E1
9.024774169E0,6.093621731E0,-2.179263115E0,6.806982040E0
9.074774169E0,-6.812964439E0,-2.059622049E0,1.537687659E0
9.124774169E0,2.430509567E0,-1.251924801E1,-9.020941257E-1
9.174774169E0,9.184251785E0,-3.095145988E1,-1.310070455E-1
9.224774169E0,6.153442383E0,-2.708256531E1,1.401326656E1
9.274774169E0,1.547258973E0,-1.354636765E1,-2.082353830E0
9.324774169E0,3.342773199E0,-1.458724499E0,-2.513360977E0
9.374774169E0,-1.565205097E0,2.946461916E0,-2.872284412E0
9.424774169E0,2.320439816E0,6.827321053E0,-7.976474285E0
9.474774169E0,6.281159073E-2,-1.015753269E0,-2.869891644E0
9.524774169E0,-2.362314224E0,-3.203989506E0,-1.513250923E1
9.574774169E0,-6.406184196E0,-1.172453213E1,-1.267866993E1
9.624774169E0,3.390629768E0,-2.529183578E1,-5.556134224E0
9.674774169E0,2.384567451E1,-3.642205048E1,-5.122734070E0
9.724774169E0,1.443231010E1,-1.445145226E1,2.399402857E0
9.774774169E0,-3.375076294E0,-1.896611094E0,2.174477577E0
9.824774169E0,4.259523392E0,1.433599830E0,7.719245911E0
9.874774169E0,3.845565081E0,6.879365444E-2,2.863909483E0
9.924774169E0,-1.107876897E0,4.965107143E-2,4.108775616E0
9.974774169E0,1.095583725E1,-1.092473125E1,2.087737769E-1
1.002477417E1,1.784866142E1,-3.844039536E1,1.748256087E0
1.007477417E1,3.050549746E0,-2.802114868E1,6.845267296E0
1.012477417E1,2.995514870E0,-4.336392879E0,-1.270588875E0
1.017477417E1,-1.597209126E-1,9.475577474E-1,-2.795714140E0
1.022477417E1,-3.911367655E0,-3.693920076E-1,-3.198007345E0
1.027477417E1,2.231307179E-1,2.515454769E0,-4.227519512E0
1.032477417E1,1.116431236E1,-4.695316315E0,2.473879433E1
1.037477417E1,-2.235494614E0,-2.780160904E0,-2.000998020E0
1.042477417E1,-1.780559182E0,-4.439912415E1,-1.446461296E1
1.047477417E1,1.223689461E1,-2.383849525E1,-2.997010469E0
1.052477417E1,3.661347580E1,-1.655594063E1,5.722913742E1
1.057477417E1,2.962015390E0,-6.460022926E0,9.021539688E0
1.062477417E1,-5.101198673E0,2.414956331E0,8.073383331E0
1.067477417E1,4.621138573E0,-5.105685592E-1,2.566302419E-1
1.072477417E1,5.308177948E0,5.156233788E0,7.534699440E0
1.077477417E1,4.642673969E0,-3.905385733E0,2.921337366E0
1.082477417E1,1.782234192E1,-2.160748672E1,4.005884171E0
1.087477417E1,8.935398102E0,-4.793751144E1,8.626424789E0
1.092477417E1,4.261916161E0,-1.168863964E1,-3.882653952E0
1.097477417E1,4.556532383E0,5.283053398E0,-3.001796007E0
1.102477417E1,-7.701299667E0,-2.459223509E0,-9.116654396E-1
1.107477417E1,1.944168359E-1,2.745763958E-1,-1.292423368E0
1.112477417E1,9.380762100E0,-8.650053740E-1,1.403719521E1
1.117477417E1,-1.296909928E0,-7.474878788E0,4.257130623E0
1.122477417E1,-2.557329237E-1,-2.712084961E1,-3.887439489E0
1.127477417E1,7.467700481E0,-1.460459328E1,-9.642776489E0
1.132477417E1,4.041776657E0,-2.205733871E1,1.992024779E-1
1.137477417E1,1.063280678E1,-1.569153309E1,3.182035446E1
1.142477417E1,5.375176907E0,-2.543271303E0,-3.341576815E0
1.147477417E1,3.649054527E0,2.324028969E0,4.668995380E0
1.152477417E1,3.086441994E0,1.215553880E0,3.742374659E0
1.157477417E1,-1.644168258E0,-5.150251865E0,4.056133270E0
1.162477417E1,5.487938881E0,-1.480080414E1,4.842474759E-1
1.167477417E1,7.546663284E0,-3.732952881E1,2.251047850E0
1.172477417E1,1.214357495E0,-2.519373131E1,7.434200764E0
1.177477417E1,1.188036442E0,-8.305786133E0,7.713862062E-1
1.182477417E1,2.590230405E-1,-2.042872429E0,-1.493420482E0
1.187477417E1,-2.340778828E0,4.093222141E0,-2.589931488E0
1.192477417E1,3.637090445E0,5.783452511E0,-6.652645111E0
1.197477417E1,-2.187638044E0,-3.232703447E0,7.893921852E0
1.202477417E1,1.511366606E0,-3.440878868E0,-2.030908167E-1
1.207477417E1,1.946860313E0,-2.449472809E1,-4.105485439E0
1.212477417E1,7.216454029E0,-9.229715347E0,-4.007080555E0
1.217477417E1,2.966800928E0,-2.908416176E1,-4.656133652E0
1.222477417E1,1.601695633E1,-1.841605949E1,3.248854828E1
1.227477417E1,6.984051228E0,-3.335594654E0,-9.750752151E-2
1.232477417E1,3.574877024E0,4.387838364E0,6.876374245E0
1.237477417E1,1.690828323E0,-3.493520975E0,1.360319614E0
1.242477417E1,-3.607479334E0,-2.164906263E0,6.435795784E0
1.247477417E1,2.662912607E0,-1.611536217E1,-4.107878208E0
1.252477417E1,8.442177773E0,-3.627608871E1,1.604686737E0
1.257477417E1,4.795814991E0,-2.573241425E1,9.600901604E0
1.262477417E1,2.087737769E-1,-1.413051510E1,3.523431420E-1
1.267477417E1,1.111466169E0,-2.373081923E0,-3.461217880E0
1.272477417E1,-3.229114056E0,5.122734070E0,-2.951247692E0
1.277477417E1,3.809672832E0,5.122734070E0,-8.321339607E0
1.282477417E1,1.125823021E0,3.873381615E-1,1.156929731E0
1.287477417E1,2.310868502E0,3.529413417E-2,-2.917748213E0
1.292477417E1,-3.243471146E0,-2.348675156E1,-6.724429607E0
1.297477417E1,3.800101519E0,-1.750618935E1,-4.462016106E0
1.302477417E1,1.487737465E1,-2.673321342E1,-2.776571512E0
1.307477417E1,1.314646626E1,-1.636900139E1,2.068565178E1
1.312477417E1,-1.835594058E0,-5.722435474E0,-1.689631939E0
1.317477417E1,6.493223190E0,2.046461582E0,1.301007557E1
1.322477417E1,6.416653156E0,4.878367186E-1,4.842474759E-1
1.327477417E1,-1.665703654E0,1.238285750E-1,8.423034668E0
1.332477417E1,4.192524433E0,-1.252164078E1,-9.236295223E-1
1.337477417E1,1.355354595E1,-3.126521873E1,-1.079162955E0
1.342477417E1,2.109871387E0,-3.218675613E1,8.372785568E0
1.347477417E1,3.366701365E0,-9.627223015E0,-2.400898457E0
1.352477417E1,-9.786644578E-1,-3.737888098E0,-3.269792080E0
1.357477417E1,-5.304887772E0,3.188436270E0,-4.548157692E0
1.362477417E1,2.523829699E0,5.515456200E0,-5.603990555E0
1.367477417E1,1.903789520E0,2.261815548E0,2.059323072E0
1.372477417E1,-4.304089844E-1,-4.298107624E0,-3.468396425E0
1.377477417E1,-2.668894529E0,-2.758535767E1,-9.753145218E0
1.382477417E1,4.836492538E0,-1.787498283E1,-3.121437073E0
1.387477417E1,1.538495255E1,-3.071217728E1,-3.107080221E0
1.392477417E1,8.458927155E0,-1.352722454E1,6.373582363E0
1.397477417E1,-3.320041418E0,-3.977170229E0,7.474579811E-1
1.402477417E1,6.517151356E0,1.876272082E0,9.818648338E0
1.407477417E1,5.913861275E0,-2.904288471E-1,-8.542376757E-1
1.412477417E1,-4.328018188E0,-1.195214868E0,7.154240608E0
1.417477417E1,6.486044884E0,-1.280907917E1,1.674078584E0
1.422477417E1,1.193270779E1,-4.581178665E1,6.029015541E0
1.427477417E1,1.441675574E-1,-2.676671219E1,3.644268990E0
1.432477417E1,3.711267948E0,-3.998705626E0,-4.624728203E0
1.437477417E1,-2.393420935E0,-2.543271303E0,-3.655335665E0
1.442477417E1,-4.471587181E0,3.358326674E0,-4.462016106E0
1.447477417E1,1.573580027E0,8.084151268E0,-2.142174482E0
1.452477417E1,1.061366367E1,-9.933803558E0,8.858827591E0
1.457477417E1,-3.506681681E0,-6.100800514E0,-1.742274046E0
1.462477417E1,4.531407952E-1,-3.940500259E1,-1.154148102E1
1.467477417E1,9.069396019E0,-1.999861336E1,-4.016652107E0
1.472477417E1,1.581835270E1,-2.688396072E1,4.997499847E1
1.477477417E1,2.483151674E0,-9.241679192E0,1.472782373E0
1.482477417E1,3.215953588E0,4.392624378E0,7.417450905E0
1.487477417E1,7.218846798E0,-2.761018276E0,8.078168869E0
1.492477417E1,-1.860419661E-1,2.520240545E0,2.576471806E0
1.497477417E1,-7.199404836E-1,-8.214859009E0,-1.429711580E-1
1.502477417E1,8.056633949E0,-3.198336411E1,-8.829515576E-1
1.507477417E1,7.680960655E0,-3.443959808E1,1.279472160E1
1.512477417E1,3.072085142E0,-1.642642784E1,-1.290030479E0
1.517477417E1,2.219941139E0,-3.189632654E0,-3.966402531E0
1.522477417E1,-2.580360174E0,1.251446247E0,-5.462814331E0
1.527477417E1,-8.398807645E-1,8.366803169E0,-8.407481194E0
1.532477417E1,1.501795292E0,1.241874933E0,1.381855130E0
1.537477417E1,6.062515259E0,-6.385546207E0,-3.518645763E0
1.542477417E1,-2.190030813E0,-1.132941723E1,-7.931010723E0
1.547477417E1,2.468794823E0,-3.304159164E1,-8.005187988E0
1.552477417E1,9.007183075E0,-2.310599327E1,-9.068797827E-1
1.557477417E1,1.182981586E1,-2.530140686E1,4.945067215E1
1.562477417E1,-7.704889178E-1,-7.812565804E0,2.490330219E0
1.567477417E1,4.063312054E0,6.271887302E0,8.784351349E0
1.572477417E1,7.297810078E0,-2.746661186E0,4.230809689E0
1.577477417E1,8.647062778E-1,2.680858612E0,4.377070904E0
1.582477417E1,2.169692039E0,-1.037408257E1,4.986044168E-1
1.587477417E1,1.662742615E1,-3.830370712E1,8.048857450E-1
1.592477417E1,1.980359793E0,-3.320190811E1,5.818148136E0
1.597477417E1,6.756733060E-1,-9.095717430E0,-1.742274046E0
1.602477417E1,3.857529163E0,1.310070455E-1,-4.009473324E0
1.607477417E1,-3.880260944E0,3.083750308E-1,-6.509075642E0
1.612477417E1,-3.370888829E-1,5.117948532E0,-6.662216663E0
1.617477417E1,1.298106313E0,2.820539773E-1,1.872682810E0
1.622477417E1,-2.659323215E0,-6.828517914E-1,-1.380628777E1
1.627477417E1,-3.107080221E0,-1.298854065E1,-8.409873962E0
1.632477417E1,3.929313898E0,-2.689113998E1,6.661019921E-1
1.637477417E1,1.228235817E1,-2.466701126E1,-8.311768532E0
1.642477417E1,1.401565933E1,-1.849980927E1,2.786292458E1
1.647477417E1,-4.636692047E0,-5.578866005E0,-1.083948612E0
1.652477417E1,5.128716469E0,7.749754190E-1,1.215763283E1
1.657477417E1,3.847957850E0,-4.680959225E0,8.982058167E-1
1.662477417E1,-5.199304581E0,8.590233326E-1,3.084049225E0
1.667477417E1,3.153441191E0,-7.735995770E0,-1.424028635E0
1.672477417E1,1.587338734E1,-3.405913925E1,6.498009205E0
1.677477417E1,-8.566305041E-1,-3.114318466E1,6.160621166E0
1.682477417E1,3.641875982E0,-6.380760670E0,-3.343969584E0
1.687477417E1,3.093620539E0,-7.283154130E-1,-3.887439489E0
1.692477417E1,-4.114757538E0,9.451649189E-1,-2.968296528E0
1.697477417E1,-9.786644578E-1,2.187638044E0,-6.066104412E0
1.702477417E1,3.014657497E0,3.179463148E-1,4.544568539E0
1.707477417E1,-2.072782516E0,-1.274178028E-1,-9.990034103E0
1.712477417E1,-5.280959606E0,-1.846870232E1,-9.808179855E0
1.717477417E1,3.503092289E0,-2.141097641E1,3.898207188E0
1.722477417E1,2.210040855E1,-2.906501770E1,-1.494586945E1
1.727477417E1,1.295264816E1,-1.664208221E1,3.837549210E1
1.732477417E1,-1.926820397E0,-5.612365723E0,-7.126723289E0
1.737477417E1,3.859921932E0,4.328017831E-1,1.115952682E1
1.742477417E1,4.805386066E0,-2.959622622E0,9.388837814E-1
1.747477417E1,-4.249054909E0,1.007378340E0,1.975574136E0
1.752477417E1,3.797708750E0,-8.698508263E0,-3.179463148E-1
1.757477417E1,1.356311703E1,-4.295565414E1,2.061715841E0
1.762477417E1,-2.051247120E0,-2.576352119E1,6.694519520E0
1.767477417E1,1.350748420E0,-4.640281200E0,-3.681656837E0
1.772477417E1,2.277369022E0,1.581954837E0,-4.658526421E0
1.777477417E1,-3.715156317E0,3.140579700E0,-6.466004848E0
1.782477417E1,2.590230405E-1,3.602394581E0,-3.729513168E0
1.787477417E1,8.444570541E0,-4.408177376E0,3.924229050E1
1.792477417E1,1.056431174E0,-6.409474373E0,-3.837190151E0
1.797477417E1,-3.667299747E0,-1.416880035E1,-4.138985157E0
1.802477417E1,2.174477577E0,-2.535165596E1,8.431708813E-1
1.807477417E1,1.291436291E1,-1.928016853E1,-8.638089895E-1
1.812477417E1,1.679282951E1,-2.180130577E1,4.306093597E1
1.817477417E1,-2.012962103E0,-5.926124573E0,-2.211566210E0
1.822477417E1,4.750350952E0,2.431705952E0,1.265324593E1
1.827477417E1,2.619841576E0,-4.305285931E0,-8.709874153E-1
1.832477417E1,-4.138985157E0,2.386242390E0,1.877468467E0
1.837477417E1,-1.310070455E-1,-5.131109238E0,-1.665703654E0
1.842477417E1,1.530359650E1,-2.890230560E1,7.166204929E0
1.847477417E1,-3.391826153E0,-3.962065506E1,8.066205025E0
1.852477417E1,1.403390527E0,-1.143709373E1,-3.181257725E0
1.857477417E1,2.344367981E0,1.835594058E0,-4.773382187E0
1.862477417E1,-3.839582920E0,4.064807594E-1,-4.483551502E0
1.867477417E1,-1.459920883E0,2.221137524E0,-2.412862539E0
1.872477417E1,2.519043922E0,1.462313771E0,-1.024128079E0
1.877477417E1,2.746661186E0,-6.744768620E0,-7.393822074E-1
1.882477417E1,-3.159722328E0,-1.190877914E1,-2.506182671E0
1.887477417E1,-1.306481123E0,-2.522244453E1,-4.900201797E0
1.892477417E1,1.207149124E1,-1.893799400E1,-9.092726111E-1
1.897477417E1,2.544976234E1,-3.022374344E1,2.338834572E1
1.902477417E1,2.901297510E-1,-9.419047356E0,-2.156531334E0
1.907477417E1,1.552044630E0,7.069295406E0,1.910070610E1
1.912477417E1,8.267500877E0,-3.397808075E0,-2.365903407E-1
1.917477417E1,6.038886309E-1,2.211566210E0,5.815755367E0
1.922477417E1,2.437688112E0,-6.285048008E0,7.402794957E-1
1.927477417E1,1.211934757E1,-2.524158669E1,4.202095509E0
1.932477417E1,-1.146162033E0,-4.391068649E1,9.198608398E0
1.937477417E1,2.526222467E0,-6.153442383E0,-4.450051785E0
1.942477417E1,2.320439816E0,-5.105685592E-1,-4.270590305E0
1.947477417E1,-4.100400925E0,5.835496187E-1,-4.203591347E0
1.952477417E1,9.511470199E-1,2.462812662E0,-3.023331404E0
1.957477417E1,8.166703224E0,4.198506355E0,3.350819016E1
1.962477417E1,-9.595218897E-1,-5.452046394E0,-1.207298660E1
1.967477417E1,-4.993521690E0,-2.550958252E1,-1.092144108E1
1.972477417E1,8.383852243E-1,-2.011346817E1,1.724327803E0
1.977477417E1,1.186092281E1,-2.848087120E1,-9.308080077E-1
1.982477417E1,7.226025105E0,-1.147298622E1,8.827720642E0
1.987477417E1,-8.149056435E0,-6.682555676E0,3.598805189E0
1.992477417E1,9.632008553E0,-5.009972453E-1,8.731708527E0
1.997477417E1,2.880659342E0,-4.080061913E0,7.776673418E-3
2.002477417E1,-3.422932863E0,2.625823736E0,5.277071476E0
2.007477417E1,5.341677666E0,-1.311775303E1,2.291725874E0
2.012477417E1,1.046022415E1,-5.553890991E1,1.396301746E1
2.017477417E1,-1.996212244E0,-2.237109756E1,1.290927768E0
2.022477417E1,2.554936409E0,-7.000801086E0,-4.280161381E0
2.027477417E1,-4.112663865E-1,-2.306082726E0,-3.528516054E0
2.032477417E1,-4.581656933E0,4.007080555E0,-6.463612080E0
2.037477417E1,1.621436477E0,4.746761799E0,-3.609872103E0
2.042477417E1,8.980861664E0,-9.789935112E0,1.942613029E1
2.047477417E1,-3.494717360E0,-4.092025757E0,-4.397409916E0
2.052477417E1,-6.973582268E0,-3.472224808E1,-1.302802181E1
2.057477417E1,6.421438694E0,-2.099671936E1,1.607079506E0
2.062477417E1,2.108046913E1,-3.032424164E1,3.726222992E1
2.067477417E1,1.032503009E0,-1.054427242E1,-1.246660590E0
2.072477417E1,2.356332064E0,2.204387903E0,7.089335442E0
2.077477417E1,9.318249702E0,-2.492722988E0,8.145168304E0
2.082477417E1,3.523431420E-1,9.954141974E-1,1.575972795E0
2.087477417E1,2.691925503E-2,-5.930910110E0,6.038886309E-1
2.092477417E1,8.820542336E0,-2.537080002E1,-1.060020447E0
2.097477417E1,-7.545766354E0,-4.794708252E1,7.587341309E0
2.102477417E1,1.848455518E-1,-1.471466255E1,-2.371885538E0
2.107477417E1,5.657829285E0,4.725824669E-2,-8.793623000E-2
2.112477417E1,-3.600300789E0,3.257827997E0,-3.916153431E0
2.117477417E1,8.599206209E-1,4.746761799E0,-3.990330935E0
2.122477417E1,3.299702406E0,2.561217546E0,1.027717352E0
2.127477417E1,2.023430586E0,-7.012764931E0,-3.281756163E0
2.132477417E1,-4.619942188E0,-8.451748848E0,-5.225924492E0
2.137477417E1,-1.727917075E0,-3.400888824E1,-9.645169258E0
2.142477417E1,1.227278709E1,-2.247638130E1,7.977072597E-1
2.147477417E1,2.315863419E1,-1.696750450E1,-7.920243144E-1
2.152477417E1,4.601995945E0,-4.365106583E0,5.720042706E0
2.157477417E1,-3.985545158E0,3.286541939E0,1.389601803E1
2.162477417E1,5.880361557E0,-1.492223978E0,3.235096216E0
2.167477417E1,-3.918546200E0,-1.547258973E0,4.309772491E0
2.172477417E1,7.312166691E0,-1.225364494E1,-1.815554202E-1
2.177477417E1,1.611775398E1,-3.188286591E1,3.450450182E0
2.182477417E1,5.222036362E0,-3.339841843E1,1.223928809E0
2.187477417E1,6.687341213E0,-8.837292671E0,-2.118246317E0
2.192477417E1,4.172484577E-1,1.055234790E0,-2.606681108E0
2.197477417E1,-5.467599869E0,2.015354872E0,-5.096413136E0
2.202477417E1,-1.993819475E0,4.023830414E0,-2.810070992E0
2.207477417E1,6.392724991E0,-4.123132706E0,2.469572449E1
2.212477417E1,-3.111865759E0,-3.632304668E0,-9.884750366E0
2.217477417E1,-2.735893488E0,-1.723819351E1,-6.049354553E0
2.222477417E1,7.422236919E0,-2.840190697E1,-7.136294365E0
2.227477417E1,2.820300484E1,-3.130589676E1,-5.814857960E0
2.232477417E1,1.453520107E1,-9.055039406E0,-2.534896374E0
2.237477417E1,-1.641775489E0,-3.306880951E0,2.018645048E0
2.242477417E1,4.575675011E0,1.339980721E0,5.949753284E0
2.247477417E1,3.754637718E0,1.002592683E0,-5.548357368E-1
2.252477417E1,8.934201598E-1,1.191625714E0,6.478866577E0
2.257477417E1,9.859326363E0,-9.414261818E0,-2.721536636E0
2.262477417E1,1.850938034E1,-4.629782867E1,6.684948444E0
2.267477417E1,7.204489708E0,-2.650320244E1,4.822135925E0
2.272477417E1,4.465605259E0,-2.892623425E0,-1.864607096E0
2.277477417E1,-1.352243900E0,-2.832503915E-1,-5.608776093E0
2.282477417E1,-4.701597214E0,2.493919373E0,-7.224828720E0
2.287477417E1,-1.296909928E0,5.108377457E0,-5.005486012E0
2.292477417E1,1.046022415E1,-1.213639641E1,2.514826775E1
2.297477417E1,-1.227517962E0,1.904985905E0,-7.782655716E0
2.302477417E1,-5.819643974E0,-4.263232422E1,-1.494826221E1
2.307477417E1,1.187288666E1,-2.833460999E1,-4.222733974E0
2.312477417E1,5.091597748E1,-2.641466904E1,5.994170380E1
2.317477417E1,1.102762222E1,-5.490331650E0,4.798207760E0
2.322477417E1,-6.710072994E0,2.869891644E0,7.431807995E0
2.327477417E1,5.638686657E0,-1.451546073E0,1.130608693E-1
2.332477417E1,1.444068432E0,1.112662554E0,5.071288586E0
2.337477417E1,1.094716311E0,-2.914158821E0,3.220739365E0
2.342477417E1,1.888265991E1,-2.076940155E1,1.415354609E0
2.347477417E1,1.295264816E1,-5.729613876E1,4.292125702E-1
2.352477417E1,1.561615825E0,-1.813819313E1,-1.519741535E0
2.357477417E1,4.240380764E0,2.649751902E0,-1.727917075E0
2.362477417E1,-4.198805332E0,1.215553880E0,-5.247459888E0
2.367477417E1,-2.367099762E0,4.054936886E0,-4.775774956E0
2.372477417E1,-1.876571178E0,3.025425196E0,-1.914856315E0
2.377477417E1,3.188436031E-1,-3.752244949E0,-6.980761051E0
2.382477417E1,-9.427721500E-1,-5.473581791E0,-1.567597985E0
2.387477417E1,6.608377934E0,-3.721676636E1,-1.003310490E1
2.392477417E1,1.761386681E1,-2.677389145E1,-1.306780219E0
2.397477417E1,2.576591492E1,-1.130070305E1,1.980928230E1
2.402477417E1,2.685943544E-1,-4.389034748E0,3.388236761E0
2.407477417E1,5.391926765E0,7.133901596E0,9.086145401E0
2.412477417E1,5.202893734E0,1.201196909E0,-2.568396091E0
2.417477417E1,1.190429211E0,2.481955290E0,6.574579239E0
2.422477417E1,6.814160824E0,-8.186145782E0,4.794618487E-1
2.427477417E1,2.072393799E1,-3.561028671E1,8.236095428E0
2.432477417E1,6.696912289E0,-3.656562042E1,4.906183720E0
2.437477417E1,1.161715388E0,-5.624329567E0,-3.138186932E0
2.442477417E1,4.507479668E-1,4.009473324E0,-1.965105653E0
2.447477417E1,-3.779762506E0,6.337988973E-1,-6.068497181E0
2.452477417E1,-5.117649436E-1,2.350350142E0,-4.294518471E0
2.457477417E1,8.224131584E0,-6.483951092E0,2.048196411E1
2.462477417E1,-2.798106909E0,-4.820042133E0,-1.483849168E0
2.467477417E1,-3.092723370E0,-4.143052673E1,-1.044257736E1
2.472477417E1,1.061127090E1,-2.708735085E1,-1.502991676E0
2.477477417E1,3.327848053E1,-2.372364044E1,6.876373887E-1
2.482477417E1,1.266999626E1,-7.159026146E0,3.946063757E0
2.487477417E1,-3.489931822E0,8.973085321E-3,6.323332787E0
2.492477417E1,6.203691959E0,-2.849552631E0,-3.825525343E-1
2.497477417E1,2.133799553E0,2.994318485E0,4.101597309E0
2.502477417E1,3.381058455E0,-5.009972453E-1,3.591626883E0
2.507477417E1,1.588535118E1,-1.955085564E1,3.084049225E0
2.512477417E1,1.465484238E1,-5.576383591E1,4.172484577E-1
2.517477417E1,1.954038739E0,-1.697468376E1,-6.577271223E-1
2.522477417E1,2.789732218E0,1.794916034E0,-7.752745152E-1
2.527477417E1,-4.507479668E0,1.668993831E-1,-5.307280540E0
2.532477417E1,-1.924427629E0,2.731107950E0,-5.120341301E0
2.537477417E1,6.562914371E0,3.387040377E0,2.853829765E1
2.542477417E1,-2.589931488E0,-7.570292354E-1,-8.484051704E0
2.547477417E1,-7.537391186E-1,-6.139085770E0,-1.522134304E0
2.552477417E1,7.527521133E0,-3.599343491E1,-1.277916813E1
2.557477417E1,1.664925957E1,-2.435564423E1,-5.991927147E0
2.562477417E1,2.071915245E1,-1.084576797E1,-7.143472672E0
2.567477417E1,-3.382254839E0,-5.947659969E0,1.514566994E1
2.572477417E1,3.579662561E0,3.013461113E0,1.160219860E1
2.577477417E1,6.198905945E0,-1.418046474E0,-1.429711580E-1
2.582477417E1,-2.056032896E0,3.583251953E0,7.156633377E0
2.587477417E1,7.115955353E0,-6.268298149E0,-9.690931439E-1
2.592477417E1,2.276830482E1,-3.359941864E1,1.064237785E1
2.597477417E1,5.916254044E0,-3.912025833E1,2.049751759E0
2.602477417E1,2.598007202E0,-8.712865829E0,-4.948058128E0
2.607477417E1,3.076870918E0,2.252244234E0,-1.043270707E0
2.612477417E1,-3.698406458E0,-2.039881349E-1,-6.964011192E0
2.617477417E1,-3.705585003E0,2.240280151E0,-2.932105064E0
2.622477417E1,8.909076691E0,-3.507878065E0,4.017100525E1
2.627477417E1,-1.404886007E0,2.362912297E-1,-1.462253952E1
2.632477417E1,-1.969891191E0,-1.117388344E1,-2.020140409E0
2.637477417E1,8.466105461E0,-3.356352615E1,-6.092425346E0
2.642477417E1,2.528226471E1,-3.057548714E1,-1.221177006E1
2.647477417E1,1.720200157E1,-8.806185722E0,-9.551849365E0
2.652477417E1,-3.873381615E-1,-1.211964726E0,3.055335522E0
2.657477417E1,4.630710125E0,1.979462504E0,3.807279825E0
2.662477417E1,4.336392879E0,2.446063042E0,7.951349735E0
2.667477417E1,-2.443969250E0,-9.104689956E-1,5.260321617E0
2.672477417E1,9.823433876E0,-1.103031445E1,-3.059223652E0
2.677477417E1,1.982603073E1,-4.502155685E1,7.853243828E0
2.682477417E1,5.188536644E0,-2.968745232E1,5.521438122E0
2.687477417E1,3.017050266E0,-5.562116146E0,-3.339184046E0
2.692477417E1,-2.772683203E-1,7.749754190E-1,-5.117948532E0
2.697477417E1,-4.945665359E0,1.019342422E0,-5.826822281E0
2.702477417E1,-7.836493850E-2,4.435695171E0,-4.835595608E0
2.707477417E1,1.298614788E1,-5.722435474E0,3.446831131E1
2.712477417E1,-3.126222849E0,-2.507079840E0,-3.312862873E0
2.717477417E1,-4.962415218E0,-3.514847183E1,-1.003071213E1
2.722477417E1,1.243071365E1,-3.123171997E1,-2.515753984E0
2.727477417E1,2.966352272E1,-2.930908585E1,-6.192924023E0
2.732477417E1,1.029272652E1,-8.765507698E0,-2.405683994E0
2.737477417E1,-3.073580742E0,1.205982566E0,4.666602135E0
2.742477417E1,7.187740326E0,-2.444866419E0,4.049852192E-1
2.747477417E1,4.484747887E0,2.793321371E0,2.413759947E0
2.752477417E1,1.994716763E0,1.190429255E-1,3.416950703E0
2.757477417E1,1.511695576E1,-1.394866085E1,8.982058167E-1
2.762477417E1,1.644078445E1,-5.088247681E1,3.689732552E0
2.767477417E1,2.796910524E0,-2.457129669E1,8.479565382E-1
2.772477417E1,3.737888098E0,-2.542374134E-1,-1.898106575E0
2.777477417E1,-3.296113253E0,9.667003751E-1,-4.272983074E0
2.782477417E1,-3.700799227E0,2.175673962E0,-4.505086899E0
2.787477417E1,-1.525424421E-1,2.616252422E0,-1.703988791E0
2.792477417E1,2.622234583E0,-7.434200764E0,-5.307280540E0
2.797477417E1,9.631111026E-1,-6.012266159E0,-7.713263988E0
2.802477417E1,-5.141577721E-1,-3.516522217E1,-9.808179855E0
2.807477417E1,1.362532997E1,-2.141097641E1,2.674876690E0
2.812477417E1,3.287379456E1,-1.238764286E1,-3.935296059E0
2.817477417E1,7.572984695E0,-6.191727638E0,1.035972595E1
2.822477417E1,-6.080461502E0,-3.430709541E-1,1.634746552E1
2.827477417E1,6.139085770E0,-1.738684773E0,1.961217284E0
2.832477417E1,-1.395314693E0,1.847558141E0,3.682554007E0
2.837477417E1,4.556532383E0,-2.708376169E0,6.014958024E-1
2.842477417E1,2.213390923E1,-2.449711990E1,7.529913902E0
2.847477417E1,1.242353535E1,-4.639593506E1,1.822433591E0
2.852477417E1,2.313261271E0,-1.300050449E1,-4.110270977E0
2.857477417E1,8.048857450E-1,2.738286495E0,-1.354636669E0
2.862477417E1,-5.434100151E0,1.723131418E0,-5.503491879E0
2.867477417E1,-1.550848126E0,2.132603168E0,-2.604288340E0
2.872477417E1,3.475574851E-1,-9.583254457E-1,1.094148064E1
2.877477417E1,-2.838784933E0,-3.515056372E0,-1.082812023E1
2.882477417E1,-2.137388945E0,-7.403094292E0,-3.205185890E0
2.887477417E1,4.223630905E0,-3.308705521E1,-6.805785656E0
2.892477417E1,1.828654861E1,-2.578266335E1,-6.817749977E0
2.897477417E1,2.869861794E1,-7.190133095E0,1.330678558E1
2.902477417E1,2.799303293E0,-4.750350952E0,1.508674622E0
2.907477417E1,-2.811566554E-2,4.763511658E0,1.432194042E1
2.912477417E1,4.867898464E0,-3.143570721E-1,-2.451147795E0
2.917477417E1,2.025823355E0,4.897809029E0,7.539484978E0
2.922477417E1,4.992325306E0,-1.702792406E0,2.749054193E0
2.927477417E1,2.121955109E1,-2.684567451E1,7.381558895E0
2.932477417E1,1.020658493E1,-5.534508896E1,3.062513828E0
2.937477417E1,2.416152716E0,-1.509781361E1,-2.343171597E0
2.942477417E1,1.812862277E0,2.934497833E0,-4.040879309E-1
2.947477417E1,-5.407779217E0,-3.047857881E-1,-6.439683914E0
2.952477417E1,-3.975973845E0,5.189733028E0,-6.245566368E0
2.957477417E1,4.673780918E0,3.058924675E0,4.280939102E1
2.962477417E1,-2.402992249E0,-3.213560820E0,-1.733749580E1
2.967477417E1,-2.546860695E0,-1.358704472E1,-4.256233215E0
2.972477417E1,5.183751106E0,-3.135614586E1,-1.696810365E0
2.977477417E1,2.612962341E1,-2.965395164E1,-1.046889782E1
2.982477417E1,2.609612465E1,-6.462415695E0,6.814160824E0
2.987477417E1,-1.684846282E0,-2.744268417E0,1.913360834E0
2.992477417E1,5.312963486E0,2.481955290E0,5.868397713E0
2.997477417E1,7.460521698E0,1.965105653E0,3.838386536E0
3.002477417E1,-9.475577474E-1,1.070788130E-1,1.846361756E0
3.007477417E1,1.168146133E1,-1.086969566E1,-7.728816867E-1
3.012477417E1,2.210040855E1,-4.537120819E1,3.895814419E0
3.017477417E1,3.196810961E0,-3.079592705E1,1.966002941E0
3.022477417E1,2.497508526E0,-1.702792406E0,-2.987439156E0
3.027477417E1,-2.237887383E0,3.217149973E0,-2.515753984E0
3.032477417E1,-4.347160339E0,3.049353361E0,-6.061318874E0
3.037477417E1,-7.848458290E-1,4.162613869E0,-4.270590305E0
3.042477417E1,7.448557854E0,-8.006384850E0,3.924707794E1
3.047477417E1,1.482353687E0,2.364706993E0,-4.725525856E0
3.052477417E1,-6.863213539E0,-4.130849457E1,-2.090459633E1
3.057477417E1,1.120738316E1,-2.913680267E1,2.159522474E-1
3.062477417E1,4.342225266E1,-2.632852745E1,3.864857101E1
3.067477417E1,1.476251888E1,-7.724031448E0,4.968397141E0
3.072477417E1,-1.773380637E0,-1.223928809E0,4.491926193E0
3.077477417E1,4.302893162E0,1.680060625E0,1.499103427E0
3.082477417E1,4.111168385E0,4.289732933E0,3.067299604E0
3.087477417E1,3.136691332E0,-4.555336237E-1,3.505485058E0
3.092477417E1,1.420469284E1,-2.784886551E1,1.303878975E1
3.097477417E1,1.094626617E1,-5.509354401E1,3.282952785E0
3.102477417E1,1.300499082E0,-1.558385563E1,-3.739084482E0
3.107477417E1,5.583651543E0,4.344767570E0,-8.422735929E-1
3.112477417E1,-2.431705952E0,1.558026671E0,-7.377969742E0
3.117477417E1,-2.078764737E-1,5.424529076E0,-1.106501007E1
3.122477417E1,-1.143769264E0,1.153340459E0,-1.337886930E0
3.127477417E1,-2.383849621E0,-4.235894203E0,-1.563769436E1
3.132477417E1,-2.362314224E0,-5.152644634E0,-3.257827997E0
3.137477417E1,-1.024128079E0,-3.553132248E1,-1.115593719E1
3.142477417E1,1.767368698E1,-2.979034233E1,1.178465128E0
3.147477417E1,3.080549812E1,-1.056580734E1,1.208584785E1
3.152477417E1,3.519842148E0,-4.726422787E0,4.860421181E0
3.157477417E1,-6.437291145E0,4.328018188E0,1.591885090E1
3.162477417E1,5.186143875E0,-8.096713424E-1,3.523431420E-1
3.167477417E1,3.096013308E0,4.054936886E0,5.839683533E0
3.172477417E1,4.420141697E0,-2.100300074E0,1.073180914E0
3.177477417E1,2.175823593E1,-2.324477577E1,2.097907305E0
3.182477417E1,9.076574326E0,-5.755486298E1,1.076201916E1
3.187477417E1,1.707578063E0,-9.888339996E0,-4.624728203E0
3.192477417E1,2.301297188E0,6.369993210E0,8.383852243E-1
3.197477417E1,-2.211566210E0,2.213959217E0,-3.846761465E0
3.202477417E1,-3.006581545E0,4.397409916E0,-7.696514130E0
3.207477417E1,-7.824530005E-1,1.455135226E0,1.243071318E0
3.212477417E1,-2.788535595E0,-3.584448338E0,-1.469432354E1
3.217477417E1,-1.794916034E0,-1.349851036E1,-1.869392633E0
3.222477417E1,7.367201805E0,-2.902433968E1,-5.691927075E-1
3.227477417E1,2.342214394E1,-2.642663193E1,-7.363612652E0
3.232477417E1,1.834427643E1,-1.101595688E1,-4.684847832E0
3.237477417E1,-1.953141451E0,-3.337987661E0,4.532604218E0
3.242477417E1,3.812065601E0,3.956831455E0,8.772386551E0
3.247477417E1,5.636293888E0,3.827618837E0,7.881958008E0
3.252477417E1,-3.083152056E0,1.677667737E0,5.461617470E0
3.257477417E1,5.763113499E0,-3.407379389E0,1.310070395E0
3.262477417E1,3.009423065E1,-3.520350647E1,8.674281120E0
3.267477417E1,6.481259346E0,-4.435605240E1,4.135096550E0
3.272477417E1,-5.763711333E-1,-1.111406326E1,-5.730810165E0
3.277477417E1,1.623829246E0,4.270590305E0,-8.231309652E-1
3.282477417E1,-3.669692516E0,2.022533417E0,-5.034199715E0
3.287477417E1,-2.056032896E0,4.184149265E0,-6.090032578E0
3.292477417E1,8.020741463E0,-1.523330688E0,4.368336868E1
3.297477417E1,-1.629811287E0,-8.817551732E-1,-9.262317657E0
3.302477417E1,-1.974676847E0,-9.407083511E0,-3.868296862E0
3.307477417E1,3.948456526E0,-3.241197968E1,-4.581656933E0
3.312477417E1,2.066411781E1,-2.659652328E1,-5.172983646E0
3.317477417E1,2.598605347E1,-7.417450905E0,-4.998307228E0
3.322477417E1,-7.561319470E-1,-3.981058598E-1,1.090558815E1
3.327477417E1,4.534996986E0,2.892324328E-1,3.744767427E0
3.332477417E1,3.699303865E0,-6.397809386E-1,5.782256126E0
3.337477417E1,-4.430909157E0,-3.239283562E-1,4.738387108E0
3.342477417E1,9.457332611E0,-8.528319359E0,-1.129412293E0
3.347477417E1,3.049173927E1,-4.373122787E1,1.538734531E1
3.352477417E1,6.383153439E0,-3.247897720E1,3.617947817E0
3.357477417E1,2.598007202E0,-2.727518797E0,-1.941177368E0
3.362477417E1,-8.015955687E-1,3.880260944E0,-3.174079180E0
3.367477417E1,-3.906582117E0,2.692822695E0,-7.028617382E0
3.372477417E1,-9.511470050E-2,4.631906509E0,-4.857131004E0
3.377477417E1,7.963313580E0,-7.633104324E0,3.981686783E1
3.382477417E1,1.113858938E0,-8.168498278E-1,-7.505088329E0
3.387477417E1,-3.116651535E0,-4.065943909E1,-1.571905041E1
3.392477417E1,9.392725945E0,-2.279492569E1,-4.155734539E0
3.397477417E1,4.069293976E1,-3.036252594E1,4.412364960E1
3.402477417E1,9.352047920E0,-6.000301838E0,-7.418647289E0
3.407477417E1,-6.224030972E0,4.469194412E0,1.591885090E1
3.412477417E1,5.552545071E0,-1.188036442E0,5.775675774E-1
3.417477417E1,1.851147413E0,1.989033818E0,3.335594654E0
3.422477417E1,3.737888098E0,-7.378866673E-1,2.997907639E0
3.427477417E1,1.667079544E1,-1.625414467E1,-1.648953915E0
3.432477417E1,1.540170193E1,-5.788746262E1,1.614257932E0
3.437477417E1,3.596412420E0,-2.118605232E1,2.063809484E-1
3.442477417E1,4.465605259E0,2.546860695E0,4.124628007E-1
3.447477417E1,-2.482254505E0,8.614161611E-1,-4.457230568E0
3.452477417E1,-2.905783892E0,2.585145712E0,-6.312565327E0
3.457477417E1,-7.510471940E-1,2.582752943E0,-3.186043262E0
3.462477417E1,1.122173977E1,-1.273250866E1,1.346501160E1
3.467477417E1,-1.385743380E0,-7.005586624E0,-3.150151014E0
3.472477417E1,-4.469194412E0,-3.112613678E1,-5.328815937E0
3.477477417E1,1.503799343E1,-2.556013107E1,-3.657728434E0
3.482477417E1,4.854558563E1,-2.513390923E1,4.632384872E1
3.487477417E1,4.276273251E0,-4.147060871E0,6.661019802E0
3.492477417E1,-3.317648649E0,7.265506744E0,1.476491165E1
3.497477417E1,7.659126282E0,2.362912297E-1,4.290630341E0
3.502477417E1,1.099501967E0,1.347159147E0,2.332403898E0
3.507477417E1,3.991527319E0,-1.111466169E0,2.039881349E-1
3.512477417E1,1.529163265E1,-1.743440437E1,-1.012163997E0
3.517477417E1,9.423832893E0,-6.092814255E1,1.355534077E0
3.522477417E1,2.559721947E0,-1.724297905E1,-3.521337509E0
3.527477417E1,5.475974560E0,4.488337040E0,1.800898194E0
3.532477417E1,-2.714358091E0,-2.213360928E-2,-5.278566837E0
3.537477417E1,-3.427718401E0,2.879462957E0,-7.124330521E0
3.542477417E1,-7.968099117E-1,3.312862873E0,-2.290529490E0
3.547477417E1,2.325225353E0,-1.606750488E1,1.651496315E1
3.552477417E1,-1.830808401E0,-1.978266120E0,-5.079663277E0
3.557477417E1,-4.004687786E0,-3.315405273E1,-1.539123344E1
3.562477417E1,1.454237938E1,-2.837797928E1,5.632106066E-1
3.567477417E1,4.408057785E1,-1.421904945E1,3.638376617E1
3.572477417E1,4.458426952E0,-5.533402443E0,9.342177391E0
3.577477417E1,-7.844869137E0,3.739084482E0,1.793480301E1
3.582477417E1,6.096014977E0,-1.185643673E0,6.349952817E-1
3.587477417E1,1.662114382E0,2.958425999E0,5.131109238E0
3.592477417E1,2.155334949E0,1.812563092E-1,2.085644007E0
3.597477417E1,1.470269871E1,-1.601007652E1,-7.597211748E-2
3.602477417E1,1.484148216E1,-7.165367126E1,-2.653042078E-1
3.607477417E1,3.577269793E0,-1.697946930E1,-1.593919039E0
3.612477417E1,3.931706667E0,2.872284412E0,8.216354847E-1
3.617477417E1,-2.295315027E0,8.075776696E-2,-3.956831455E0
3.622477417E1,-2.386242390E0,2.908176899E0,-3.305684566E0
3.627477417E1,-1.262213886E-1,2.745464802E0,2.566302419E-1
3.632477417E1,2.983550787E0,-5.071288586E0,-7.284649372E0
3.637477417E1,3.188436031E-1,-5.123930454E0,-1.321137190E0
3.642477417E1,-1.959123611E-1,-3.718805313E1,-9.786644936E0
3.647477417E1,1.257188988E1,-2.074547386E1,1.025324464E0
3.652477417E1,3.099213791E1,-9.526723862E0,2.196880341E1
3.657477417E1,1.484746456E0,-6.225227356E0,1.263171101E1
3.662477417E1,-2.350350142E0,1.093519926E0,5.320142269E0
3.667477417E1,7.395915508E0,-2.655734062E0,1.259821177E0
3.672477417E1,2.265404940E0,3.032603502E0,5.882754326E0
3.677477417E1,5.298606873E0,-8.168498278E-1,1.855933070E0
3.682477417E1,1.677368736E1,-2.292892456E1,3.965206146E0
3.687477417E1,6.282654762E0,-5.365725327E1,7.793423176E0
3.692477417E1,4.297808647E0,-1.394148159E1,-3.889832258E0
3.697477417E1,5.736792088E0,3.420539856E0,1.456032634E0
3.702477417E1,-1.182054400E0,-2.422732860E-1,-3.090330362E0
3.707477417E1,-1.775773525E0,1.143769264E0,-2.201995134E0
3.712477417E1,6.541379094E-1,2.826820850E0,-1.560419440E0
3.717477417E1,7.154240608E0,-3.934099436E0,1.227757263E1
3.722477417E1,-3.384647608E0,-6.579664230E0,-5.165506005E-1
3.727477417E1,-1.788634956E-1,-4.184957123E1,-1.145294666E1
3.732477417E1,1.181306648E1,-2.066172409E1,2.186441660E0
3.737477417E1,2.773610497E1,-2.115015984E1,-1.189083290E1
3.742477417E1,6.160621166E0,-1.292393398E1,3.366701365E0
3.747477417E1,-4.663012981E0,2.455634356E0,5.715256691E0
3.752477417E1,7.077371120E0,-2.353939295E0,-3.107678294E-1
3.757477417E1,3.764209032E0,3.133401155E0,2.398804724E-1
3.762477417E1,4.013062477E0,2.477169752E0,3.553341627E0
3.767477417E1,1.243789196E1,-1.199731350E1,2.590230405E-1
3.772477417E1,1.721905136E1,-6.637689972E1,-4.794917583E0
3.777477417E1,2.157727718E0,-2.352742958E1,1.027717352E0
3.782477417E1,2.437688112E0,-3.409772366E-2,-1.457528114E0
3.787477417E1,-1.605883121E0,1.991426587E0,-3.542873144E0
3.792477417E1,-3.597908020E0,1.009771109E0,-3.095116138E0
3.797477417E1,5.847460628E-1,1.275374413E0,-2.123031855E0
3.802477417E1,4.968397141E0,-5.272285461E0,1.878694725E1
3.807477417E1,-1.788634956E-1,-5.399404526E0,-6.214459419E0
3.812477417E1,-2.905783892E0,-4.309682846E1,-6.238387585E0
3.817477417E1,9.378369331E0,-1.946950150E1,1.377069473E0
3.822477417E1,3.602454376E1,-2.329293251E1,-1.276481152E1
3.827477417E1,1.071416283E1,-8.516354561E0,1.947877312E1
3.832477417E1,3.302095175E0,-2.969193697E0,-7.627122402E0
3.837477417E1,5.550152302E0,-4.244269133E-1,-1.671984792E-1
3.842477417E1,1.252642632E0,3.454039574E0,9.918249846E-1
3.847477417E1,-5.787639618E-1,2.800499916E0,3.189333439E0
3.852477417E1,8.078168869E0,-6.591628075E0,-2.786142826E0
3.857477417E1,2.092971992E1,-6.015705490E1,1.115474129E1
3.862477417E1,4.489533424E0,-2.687678146E1,3.737588882E0
3.867477417E1,3.773780346E0,-1.942074656E0,-2.103889227E0
3.872477417E1,-1.996212244E0,4.725824669E-2,-3.276970625E0
3.877477417E1,-3.999902248E0,1.852343798E0,-8.706883430E0
3.882477417E1,-5.021936297E-1,3.717549086E0,-1.495813251E0
3.887477417E1,1.072851944E1,-6.589235306E0,2.257927322E1
3.892477417E1,-1.812563092E-1,-2.969193697E0,-5.343173027E0
3.897477417E1,-6.604788780E0,-4.857460022E1,-1.517558002E1
3.902477417E1,8.265108109E0,-1.943839455E1,1.910967946E0
3.907477417E1,2.597409058E1,-2.816232681E1,-6.702894211E0
3.912477417E1,1.184417343E1,-7.063313484E0,5.679962635E-1
3.917477417E1,2.636591434E0,-2.215155602E0,-5.326423168E0
3.922477417E1,5.348855972E0,2.455634356E0,4.405784607E0
3.927477417E1,3.067299604E0,4.440480709E0,-1.337886930E0
3.932477417E1,2.988336325E0,3.367897987E0,3.558127165E0
3.937477417E1,9.435796738E0,-7.381558895E0,-1.615454435E0
3.942477417E1,1.717568016E1,-5.091597748E1,3.206083298E0
3.947477417E1,2.140978098E0,-3.114049339E1,3.965206146E0
3.952477417E1,2.284547329E0,-5.238786221E0,-4.031008720E0
3.957477417E1,1.355534077E0,4.064508438E0,-6.314060688E-1
3.962477417E1,-4.301696777E0,3.360719442E0,-1.177836990E1
3.967477417E1,2.689233541E0,3.796512127E0,-4.588835716E0
3.972477417E1,9.974481583E0,-5.102395058E0,1.866491318E1
3.977477417E1,1.595115423E0,-3.421736479E0,-5.029414177E0
3.982477417E1,-8.422735929E-1,-2.035275078E1,-5.673382282E0
3.987477417E1,5.746363640E0,-1.756122398E1,-4.560121536E0
3.992477417E1,6.062515259E0,-2.216770744E1,-8.709874153E-1
3.997477417E1,1.208584785E1,-1.914856339E1,2.624956322E1
4.002477417E1,5.966503143E0,-3.242274761E0,1.815255046E0
4.007477417E1,4.363910258E-1,2.450848579E0,1.002951622E1
4.012477417E1,4.020241261E0,-5.943173170E-1,1.566401482E0
4.017477417E1,2.392224550E0,1.191625714E0,4.036991119E0
4.022477417E1,4.020241261E0,-1.652692604E1,3.172583818E0
4.027477417E1,1.033579731E1,-4.070041656E1,-2.420041084E0
4.032477417E1,5.315356255E0,-2.772174835E1,5.736792088E0
4.037477417E1,2.593221426E0,-1.344108295E1,-1.984248161E0
4.042477417E1,3.260220885E-1,-2.442473650E0,-1.900499344E0
4.047477417E1,-1.505384564E0,4.220340729E0,-4.526622295E0
4.052477417E1,5.059324265E0,3.968795538E0,-5.584847927E0
4.057477417E1,3.617947817E0,2.599502802E0,1.662114382E0
4.062477417E1,-1.033699393E0,-4.896612644E0,-1.862214208E0
4.067477417E1,-7.136294365E0,-3.190679359E1,-9.537491798E0
4.072477417E1,2.641377211E0,-1.464287853E1,-3.504288673E0
4.077477417E1,2.090728760E0,-2.116212273E1,-2.158924341E0
4.082477417E1,1.657717705E1,-2.230409813E1,2.078465462E0
4.087477417E1,1.048923683E1,-1.298375511E1,5.188536644E0
4.092477417E1,2.863909483E0,-7.426723242E-1,3.146262646E0
4.097477417E1,2.322832584E0,1.455135226E0,2.672483683E0
4.102477417E1,2.744268417E0,4.761118889E0,1.470389485E0
4.107477417E1,2.401795626E0,-6.742375851E0,-3.993022740E-1
4.112477417E1,-1.232303619E0,-5.398746109E1,4.429712772E0
4.117477417E1,3.586841106E0,-1.993400764E1,9.822536707E-1
4.122477417E1,6.129514217E0,-8.662317276E0,-2.916252613E-1
4.127477417E1,1.511366606E0,-2.605484724E0,2.593221426E0
4.132477417E1,8.694919348E-1,1.048056364E0,-2.865106106E0
4.137477417E1,1.537388563E-1,1.115055323E0,-3.801597059E-1
4.142477417E1,4.884648323E0,7.941179872E-1,2.663241577E1
4.147477417E1,-6.879963398E0,-1.395583916E1,-1.839482337E-1
4.152477417E1,-4.325624943E0,-1.925145531E1,-7.066902637E0
4.157477417E1,1.088644600E1,-1.939532280E1,2.370688915E0
4.162477417E1,1.128634644E1,-1.842084694E1,7.936992645E0
4.167477417E1,4.848456860E0,-1.017547798E1,5.650650501E0
4.172477417E1,-1.345065475E0,-2.207977057E0,-1.569990754E0
4.177477417E1,5.267499924E0,4.227519512E0,4.845465720E-2
4.182477417E1,3.211168051E0,3.660121441E0,3.689732552E0
4.187477417E1,-8.997012973E-1,-6.440581322E0,4.987539768E0
4.192477417E1,-1.859522343E0,-3.219393158E1,4.482355118E0
4.197477417E1,6.112764359E0,-3.431517029E1,-2.844468057E-1
4.202477417E1,5.329713345E0,-1.239003563E1,4.865206718E0
4.207477417E1,3.280559778E0,-3.965206146E0,2.842374086E0
4.212477417E1,-7.800601721E-1,2.642573595E0,-2.666501760E0
4.217477417E1,1.326820135E0,5.170590401E0,-7.074080944E0
4.222477417E1,4.483551383E-1,2.690429926E0,-2.292922258E0
4.227477417E1,-7.657032609E-1,-4.293322086E0,-6.274280071E0
4.232477417E1,1.700399637E0,-2.364706993E1,-1.281745338E1
4.237477417E1,1.484746456E0,-2.080050850E1,9.498010635E0
4.242477417E1,8.336893082E0,-1.532034588E1,1.626222134E0
4.247477417E1,9.279964447E0,-1.616082573E1,4.472783566E0
4.252477417E1,2.432902336E0,-8.944969177E0,5.133502007E0
4.257477417E1,-2.094317913E0,-1.413260818E0,7.814958572E0
4.262477417E1,4.029812336E0,1.057627559E0,-9.068797827E-1
4.267477417E1,4.841278553E0,5.460421085E0,3.254238844E0
4.272477417E1,4.137489319E0,-7.819744587E0,4.934897423E0
4.277477417E1,1.176042461E1,-3.653451157E1,1.832004786E0
4.282477417E1,3.096013308E0,-3.430799103E1,8.683852196E0
4.287477417E1,4.317250252E0,-1.094417286E1,6.469594240E-1
4.292477417E1,2.267797709E0,-2.174477577E0,-2.796611488E-1
4.297477417E1,-2.503789902E0,1.749452472E0,-1.881356835E0
4.302477417E1,3.212364316E-1,4.538586140E0,-4.756632328E0
4.307477417E1,1.018146038E0,3.063710213E0,-1.424028635E0
4.312477417E1,3.044866920E-1,-5.064109802E0,-5.098805904E0
4.317477417E1,-6.529414654E-1,-3.409772158E0,-7.485945702E0
4.322477417E1,2.717947483E0,-3.431038666E1,-7.052545547E0
4.327477417E1,1.524616814E1,-2.834926605E1,-9.784252167E0
4.332477417E1,1.744158363E1,-1.504038620E1,5.753302765E1
4.337477417E1,-2.246262282E-1,-7.956135273E0,-8.231309652E-1
4.342477417E1,-1.522134304E0,6.020640850E0,1.450887966E1
4.347477417E1,5.176572800E0,-2.251047850E0,4.316053987E-1
4.352477417E1,3.790530205E0,4.907380104E0,1.235892892E0
4.357477417E1,6.096014977E0,-8.673982322E-2,3.483949661E0
4.362477417E1,1.628046608E1,-1.944318008E1,3.098406315E0
4.367477417E1,5.351248741E0,-5.862475204E1,1.214566898E1
4.372477417E1,2.758625507E0,-1.366361523E1,-2.716751099E0
4.377477417E1,4.618745804E0,1.443171144E0,7.956135273E-2
4.382477417E1,-1.052842021E0,-8.482556343E-1,-1.648953915E0
4.387477417E1,-7.704889178E-1,1.766202211E0,-1.823629975E0
4.392477417E1,5.383851007E-3,3.767798424E0,-4.857131004E0
4.397477417E1,1.475175142E0,-8.073383331E0,6.292226315E0
4.402477417E1,-1.706381679E0,-4.163810730E0,-7.004689217E0
4.407477417E1,2.638086975E-1,-3.267997360E1,-5.627918720E0
4.412477417E1,1.273250866E1,-2.432932281E1,-3.705585003E0
4.417477417E1,3.652254868E1,-1.605554008E1,5.865346527E1
4.422477417E1,3.376272678E0,-6.866802692E0,7.520342350E0
4.427477417E1,-1.943570137E0,2.626122832E-1,9.622437477E0
4.432477417E1,3.634697676E0,5.524429083E-1,5.919244885E-1
4.437477417E1,5.210072041E0,6.939784050E0,5.775077343E0
4.442477417E1,5.447260857E0,-5.521438122E0,4.254737854E0
4.447477417E1,2.080050850E1,-3.185893822E1,9.047860146E0
4.452477417E1,2.279761791E0,-4.432255173E1,5.810969830E0
4.457477417E1,7.546364665E-1,-8.054241180E0,-3.956831455E0
4.462477417E1,1.171286702E0,2.072782516E0,-5.811567903E-1
4.467477417E1,-2.537289381E0,1.383051515E0,-2.518146753E0
4.472477417E1,1.571187139E0,3.245863914E0,-2.499004126E0
4.477477417E1,4.642673969E0,-4.601995945E0,2.174387932E1
4.482477417E1,-2.283350945E0,-5.201398134E-1,-5.977570057E0
4.487477417E1,-1.409671664E0,-1.390319729E1,-4.837988377E0
4.492477417E1,7.491628647E0,-3.333351517E1,-3.399004459E0
4.497477417E1,1.759233093E1,-2.365903473E1,-9.875179291E0
4.502477417E1,1.316560936E1,-1.029751205E1,-3.992723703E0
4.507477417E1,-2.527718067E0,-2.689233541E0,4.269094467E0
4.512477417E1,5.236393452E0,9.858429432E-1,2.085644007E0
4.517477417E1,4.590032101E0,2.410170555E0,-1.695913076E-1
4.522477417E1,2.399402857E0,2.065604210E0,3.991527319E0
4.527477417E1,1.500688648E1,-1.315364552E1,1.657029688E-1
4.532477417E1,1.176042461E1,-5.998716736E1,-4.057330132E0
4.537477417E1,1.384247899E0,-2.539472771E1,7.618148923E-1
4.542477417E1,4.798207760E0,-2.643769979E0,-1.744666815E0
4.547477417E1,4.172484577E-1,9.882357717E-1,-1.998605132E0
4.552477417E1,-1.579562068E0,1.294517040E0,-3.018545866E0
4.557477417E1,8.886345029E-1,3.753441334E0,-2.044068813E0
4.562477417E1,5.485546112E0,-6.964908600E0,2.827478790E1
4.567477417E1,-2.628216505E0,-4.463212490E0,-2.518146753E0
4.572477417E1,-5.479563713E0,-3.139203835E1,-9.532706261E0
4.577477417E1,9.371191025E0,-2.853829765E1,-6.290132403E-1
4.582477417E1,2.683371162E1,-2.662763023E1,-1.052632618E1
4.587477417E1,1.317996597E1,-9.193822861E0,2.306082726E0
4.592477417E1,2.853440940E-1,-2.519043922E0,-1.402493119E0
4.597477417E1,4.764708042E0,9.427721500E-1,-1.453639716E-1
4.602477417E1,8.048857450E-1,1.287338614E0,-3.176471949E0
4.607477417E1,3.093620539E0,3.765405416E0,5.550152302E0
4.612477417E1,9.828220367E0,-8.403892517E0,-2.006980032E-1
4.617477417E1,2.131526375E1,-5.234269714E1,5.286642551E0
4.622477417E1,4.297808647E0,-2.972334290E1,1.721935034E0
4.627477417E1,3.397808075E0,-3.024228811E0,-4.615156651E-1
4.632477417E1,-2.455933332E0,1.407278776E0,-1.565205097E0
4.637477417E1,-3.102294445E0,1.586740494E0,-2.127817631E0
4.642477417E1,8.694919348E-1,3.930510283E0,-1.910070658E0
4.647477417E1,4.798207760E0,-4.884648323E0,2.623281288E1
4.652477417E1,-7.920243144E-1,-9.200403094E-1,-9.578169823E0
4.657477417E1,-4.026223183E0,-3.380998611E1,-1.145055389E1
4.662477417E1,7.651947498E0,-3.048934555E1,1.829612017E0
4.667477417E1,3.061855888E1,-3.081746101E1,-5.010271549E0
4.672477417E1,1.213370419E1,-7.003193855E0,-1.962712765E0
4.677477417E1,-2.041675806E0,-2.780160904E0,3.981956005E0
4.682477417E1,4.927719116E0,8.853443861E-1,4.544568539E0
4.687477417E1,3.538984776E0,3.849453330E-1,-2.405683994E0
4.692477417E1,2.121835470E0,4.375874519E0,3.785744429E0
4.697477417E1,5.703292847E0,-4.606781960E0,4.130311012E0
4.702477417E1,1.997917175E1,-4.212714005E1,6.615556240E0
4.707477417E1,4.554139614E0,-4.334328842E1,3.857529163E0
4.712477417E1,2.590828657E0,-5.705685616E0,-2.400898457E0
4.717477417E1,-9.930213690E-1,2.273779631E0,-1.502991676E0
4.722477417E1,-2.829213619E0,2.733500719E0,-5.391029358E0
4.727477417E1,1.441675574E-1,4.660620213E0,-2.838784933E0
4.732477417E1,-2.093719877E-2,1.802094579E0,5.440680385E-1
4.737477417E1,8.742775917E-1,-1.848754644E0,-4.723132610E0
4.742477417E1,-3.538386524E-1,-6.423831463E0,-4.406980991E0
4.747477417E1,6.151049614E0,-3.508147049E1,-3.901796341E0
4.752477417E1,1.256231880E1,-2.256252289E1,2.514258385E0
4.757477417E1,2.604108810E1,-1.155224895E1,2.194009018E1
4.762477417E1,1.372283816E0,-8.487641335E0,1.286889935E1
4.767477417E1,5.416752100E-1,1.462313771E0,6.407081604E0
4.772477417E1,4.918148041E0,-7.354938388E-1,2.638086975E-1
4.777477417E1,1.997109652E0,5.364708424E0,1.934896231E0
4.782477417E1,3.163012505E0,1.016949654E0,3.857529163E0
4.787477417E1,1.556949902E1,-2.098714828E1,5.889933109E0
4.792477417E1,8.003992081E0,-5.793053436E1,9.057432175E0
4.797477417E1,3.242274761E0,-1.006301594E1,-2.003390789E0
4.802477417E1,1.305284739E0,2.527718067E0,-7.369893789E-1
4.807477417E1,-3.044866800E0,7.534400225E-1,-2.415255308E0
4.812477417E1,-8.446664214E-1,3.830011845E0,-2.824428082E0
4.817477417E1,-1.070788130E-1,2.319243431E0,-7.226324677E-1
4.822477417E1,-1.165304661E0,-1.473081470E0,-7.327720165E0
4.827477417E1,-9.212366939E-1,-7.434200764E0,-5.941677570E0
4.832477417E1,3.428914785E0,-3.403760147E1,-5.098805904E0
4.837477417E1,1.824587059E1,-2.740589523E1,-3.262613773E0
4.842477417E1,2.373799706E1,-1.034058285E1,-7.824530005E-1
4.847477417E1,-3.468396425E0,-4.130311012E0,1.044586754E1
4.852477417E1,2.117049932E0,5.343173027E0,5.866004944E0
4.857477417E1,4.420141697E0,-2.063809484E-1,1.920240223E-1
4.862477417E1,2.387438774E0,4.598406792E0,6.857231617E0
4.867477417E1,4.429712772E0,-3.857529163E0,2.923730135E0
4.872477417E1,2.155215263E1,-2.725036240E1,8.674281120E0
4.877477417E1,8.049455643E0,-5.001328278E1,6.917052269E0
4.882477417E1,3.052942514E0,-1.089362431E1,-2.628216505E0
4.887477417E1,2.217548370E0,1.723131418E0,-1.148554921E0
4.892477417E1,-3.631407499E0,1.286142170E-1,-3.655335665E0
4.897477417E1,-8.087740541E-1,4.095614910E0,-3.001796007E0
4.902477417E1,1.542473316E0,1.287338614E0,3.099931717E1
4.907477417E1,-1.067198873E0,-7.905287743E-1,-1.082333469E1
4.912477417E1,-5.393422127E0,-2.635724068E1,-1.000199890E1
4.917477417E1,4.999503613E0,-2.747050095E1,-6.266204119E-1
4.922477417E1,2.070718765E1,-2.600998306E1,-7.641479015E0
4.927477417E1,1.955085564E1,-9.813862801E0,4.100699723E-1
4.932477417E1,1.408176184E0,-4.697709084E0,6.854838848E0
4.937477417E1,3.527020693E0,2.391027927E0,9.502796173E0
4.942477417E1,2.040180445E0,1.453639716E-1,-8.135597110E-1
4.947477417E1,2.784946442E0,4.828416824E0,4.144668102E0
4.952477417E1,4.951647282E0,-6.467201233E0,4.108775616E0
4.957477417E1,2.041257095E1,-5.194787979E1,5.578866005E0
4.962477417E1,5.839683533E0,-3.086531830E1,3.373879910E0
4.967477417E1,2.523829699E0,-4.194917202E0,-1.629811287E0
4.972477417E1,-5.763711333E-1,2.204387903E0,-2.111067772E0
4.977477417E1,-2.781357288E0,2.149353027E0,-5.072484970E0
4.982477417E1,6.759724021E-2,4.890630245E0,-4.373481750E0
4.987477417E1,7.520342350E0,-5.753541946E0,3.574667740E1
4.992477417E1,-1.740778536E-1,-2.035693884E0,-1.005703354E1
4.997477417E1,-8.507980347E0,-3.607957840E1,-1.385414410E1
5.002477417E1,9.395118713E0,-2.604108810E1,2.397010088E0
5.007477417E1,2.657020187E1,-2.330728912E1,-4.213162422E0
5.012477417E1,1.211216927E1,-9.665508270E0,4.841278553E0
5.017477417E1,-4.351946115E-1,-2.526521683E0,-1.802094579E0
5.022477417E1,5.327320576E0,3.299104273E-1,7.689933777E-1
5.027477417E1,2.303689957E0,4.019044876E0,8.742775917E-1
5.032477417E1,1.896611094E0,2.029711723E0,2.933301449E0
5.037477417E1,1.334058475E1,-1.431984711E1,2.452643216E-2
5.042477417E1,1.448734474E1,-6.218975830E1,-3.241078377E0
5.047477417E1,3.203989506E0,-2.238784599E1,9.966106415E-1
5.052477417E1,4.013062477E0,-7.833502889E-1,-1.671984792E-1
5.057477417E1,-1.062413216E0,2.249851465E0,-2.989831924E0
5.062477417E1,-1.581954837E0,3.403790236E0,-6.250351906E0
5.067477417E1,-4.184448719E-1,2.941676378E0,-2.168495417E0
5.072477417E1,4.338785648E0,-9.169894218E0,9.682257652E0
5.077477417E1,-5.115555763E0,-4.949254513E0,7.374380112E0
5.082477417E1,-8.494520187E-1,-3.686262894E1,-1.303041458E1
5.087477417E1,1.555274868E1,-2.932344246E1,2.829512656E-1
5.092477417E1,3.325933838E1,-2.631656265E1,2.329263306E1
5.097477417E1,7.429415226E0,-8.446963310E0,-1.766202211E0
5.102477417E1,-5.881857395E0,3.099901676E0,9.943075180E0
5.107477417E1,5.411069393E0,-9.176474810E-1,-2.318046987E-1
5.112477417E1,2.703590393E0,4.133900166E0,2.789732218E0
5.117477417E1,3.967599154E0,8.060821295E-1,2.279761791E0
5.122477417E1,1.734826279E1,-1.846870232E1,3.400201082E0
5.127477417E1,7.632805347E0,-6.088507462E1,-6.906583309E0
5.132477417E1,8.335995674E-1,-2.036950111E1,-1.833201289E0
5.137477417E1,5.499902725E0,1.524527073E0,5.802594870E-2
5.142477417E1,1.974078640E-2,2.345564365E0,-1.060020447E0
5.147477417E1,-1.438385487E0,1.433599830E0,-3.820440531E0
5.152477417E1,1.669292927E0,4.366302967E0,-5.328815937E0
5.157477417E1,9.648757935E0,-2.811267614E0,1.290718460E1
5.162477417E1,-1.902892232E0,-2.420938253E0,-4.871487617E0
5.167477417E1,-3.343969584E0,-4.131567383E1,-1.432822227E1
5.172477417E1,1.026401234E1,-2.273271179E1,3.716053486E0
5.177477417E1,3.080071259E1,-2.206212425E1,-8.470591903E-1
5.182477417E1,1.016112137E1,-7.007979393E0,1.527817249E0
5.187477417E1,-5.333003402E-1,-3.031407118E0,1.495514158E-2
5.192477417E1,5.492724419E0,-6.613163352E-1,1.381855130E0
5.197477417E1,2.227119684E0,3.253042459E0,-1.558026671E0
5.202477417E1,3.378665686E0,1.768594980E0,1.884646893E0
5.207477417E1,1.315843105E1,-1.550967789E1,1.901396751E0
5.212477417E1,8.930612564E0,-6.866802979E1,-6.528218269E0
5.217477417E1,3.026621580E0,-1.674258041E1,-9.523434043E-1
5.222477417E1,2.413759947E0,1.553241014E0,-1.000199914E0
5.227477417E1,-3.054438114E0,1.828415632E0,-3.317648649E0
5.232477417E1,-3.633800268E0,2.927319288E0,-2.661715984E0
5.237477417E1,1.561316848E-1,3.664906979E0,2.751446962E0
5.242477417E1,3.672982693E0,-4.084847450E0,-1.065793133E1
5.247477417E1,1.142572761E0,-6.323332787E0,-6.353542328E0
5.252477417E1,5.746363640E0,-3.967808533E1,-5.874678612E0
5.257477417E1,1.269153118E1,-2.159522438E1,-2.470290184E0
5.262477417E1,2.096082687E1,-8.691030502E0,2.737090111E0
5.267477417E1,-1.016949654E0,-7.898707390E0,8.501997948E0
5.272477417E1,1.779362798E0,6.310172558E0,1.171496010E1
5.277477417E1,6.529115677E0,-3.431307554E0,8.647062778E-1
5.282477417E1,2.057229280E0,2.000998020E0,2.777767897E0
5.287477417E1,4.036991119E0,-1.920240223E-1,2.013859272E0
5.292477417E1,2.025464630E1,-2.305813599E1,1.815255046E0
5.297477417E1,5.490331650E0,-6.156972122E1,1.491087437E1
5.302477417E1,2.727518797E0,-1.226560879E1,-4.591228485E0
5.307477417E1,5.176572800E0,2.400599241E0,-2.427219391E0
5.312477417E1,-1.452742457E0,4.088735580E-1,-4.814060211E0
5.317477417E1,-2.024926186E0,2.410170555E0,-3.341576815E0
5.322477417E1,-1.613061547E0,2.465205431E0,-2.403291225E0
5.327477417E1,6.254240274E-1,-7.314559937E0,7.259225845E-1
5.332477417E1,-1.620239973E0,-2.133799553E0,-1.862214208E0
5.337477417E1,2.327020019E-1,-3.921118546E1,-1.739013672E1
5.342477417E1,1.387687588E1,-2.910808945E1,3.268595695E0
5.347477417E1,2.518655205E1,-2.447319221E1,-1.139312553E1
5.352477417E1,7.218846798E0,-8.911469460E0,8.916254997E0
5.357477417E1,-1.107876897E0,-1.767398596E0,-1.229910851E0
5.362477417E1,3.704089403E0,-5.084748194E-2,1.154536963E0
5.367477417E1,3.479164124E0,7.325327396E0,4.127619043E-2
5.372477417E1,5.042574406E0,3.753441334E0,3.232703447E0
5.377477417E1,1.051316547E1,-1.465484238E1,4.511068821E0
5.382477417E1,1.075962639E1,-6.783263397E1,-6.834499836E0
5.387477417E1,2.174477577E0,-2.028575134E1,5.416752100E-1
5.392477417E1,2.938086987E0,-8.769695163E-1,-1.615155302E-2
5.397477417E1,-2.402992249E0,-7.716853172E-2,-3.736691713E0
5.402477417E1,-2.000998020E0,2.554039001E0,-3.442075491E0
5.407477417E1,8.240283132E-1,3.468396425E0,-1.668096542E0
5.412477417E1,4.266701698E0,-4.132703781E0,6.637091637E-1
5.417477417E1,-3.815654755E0,-4.786542416E0,-9.032905847E-2
5.422477417E1,1.513460279E-1,-4.199553299E1,-1.260209942E1
5.427477417E1,1.082901764E1,-2.481297302E1,3.505485058E0
5.432477417E1,3.179911804E1,-2.367578316E1,1.384068394E1
5.437477417E1,8.423034668E0,-6.816553593E0,-3.346362352E0
5.442477417E1,-2.414956331E0,1.146162033E0,8.090133667E0
5.447477417E1,4.566103935E0,-7.833502889E-1,7.642077208E-1
5.452477417E1,2.423331022E0,2.922533751E0,1.412961721E0
5.457477417E1,1.295713425E0,7.319046259E-1,2.442473650E0
5.462477417E1,1.357508087E1,-1.489442348E1,4.387838542E-1
5.467477417E1,1.445863056E1,-6.303472519E1,-5.670989513E0
5.472477417E1,3.076870918E0,-2.200469589E1,-2.072782516E0
5.477477417E1,3.759423494E0,-2.516651154E0,-1.297209024E0
5.482477417E1,-1.105484009E0,1.019342422E0,-1.354636669E0
5.487477417E1,-2.967997313E0,1.663310885E0,-2.546860695E0
5.492477417E1,3.379862010E-1,2.960819006E0,-1.883749604E0
5.497477417E1,4.764708042E0,-3.366701365E0,8.997611046E0
5.502477417E1,-3.975973845E0,-3.661317825E0,1.415354609E0
5.507477417E1,-2.915355206E0,-4.643421936E1,-1.771825409E1
5.512477417E1,1.088644600E1,-2.767628479E1,4.245166302E0
5.517477417E1,4.042015839E1,-2.423361015E1,6.735197544E0
5.522477417E1,9.227322578E0,-3.826422453E0,2.847159863E0
5.527477417E1,-2.666501760E0,-2.940479994E0,-7.585247755E-1
5.532477417E1,4.697709084E0,-2.518445849E-1,-9.499505758E-1
5.537477417E1,3.876671791E0,1.311266780E0,-8.207381964E-1
5.542477417E1,4.901398182E0,3.703192234E0,2.531008244E0
5.547477417E1,1.353201008E1,-1.185853004E1,2.619542599E0
5.552477417E1,1.804726601E1,-6.144020844E1,-3.365504980E0
5.557477417E1,4.697709084E0,-2.307488632E1,1.427318692E0
5.562477417E1,3.814458370E0,-1.961217284E0,-1.079162955E0
5.567477417E1,-2.235494614E0,1.860419661E-1,-3.942474365E0
5.572477417E1,-3.198007345E0,3.109472990E0,-3.602693558E0
5.577477417E1,-1.100698471E0,3.966402531E0,-2.405683994E0
5.582477417E1,4.899005413E0,-5.868397713E0,2.070718765E1
5.587477417E1,-1.809273005E0,6.768696904E-1,-7.083652496E0
5.592477417E1,-1.371386528E0,-3.355873871E1,-1.382303715E1
5.597477417E1,1.122652531E1,-3.274936676E1,-8.149056435E0
5.602477417E1,2.934019279E1,-3.538536072E1,-1.412453270E1
5.607477417E1,1.268674564E1,-8.389534950E0,-1.142572835E-1
5.612477417E1,9.245268703E-1,-3.136990547E0,-2.992224693E0
5.617477417E1,2.720340252E0,3.954438448E0,4.613960266E0
5.622477417E1,2.792124987E0,1.416850090E0,1.495514158E-2
5.627477417E1,3.792922974E0,5.831308842E0,5.415854931E0
5.632477417E1,6.399903297E0,-6.390331745E0,2.490330219E0
5.637477417E1,2.166700935E1,-4.698965454E1,6.301797390E0
5.642477417E1,3.716053486E0,-3.778895187E1,2.614757061E0
5.647477417E1,5.519045353E0,-2.487937450E0,-7.776673436E-1
5.652477417E1,-6.816553473E-1,9.308080077E-1,-3.123830080E0
5.657477417E1,-3.669692516E0,1.115055323E0,-7.014260292E0
5.662477417E1,-2.046461582E0,5.450850010E0,-7.057331085E0
5.667477417E1,6.668198586E0,-3.536591768E0,3.765256119E1
5.672477417E1,-2.508575439E0,-7.019943595E-1,-9.839286804E0
5.677477417E1,-7.593622684E0,-2.898126984E1,-1.345902920E1
5.682477417E1,1.403719521E1,-3.839224243E1,2.432902336E0
5.687477417E1,3.618725586E1,-3.104956627E1,1.373540020E1
5.692477417E1,7.431807995E0,-8.925827026E0,4.106382847E0
5.697477417E1,-4.713561535E0,3.372683525E0,9.112466812E0
5.702477417E1,6.672984123E0,-2.397010088E0,-8.973085321E-3
5.707477417E1,2.437688112E0,6.768696904E-1,-3.181257725E0
5.712477417E1,1.674078584E0,4.380660057E0,4.640281200E0
5.717477417E1,1.152562809E1,-8.143074989E0,-4.328017831E-1
5.722477417E1,2.615594482E1,-5.070032120E1,9.447761536E0
5.727477417E1,1.355534077E0,-3.621866226E1,1.956431627E0
5.732477417E1,-8.997012973E-1,-6.627520561E0,-2.597109795E0
5.737477417E1,-1.502991676E0,2.769692242E-1,-2.723929405E0
5.742477417E1,-5.257031441E0,4.399802685E-1,-6.738786697E0
5.747477417E1,-9.164510965E-1,3.494717360E0,-3.131008387E0
5.752477417E1,7.486843109E0,-4.240679741E0,9.878469467E0
5.757477417E1,-2.924926519E0,-2.093121529E0,-5.810072422E0
5.762477417E1,-3.693620920E0,-3.775784302E1,-1.014556789E1
5.767477417E1,1.521266937E1,-3.308226776E1,2.799303293E0
5.772477417E1,3.174139023E1,-1.103509998E1,1.928256035E1
5.777477417E1,1.391426325E0,-5.892325878E0,1.362054443E1
5.782477417E1,-2.032104731E0,5.903392792E0,8.478069305E0
5.787477417E1,7.147062302E0,-4.537389755E0,4.073780477E-1
5.792477417E1,2.286940336E0,3.092723370E0,1.054666519E1
5.797477417E1,3.048156977E0,-1.144965649E0,7.331010103E-1
5.802477417E1,1.931366730E1,-2.351067924E1,3.907778502E0
5.807477417E1,1.102522945E1,-4.986971283E1,1.676471353E0
5.812477417E1,3.790530205E0,-1.454237938E1,-1.524527073E0
5.817477417E1,4.242773533E0,1.699203134E0,-1.548455358E0
5.822477417E1,-3.379862070E0,-6.804589629E-1,-4.873880386E0
5.827477417E1,-2.070389748E0,4.225126743E0,-4.548157692E0
5.832477417E1,-5.069792867E-1,3.095116138E0,-1.839482337E-1
5.837477417E1,-1.871486425E0,-9.942178130E-1,-1.581715584E1
5.842477417E1,-6.499504566E0,-1.473141289E1,-8.804988861E0
5.847477417E1,7.946564198E0,-3.221307755E1,-6.720840335E-1
5.852477417E1,2.976162910E1,-3.987668991E1,-1.494826221E1
5.857477417E1,1.441555977E1,-8.114061356E0,-6.054140568E0
5.862477417E1,-4.969593525E0,2.520240545E0,1.093190956E1
5.867477417E1,5.708078384E0,3.179463148E-1,-5.021936297E-1
5.872477417E1,4.130311012E0,3.312862873E0,-1.794616925E-3
5.877477417E1,-1.122233868E0,1.529312730E0,5.042574406E0
5.882477417E1,9.919445992E0,-7.501199722E0,-1.711167336E0
5.887477417E1,2.852394104E1,-4.819862747E1,1.325414371E1
5.892477417E1,2.566900492E0,-3.740370560E1,1.448854089E0
5.897477417E1,2.600399971E0,-3.673281908E0,-9.511470050E-2
5.902477417E1,-7.223333120E-1,3.894618034E0,-1.742274046E0
5.907477417E1,-3.300898790E0,2.855534792E0,-3.257827997E0
5.912477417E1,-4.184448719E-1,4.586442947E0,-3.918546200E0
5.917477417E1,3.562912941E0,-2.823231697E0,3.603889847E1
5.922477417E1,-1.122233868E0,-2.710768938E0,-1.104108143E1
5.927477417E1,-5.328815937E0,-3.182065201E1,-1.304237938E1
5.932477417E1,1.227757263E1,-3.099931717E1,-5.824429512E0
5.937477417E1,2.692942429E1,-3.346302795E1,-1.231226921E1
5.942477417E1,1.123370457E1,-8.241180420E0,-1.462313771E0
5.947477417E1,-2.542074919E0,3.562314808E-1,4.113561153E0
5.952477417E1,5.712863922E0,-8.120641708E-1,3.649054468E-2
5.957477417E1,2.401795626E0,3.162115097E0,-1.926820397E0
5.962477417E1,2.727518797E0,3.748655796E0,3.223132133E0
5.967477417E1,1.317996597E1,-1.123849010E1,-4.184448719E-1
5.972477417E1,1.815972900E1,-5.371946716E1,3.553341627E0
5.977477417E1,2.978765011E0,-3.127718353E1,7.953144312E-1
5.982477417E1,3.211168051E0,-1.250249863E0,-8.590233326E-1
5.987477417E1,-2.321636200E0,2.704786777E0,-2.264208317E0
5.992477417E1,-1.636989832E0,4.893023014E0,-6.801000118E0
5.997477417E1,2.853440940E-1,3.466003656E0,-2.707179785E0
6.002477417E1,6.306583405E0,-9.349655151E0,1.938545227E1
6.007477417E1,-1.127019525E0,-3.297309637E0,-7.464410305E0
6.012477417E1,-6.822535515E0,-4.568466568E1,-1.431147194E1
6.017477417E1,1.199492073E1,-2.594776917E1,1.887039781E0
6.022477417E1,4.397290039E1,-2.778186798E1,6.172585011E0
6.027477417E1,8.020741463E0,-5.030610561E0,6.311368942E0
6.032477417E1,-4.607978344E0,3.628715515E0,5.519045353E0
6.037477417E1,6.060122490E0,-4.363910258E-1,-2.461616248E-1
6.042477417E1,1.738684773E0,3.293720484E0,-3.255435228E0
6.047477417E1,2.399402857E0,2.426920414E0,3.629911900E0
6.052477417E1,1.234217930E1,-1.821954918E1,4.879563808E0
6.057477417E1,1.394387531E1,-7.209156036E1,-4.497908592E0
6.062477417E1,1.491924882E0,-1.697229195E1,-3.207578659E0
6.067477417E1,2.344367981E0,2.530110836E0,-1.179661512E0
6.072477417E1,-2.924926519E0,9.906286001E-1,-4.711168766E0
6.077477417E1,-3.617050648E0,3.985545158E0,-5.807679653E0
6.082477417E1,-1.074377418E0,4.157828331E0,-1.543669701E0
6.087477417E1,6.790232658E0,-1.115234852E1,6.672984123E0
6.092477417E1,-2.318046987E-1,-6.263512135E0,-7.241578579E0
6.097477417E1,-1.400100350E0,-3.688177109E1,-9.858428955E0
6.102477417E1,1.111406326E1,-2.784647369E1,2.828017235E0
6.107477417E1,4.827519608E1,-1.958196259E1,4.954399109E1
6.112477417E1,6.883552551E0,-4.910969257E0,4.846064091E0
6.117477417E1,-4.198805332E0,4.591228485E0,9.938289642E0
6.122477417E1,4.082454681E0,-2.398804724E-1,1.465603858E-1
6.127477417E1,2.614757061E0,4.205684662E0,5.289035320E0
6.132477417E1,3.266202927E0,3.562314808E-1,3.131905794E0
6.137477417E1,1.874626923E1,-2.189462662E1,2.071287155E0
6.142477417E1,1.252642632E1,-7.070551300E1,-3.650550127E0
6.147477417E1,1.144965649E0,-1.453520107E1,-2.728715181E0
6.152477417E1,1.836790442E0,4.464408875E0,-1.457528114E0
6.157477417E1,-2.982354403E0,1.024128079E0,-4.656133652E0
6.162477417E1,-3.265006542E0,5.395814896E0,-5.276174068E0
6.167477417E1,3.643072546E-1,4.066901207E0,1.603849220E1
6.172477417E1,1.298106313E-1,-5.255535603E0,-9.822537422E0
6.177477417E1,2.111666054E-1,-4.657031059E0,-5.632704735E0
6.182477417E1,4.420141697E0,-3.541407394E1,-1.059571743E1
6.187477417E1,1.674975777E1,-2.973052216E1,4.604389191E0
6.192477417E1,3.264647675E1,-1.701536179E1,5.084628296E1
6.197477417E1,4.005884171E0,-6.320940018E0,5.183751106E0
6.202477417E1,-2.892324328E-1,4.617549419E0,9.797113419E0
6.207477417E1,2.813660383E0,-3.957130313E-1,-4.495515525E-1
6.212477417E1,4.257130623E0,6.499504566E0,3.460021496E0
6.217477417E1,2.902194738E0,7.630113363E-1,3.763910055E0
6.222477417E1,1.583510208E1,-2.575395012E1,1.252642632E1
6.227477417E1,9.926624298E0,-5.607280731E1,8.387142181E0
6.232477417E1,8.862416744E-1,-1.032861900E1,-2.714358091E0
6.237477417E1,1.290927768E0,3.578466177E0,-4.830510616E-1
6.242477417E1,-2.628216505E0,1.138983607E0,-4.399802685E0
6.247477417E1,-2.150549293E-1,6.767500877E0,-7.720442295E0
6.252477417E1,-1.022931710E-1,3.272184849E0,-1.775773525E0
6.257477417E1,-2.211566210E0,-2.392224550E0,-1.144576836E1
6.262477417E1,-2.805285454E0,-9.787542343E0,-4.536193371E0
6.267477417E1,4.214059830E0,-3.236412430E1,-5.869893074E0
6.272477417E1,1.912224197E1,-2.839472961E1,1.441675574E-1
6.277477417E1,2.851915550E1,-8.159824371E0,1.196620655E1
6.282477417E1,3.752244949E0,-2.969193697E0,2.092822552E0
6.287477417E1,1.932503343E0,3.949652910E0,3.273381472E0
6.292477417E1,1.491924882E0,3.152543783E0,5.392823815E-1
6.297477417E1,3.814458370E0,5.316552639E0,3.534198999E0
6.302477417E1,4.927719116E0,-5.598008633E0,6.661019921E-1
6.307477417E1,2.278266335E1,-4.253182602E1,1.425254917E1
6.312477417E1,8.966505051E0,-3.934996796E1,4.202095509E0
6.317477417E1,3.816851139E0,-5.676971912E0,-7.441678643E-1
6.322477417E1,-1.665703654E0,4.280161560E-1,-4.931308270E0
6.327477417E1,-4.160520554E0,2.343171597E0,-6.101996899E0
6.332477417E1,-2.838784933E0,6.798607349E0,-6.030212402E0
6.337477417E1,2.117049932E0,-5.509474277E0,2.769064140E1
6.342477417E1,-1.191625714E0,-2.303689957E0,-1.387807178E1
6.347477417E1,-4.981557846E0,-2.258645058E1,-7.035795689E0
6.352477417E1,9.352047920E0,-2.907459068E1,-3.214757204E0
6.357477417E1,2.810968399E1,-3.330719376E1,-1.457946873E1
6.362477417E1,1.467159176E1,-7.936992645E0,4.196412563E-1
6.367477417E1,1.025324464E0,-3.091526747E0,-5.350351334E0
6.372477417E1,7.156633377E0,4.615156651E-1,1.999502420E0
6.377477417E1,3.275774240E0,4.066901207E0,1.585544109E0
6.382477417E1,1.276570916E0,3.391826153E0,2.794517756E0
6.387477417E1,7.304988384E0,-9.328120232E0,-3.529413417E-2
6.392477417E1,2.213151550E1,-4.929274368E1,4.891527653E0
6.397477417E1,5.631507874E0,-2.818386078E1,2.789732218E0
6.402477417E1,4.384249210E0,-7.857431173E-1,4.124628007E-1
6.407477417E1,-2.997010469E0,-1.006181955E0,-6.576074600E0
6.412477417E1,-3.451646566E0,3.779762506E0,-7.322934628E0
6.417477417E1,-1.373779297E0,6.111567974E0,-3.648157120E0
6.422477417E1,6.555736065E0,-8.844470978E0,3.113331413E1
6.427477417E1,-9.810572863E-1,1.091127157E0,-9.901499748E0
6.432477417E1,-3.763012648E0,-3.905565262E1,-1.103629589E1
6.437477417E1,1.275404358E1,-3.230669403E1,2.497508526E0
6.442477417E1,3.739622879E1,-2.775524712E1,-9.427721500E-1
6.447477417E1,1.034776115E1,-4.887041092E0,-2.126621157E-1
6.452477417E1,-3.605086327E0,3.123830080E0,8.339285851E0
6.457477417E1,5.312963486E0,-1.350748420E0,-5.682953820E-2
6.462477417E1,1.178465128E0,2.146960020E0,2.868695259E0
6.467477417E1,1.135394335E0,1.440778375E0,9.125627279E-1
6.472477417E1,1.568435383E1,-1.668993759E1,3.653840065E0
6.477477417E1,1.549023628E1,-6.518228149E1,-5.807679653E0
6.482477417E1,3.938885212E0,-2.151865387E1,-8.231309652E-1
6.487477417E1,3.098406315E0,1.124626637E0,-8.554340899E-2
6.492477417E1,-3.698406458E0,-1.398604870E0,-4.759025097E0
6.497477417E1,-2.609073877E0,4.145864487E0,-3.554837227E0
6.502477417E1,-4.950151742E-1,5.881557941E0,-4.708775997E0
6.507477417E1,1.013719273E1,-7.575377464E0,2.707060051E1
6.512477417E1,-1.922034740E0,-3.139383316E0,-2.857927561E0
6.517477417E1,-4.294518471E0,-4.421248245E1,-1.395224953E1
6.522477417E1,1.163121223E1,-2.776003265E1,4.592424870E0
6.527477417E1,4.269932175E1,-1.604836273E1,2.669462776E1
6.532477417E1,5.710471153E0,-8.186145782E0,1.278036499E1
6.537477417E1,-9.032905847E-2,-8.865407705E-1,-1.371386528E0
6.542477417E1,6.330511570E0,-2.205584288E0,4.124628007E-1
6.547477417E1,2.119442701E0,2.383849621E0,-2.762214661E0
6.552477417E1,1.300499082E0,2.702394009E0,1.922932148E0
6.557477417E1,1.370668602E1,-1.258385468E1,-8.111668825E-1
6.562477417E1,1.072612667E1,-7.365018463E1,-3.080759048E0
6.567477417E1,2.377867460E0,-2.108076668E1,-2.556432009E0
6.572477417E1,3.692125320E0,1.522134304E0,-1.905285001E0
6.577477417E1,-2.455933332E0,1.957628012E0,-3.964009762E0
6.582477417E1,-2.781357288E0,4.102793694E0,-5.038985252E0
6.587477417E1,4.866403043E-1,4.734797955E0,-4.794917583E0
6.592477417E1,7.115955353E0,-8.449356079E0,2.843989372E1
6.597477417E1,-2.240280151E0,-1.738684773E0,-1.581954837E0
6.602477417E1,-4.160520554E0,-4.388915253E1,-1.439043522E1
6.607477417E1,1.168146133E1,-2.606023216E1,4.793421745E0
6.612477417E1,3.338615799E1,-2.603869629E1,-2.151745796E0
6.617477417E1,7.881958008E0,-7.405487061E0,2.662015259E-1
6.622477417E1,-5.642275810E0,1.079162955E0,9.100502968E0
6.627477417E1,6.579664230E0,-2.437688112E0,2.135594189E-1
6.632477417E1,2.938086987E0,2.850749016E0,-7.489534616E-1
6.637477417E1,9.511470199E-1,3.236292601E0,3.814458370E0
6.642477417E1,9.890433311E0,-8.944969177E0,2.159522474E-1
6.647477417E1,2.153301048E1,-6.650162506E1,4.039383888E0
6.652477417E1,4.237987995E0,-2.572284317E1,-1.965105653E0
6.657477417E1,1.089930773E0,2.051247120E0,-4.007977992E-2
6.662477417E1,-2.896212816E0,2.142174482E0,-4.711168766E0
6.667477417E1,-1.943570137E0,5.920142174E0,-7.586444378E0
6.672477417E1,-1.498206019E0,4.696512699E0,-1.955534339E0
6.677477417E1,6.392724991E0,-1.050598717E1,1.999831390E1
6.682477417E1,-1.438385487E0,7.630113363E-1,-7.320541859E0
6.687477417E1,-5.922235921E-2,-4.063790512E1,-8.661419868E0
6.692477417E1,1.457827187E1,-2.967548752E1,2.588435888E0
6.697477417E1,3.297459030E1,-2.372124672E1,3.184547901E0
6.702477417E1,5.267499924E0,-8.925827026E0,7.398308277E0
6.707477417E1,-3.629014730E0,3.470789194E0,1.022094154E1
6.712477417E1,6.285048008E0,-3.309273720E0,-2.605185509E-1
6.717477417E1,1.542473316E0,1.711167336E0,-1.310070455E-1
6.722477417E1,-1.022931710E-1,1.701596022E0,2.672483683E0
6.727477417E1,1.384337616E1,-1.517199135E1,1.448854089E0
6.732477417E1,1.613689613E1,-7.393044281E1,-1.924427629E0
6.737477417E1,4.211667061E0,-2.021875381E1,-1.349851131E0
6.742477417E1,3.620340586E0,2.402992249E0,2.590230405E-1
6.747477417E1,-2.805285454E0,2.626122832E-1,-4.605585575E0
6.752477417E1,-3.585943937E0,4.478765965E0,-5.292923450E0
6.757477417E1,-6.888338327E-1,4.426123619E0,-2.522932291E0
6.762477417E1,8.777172089E0,-6.579664230E0,1.871277046E1
6.767477417E1,-1.514955878E0,2.604288340E0,-8.838488579E0
6.772477417E1,3.690928817E-1,-4.204099655E1,-1.343749332E1
6.777477417E1,1.976621056E1,-3.571826172E1,1.223928809E0
6.782477417E1,4.082005692E1,-2.115973091E1,7.608487701E1
6.787477417E1,4.688137531E0,-7.352844715E0,-1.299601793E0
6.792477417E1,-6.525825500E0,4.016652107E0,1.343869019E1
6.797477417E1,3.519842148E0,-5.084748194E-2,3.260220885E-1
6.802477417E1,3.002693415E0,5.292624474E0,4.771886349E0
6.807477417E1,1.456032634E0,6.266204119E-1,3.742374659E0
6.812477417E1,1.496860123E1,-2.405893517E1,1.025204849E1
6.817477417E1,1.064477062E1,-6.601079559E1,8.420641899E0
6.822477417E1,3.603590965E0,-1.368515110E1,-3.566801310E0
6.827477417E1,3.069692373E0,3.056531906E0,1.657029688E-1
6.832477417E1,-2.659323215E0,1.885843396E0,-6.058926105E0
6.837477417E1,-5.979065299E-1,6.611967087E0,-4.280161381E0
6.842477417E1,-4.830510616E-1,3.123830080E0,-1.292423368E0
6.847477417E1,5.245964527E0,-8.501997948E0,9.541081429E0
6.852477417E1,-3.887439489E0,-4.228715897E0,-1.462313771E0
6.857477417E1,-2.154138565E0,-4.405455780E1,-1.708146286E1
6.862477417E1,1.074048328E1,-2.768346214E1,3.191726208E0
6.867477417E1,3.190918732E1,-2.700120926E1,-8.063812256E-1
6.872477417E1,9.275178909E0,-7.036992073E0,3.795315742E0
6.877477417E1,-2.407777786E0,3.552145243E0,5.933003902E0
6.882477417E1,5.830112457E0,-2.564806700E0,-1.262213886E-1
6.887477417E1,1.932503343E0,2.498705149E0,-2.359921217E0
6.892477417E1,3.670589924E0,2.979961395E0,2.629113913E0
6.897477417E1,1.274447250E1,-1.246421337E1,3.738785386E-1
6.902477417E1,1.710868263E1,-6.922106934E1,-5.338387489E0
6.907477417E1,4.690530777E0,-2.075983047E1,-1.790130496E0
6.912477417E1,3.141477108E0,4.998008311E-1,-4.495515525E-1
6.917477417E1,-3.913760424E0,-1.034895778E-1,-4.828416824E0
6.922477417E1,-4.804488659E0,3.061317444E0,-2.566003084E0
6.927477417E1,-8.183453679E-1,5.836094379E0,-3.779762506E0
6.932477417E1,8.274680138E0,-8.106883049E0,2.372842598E1
6.937477417E1,-1.024128079E0,8.638089895E-1,-9.092127800E0
6.942477417E1,-3.691227913E0,-4.560570526E1,-1.820190239E1
6.947477417E1,1.203559875E1,-2.801636314E1,1.513460279E0
6.952477417E1,4.498087692E1,-2.650798798E1,3.617289734E1
6.957477417E1,1.079551888E1,-5.799005508E0,-1.395314693E0
6.962477417E1,-4.555335999E0,1.318445325E0,6.871588230E0
6.967477417E1,6.711269379E0,-2.574378014E0,-6.161518395E-2
6.972477417E1,3.153441191E0,3.186043262E0,3.560520172E0
6.977477417E1,3.523431420E-1,6.266204119E-1,9.894321561E-1
6.982477417E1,1.532273865E1,-1.482951832E1,1.389033556E0
6.987477417E1,1.651256943E1,-6.215626144E1,-5.302495003E0
6.992477417E1,4.920540810E0,-2.274946213E1,1.116251707E0
6.997477417E1,3.737888098E0,2.811566554E-2,-1.483849168E0
7.002477417E1,-3.470789194E0,9.738788009E-1,-4.399802685E0
7.007477417E1,-4.794917583E0,2.941676378E0,-5.627918720E0
7.012477417E1,-1.773380637E0,4.869094849E0,-5.996712685E0
7.017477417E1,7.953742504E0,-9.102895737E0,3.905774307E1
7.022477417E1,-2.093719877E-2,1.452742457E0,-8.476873398E0
7.027477417E1,-4.916951656E0,-3.945764542E1,-1.567837238E1
7.032477417E1,1.045543861E1,-3.197140121E1,-4.514657974E0
7.037477417E1,3.229682541E1,-3.218196869E1,-5.520241737E0
7.042477417E1,1.520788383E1,-4.101597309E0,-4.332803726E0
7.047477417E1,-4.409373760E0,-4.603192508E-1,5.851647854E0
7.052477417E1,6.160621166E0,-2.063809484E-1,3.547359705E-1
7.057477417E1,3.627519131E0,3.686442375E0,1.312463164E0
7.062477417E1,1.513460279E-1,2.515454769E0,3.725624800E0
7.067477417E1,9.210572243E0,-8.315358162E0,3.571287692E-1
7.072477417E1,2.560768890E1,-5.142116165E1,6.675376892E0
7.077477417E1,7.697710514E0,-2.657738113E1,2.717947483E0
7.082477417E1,3.261417150E0,-2.373081923E0,9.532406926E-1
7.087477417E1,-2.783750057E0,-3.759423494E0,-6.317350864E0
7.092477417E1,-4.383052826E0,2.056032896E0,-6.030212402E0
7.097477417E1,-1.910070658E0,7.624729156E0,-3.636193037E0
7.102477417E1,7.166204929E0,-5.696114540E0,3.071935654E1
7.107477417E1,1.283749342E0,2.328814745E0,-9.994820595E0
7.112477417E1,-3.140579700E0,-2.821975327E1,-6.226423740E0
7.117477417E1,1.463809299E1,-3.573262024E1,-6.553342938E-1
7.122477417E1,2.533969307E1,-3.046781158E1,-3.825226068E0
7.127477417E1,1.378086376E1,-7.362416267E0,-6.399005890E0
7.132477417E1,-3.090330362E0,2.357528448E0,1.268913841E1
7.137477417E1,6.189334869E0,-1.441675574E-1,3.403790295E-1
7.142477417E1,4.800600529E0,3.446861029E0,5.923432350E0
7.147477417E1,-2.700898647E-1,-9.631111473E-2,2.341975212E0
7.152477417E1,1.400848103E1,-1.586142349E1,1.030110121E0
7.157477417E1,1.351286793E1,-6.057849121E1,-2.609073877E0
7.162477417E1,5.102395058E0,-2.382413864E1,8.934201598E-1
7.167477417E1,4.800600529E0,5.285146832E-1,-3.346960545E-1
7.172477417E1,-1.567597985E0,-6.708876491E-1,-5.302495003E0
7.177477417E1,-4.706383228E0,1.510170221E0,-6.518647194E0
7.182477417E1,1.298106313E-1,6.295815468E0,-2.513360977E0
7.187477417E1,1.062562847E1,-9.929018021E0,1.883959007E1
7.192477417E1,-1.419242978E0,-3.567698479E0,-7.730013371E0
7.197477417E1,-7.545766354E0,-3.238805008E1,-1.031575775E1
7.202477417E1,9.069396019E0,-2.983580589E1,3.962813377E0
7.207477417E1,2.916073227E1,-3.094667435E1,-9.108877182E0
7.212477417E1,1.192074299E1,-4.331607342E0,5.751747489E-1
7.217477417E1,-1.675274968E0,9.044869542E-1,1.357926846E0
7.222477417E1,5.933003902E0,1.304088354E0,4.025924206E-1
7.227477417E1,2.950051308E0,2.673680305E0,7.881359458E-1
7.232477417E1,7.929216027E-1,1.347159147E0,4.276273251E0
7.237477417E1,1.051795101E1,-1.086730289E1,-6.337988973E-1
7.242477417E1,1.928016853E1,-4.589075089E1,5.952146530E0
7.247477417E1,8.430212975E0,-3.525375366E1,3.259024382E0
7.252477417E1,3.141477108E0,-4.276572227E0,-2.000998020E0
7.257477417E1,-1.124626637E0,1.986641049E0,-2.058425665E0
7.262477417E1,-4.040580273E0,2.259422779E0,-5.257031441E0
7.267477417E1,-1.019342422E0,6.135496140E0,-3.947260141E0
7.272477417E1,6.701697826E0,-6.112764359E0,3.228007507E1
7.277477417E1,2.279163599E-1,8.590233326E-1,-8.864809990E0
7.282477417E1,-2.290529490E0,-3.424099350E1,-6.302993774E0
7.287477417E1,7.968099594E0,-3.075764084E1,1.408176184E0
7.292477417E1,2.091536331E1,-2.486322212E1,-4.342374802E0
7.297477417E1,1.863141441E1,-8.628817558E0,-3.873381615E-1
7.302477417E1,8.670991063E-1,-4.997110844E0,4.257130623E0
7.307477417E1,2.081157446E0,4.943272591E0,1.175085258E1
7.312477417E1,4.013062477E0,-1.006181955E0,-5.979065299E-1
7.317477417E1,9.197412133E-1,4.471587181E0,2.504687071E0
7.322477417E1,6.060122490E0,6.625127792E-1,2.897409201E0
7.327477417E1,1.918206215E1,-2.849522781E1,1.507867146E1
7.332477417E1,7.316952705E0,-5.934798431E1,3.014657497E0
7.337477417E1,2.595614433E0,-1.447777367E1,-1.483849168E0
7.342477417E1,2.940479994E0,6.385845542E-1,-2.006980032E-1
7.347477417E1,-5.149055004E0,-4.100699723E-1,-5.786144257E0
7.352477417E1,-3.059223652E0,4.811667442E0,-3.731905937E0
7.357477417E1,-7.223333120E-1,4.732405186E0,2.781656384E-1
7.362477417E1,8.120641708E-1,-3.843172312E0,-1.245344543E1
7.367477417E1,-7.561319470E-1,-3.802494287E0,-4.670490742E0
7.372477417E1,-3.083750308E-1,-4.141377640E1,-1.400010586E1
7.377477417E1,1.499252892E1,-2.960848808E1,5.329713345E0
7.382477417E1,2.876561737E1,-1.005344391E1,2.601716042E1
7.387477417E1,1.671685696E0,-6.646663189E0,6.840481758E0
7.392477417E1,-1.874178290E0,4.943272591E0,1.050329494E1
7.397477417E1,5.837290764E0,-2.897409201E0,-8.554340899E-2
7.402477417E1,2.263011932E0,4.165007114E0,-2.044068813E0
7.407477417E1,4.147060871E0,1.840379715E0,4.010669708E0
7.412477417E1,1.368515110E1,-1.778884125E1,4.640281200E0
7.417477417E1,1.275643635E1,-7.179724121E1,-2.144567251E0
7.422477417E1,4.951647282E0,-1.474098396E1,-5.165506005E-1
7.427477417E1,3.991527319E0,1.708774447E0,-2.115853310E0
7.432477417E1,-4.158127785E0,-1.817647934E0,-5.556134224E0
7.437477417E1,-3.629014730E0,3.968795538E0,-5.283352375E0
7.442477417E1,-1.091127157E0,4.962415218E0,-1.385743380E0
7.447477417E1,4.338785648E0,-8.320143700E0,-6.214459419E0
7.452477417E1,-4.158127785E0,-5.564508915E0,7.058228493E0
7.457477417E1,-2.881855726E0,-3.637180328E1,-1.485972786E1
7.462477417E1,1.656999779E1,-3.418356705E1,1.324427366E0
7.467477417E1,4.052783585E1,-1.680957985E1,7.156005096E1
7.472477417E1,7.486843109E0,-5.962016582E0,5.464608669E-1
7.477477417E1,2.452643216E-2,6.152245998E0,1.617518234E1
7.482477417E1,4.673780918E0,-1.633400559E0,-1.136590727E-2
7.487477417E1,2.947658300E0,5.364708424E0,5.037788868E0
7.492477417E1,3.776173353E0,-3.550350666E-1,3.440878868E0
7.497477417E1,1.619911003E1,-2.357289314E1,9.411869049E0
7.502477417E1,1.223689461E1,-5.863432312E1,9.604191780E-1
7.507477417E1,5.942574978E0,-1.329033470E1,-3.114258766E0
7.512477417E1,3.311666489E0,3.250649452E0,9.580263495E-1
7.517477417E1,-3.952045679E0,-1.037288666E0,-4.105485439E0
7.522477417E1,-3.071187973E0,4.021437645E0,-5.259424210E0
7.527477417E1,2.452643216E-2,4.663012981E0,-2.192423820E0
7.532477417E1,8.430212975E0,-5.392225742E0,-1.562812328E0
7.537477417E1,-1.009771109E0,-6.017051697E0,-6.101996899E0
7.542477417E1,3.278167009E0,-3.450181198E1,-4.014258862E0
7.547477417E1,1.667079544E1,-2.847847748E1,-5.381458282E0
7.552477417E1,2.117887306E1,-9.407083511E0,1.021376324E1
7.557477417E1,-3.413361549E0,-7.300202847E0,7.285845757E0
7.562477417E1,4.676173687E0,5.474778175E0,9.177073479E0
7.567477417E1,5.547759533E0,-3.888336942E-2,-2.405683994E0
7.572477417E1,1.530509233E0,4.301696777E0,6.232405663E0
7.577477417E1,3.309273720E0,-3.259024382E0,2.789732218E0
7.582477417E1,2.350349998E1,-3.827020645E1,1.100369358E1
7.587477417E1,7.989634991E0,-4.023112488E1,4.324129581E0
7.592477417E1,1.930110574E0,-8.482855797E0,-3.011367321E0
7.597477417E1,2.636591434E0,4.078865528E0,-9.284151793E-1
7.602477417E1,-4.349553585E0,6.840481758E-1,-6.858428001E0
7.607477417E1,-1.773380637E0,3.640679598E0,-5.697310925E0
7.612477417E1,7.951349735E0,-2.567199707E0,5.005156708E1
7.617477417E1,-1.371386528E0,-2.781656384E-1,-1.040907764E1
7.622477417E1,-4.588835716E0,-1.777448463E1,-2.044068813E0
7.627477417E1,1.365165138E1,-3.231387329E1,2.849552631E0
7.632477417E1,2.552154732E1,-2.725993347E1,-1.529312730E0
7.637477417E1,5.226821899E0,-9.838089943E0,-7.704889178E-1
7.642477417E1,-5.637490273E0,-1.159322619E0,6.340082645E0
7.647477417E1,9.035896301E0,-2.507079840E0,4.867599487E0
7.652477417E1,3.560520172E0,-1.680957973E-1,-2.711965322E0
7.657477417E1,1.932503343E0,4.162613869E0,5.937789440E0
7.662477417E1,1.261496067E1,-9.512367249E0,-1.983051747E-1
7.667477417E1,2.018286133E1,-4.625445938E1,5.076074123E0
7.672477417E1,8.992825508E0,-3.026442146E1,3.038585663E0
7.677477417E1,3.900599957E0,-1.808076620E0,-1.118644550E-1
7.682477417E1,-2.606681108E0,-1.034895778E0,-5.134698391E0
7.687477417E1,-3.506681681E0,4.612763882E0,-1.163001537E1
7.692477417E1,-6.122635007E-1,6.588038921E0,-3.767798424E0
7.697477417E1,6.711269379E0,-1.154985619E1,4.612046051E1
7.702477417E1,-1.419242978E0,-9.774680734E-1,-1.316949749E1
7.707477417E1,-7.363612652E0,-2.924448013E1,-1.419422436E1
7.712477417E1,1.024726295E1,-2.964677429E1,2.789732218E0
7.717477417E1,3.563660812E1,-3.379323578E1,-4.208376884E0
7.722477417E1,1.389362526E1,-6.112764359E0,2.191227436E0
7.727477417E1,-2.463111877E0,-2.765803814E0,4.649852753E0
7.732477417E1,5.059324265E0,3.288934708E0,4.726422787E0
7.737477417E1,4.915754795E0,1.117448211E0,-6.337988973E-1
7.742477417E1,1.786541224E0,3.119044304E0,2.485544443E0
7.747477417E1,1.115713406E1,-7.929814339E0,-6.146563292E-1
7.752477417E1,1.824826431E1,-3.607479095E1,7.673482895E0
7.757477417E1,9.615258217E0,-4.110958862E1,5.210072041E0
7.762477417E1,3.730410576E0,-6.467201233E0,-1.591526151E0
7.767477417E1,-5.261218548E-1,4.136592150E-1,-2.151745796E0
7.772477417E1,-4.505086899E0,1.770987868E0,-6.372684956E0
7.777477417E1,-1.723131418E0,6.396314144E0,-3.679263830E0
7.782477417E1,7.194918633E0,-5.791827202E0,3.776980972E1
7.787477417E1,1.482353687E0,2.709572554E0,-9.817750931E0
7.792477417E1,-5.625525951E0,-2.123390770E1,-7.035795689E0
7.797477417E1,9.885647774E0,-3.248615646E1,-2.198405862E-1
7.802477417E1,2.325195503E1,-3.308944702E1,-1.198445225E1
7.807477417E1,1.475055504E1,-8.200502396E0,-8.474480629E0
7.812477417E1,-4.454837322E0,9.140582681E-1,1.186570835E1
7.817477417E1,1.005105114E1,-3.861417472E-1,1.879861236E0
7.822477417E1,4.719244480E0,1.914557219E0,2.349153519E0
7.827477417E1,-8.554340899E-2,9.212366939E-1,1.820040703E0
7.832477417E1,1.526531124E1,-1.498774338E1,-1.016949654E0
7.837477417E1,1.290239906E1,-6.375556183E1,-5.077270508E0
7.842477417E1,2.581257343E0,-2.490868568E1,-2.892324328E-1
7.847477417E1,3.486342669E0,-1.166501045E0,-3.348755360E0
7.852477417E1,-1.347458243E0,3.353540897E0,-3.171686411E0
7.857477417E1,-2.934497833E0,5.429314613E0,-7.162615299E0
7.862477417E1,-1.785344839E0,4.948058128E0,-4.423730850E0
7.867477417E1,6.828517437E0,-9.727721214E0,4.195964050E1
7.872477417E1,-5.141577721E-1,3.538386524E-1,-3.739084482E0
7.877477417E1,-2.319243431E0,-3.897878265E1,-1.015513897E1
7.882477417E1,1.623260880E1,-3.101128006E1,2.931207791E-2
7.887477417E1,3.301766205E1,-2.892623520E1,1.028076267E1
7.892477417E1,7.336095333E0,-8.885149002E0,-2.030908167E-1
7.897477417E1,-5.115555763E0,5.067699432E0,1.117388344E1
7.902477417E1,5.626722336E0,-1.753041744E0,1.441675574E-1
7.907477417E1,2.627020121E0,2.865106106E0,4.592424870E0
7.912477417E1,2.320439816E0,8.060821295E-1,1.985145450E0
7.917477417E1,1.502363586E1,-1.752772522E1,2.844767094E0
7.922477417E1,1.200688457E1,-6.035835266E1,-3.360719442E0
7.927477417E1,1.631007791E0,-2.137269211E1,-1.591526151E0
7.932477417E1,4.556532383E0,4.686941206E-1,-1.775773525E0
7.937477417E1,-2.487040043E0,1.471885085E0,-2.843570709E0
7.942477417E1,-3.037688255E0,2.881855726E0,-3.504288673E0
7.947477417E1,3.765704632E-1,4.047758579E0,-2.173281193E0
7.952477417E1,7.237989426E0,-5.708078384E0,2.320888329E1
7.957477417E1,-1.160519004E0,-4.120739460E0,2.533401012E0
7.962477417E1,-4.876273632E0,-3.867250061E1,-1.333460236E1
7.967477417E1,9.574581146E0,-2.907459068E1,1.855933070E0
7.972477417E1,2.739153862E1,-2.797089958E1,-7.361219883E0
7.977477417E1,1.278515053E1,-7.992027760E0,-6.122635007E-1
7.982477417E1,5.584250093E-1,-3.378665686E0,-6.523432732E0
7.987477417E1,5.944967747E0,1.146162033E0,9.149555564E-1
7.992477417E1,3.637090445E0,4.514657974E0,-1.222732425E0
7.997477417E1,3.237488985E0,3.456432343E0,3.215953588E0
8.002477417E1,1.088644600E1,-9.325727463E0,8.814560175E-1
8.007477417E1,1.527009678E1,-6.379863358E1,-5.787639618E-1
8.012477417E1,2.959622622E0,-2.505733871E1,1.389033556E0
8.017477417E1,4.218845367E0,-1.836790442E0,-2.017747641E0
8.022477417E1,-3.753740489E-1,5.213362575E-1,-3.348755360E0
8.027477417E1,-4.059722900E0,2.084746838E0,-4.100699902E0
8.032477417E1,1.752742529E-1,4.325624943E0,-1.883749604E0
8.037477417E1,6.387938976E0,-3.388236761E0,2.562443924E1
8.042477417E1,1.920240223E-1,1.428814173E0,-6.805785656E0
8.047477417E1,-3.736691713E0,-3.800460434E1,-1.084726334E1
8.052477417E1,1.073569775E1,-3.080549812E1,-6.547360897E0
8.057477417E1,2.748725128E1,-3.205514908E1,-2.601895571E0
8.062477417E1,1.281386471E1,-7.058527470E0,-8.488837242E0
8.067477417E1,-2.865106106E0,6.002993584E-1,8.588139534E0
8.072477417E1,8.109275818E0,-5.153541565E-1,1.934896231E0
8.077477417E1,5.423332691E0,2.493919373E0,-3.681955934E-1
8.082477417E1,-3.050848842E-2,2.070389748E0,5.152644634E0
8.087477417E1,7.762316704E0,-6.962515831E0,-1.347458243E0
8.092477417E1,2.285235405E1,-4.229463577E1,1.301246834E1
8.097477417E1,8.415856361E0,-3.500460434E1,2.404188633E0
8.102477417E1,4.520640373E0,-4.027419567E0,1.554437399E0
8.107477417E1,5.273182988E-1,5.955137610E-1,-2.020140409E0
8.112477417E1,-3.952045679E0,1.098305583E0,-4.485944271E0
8.117477417E1,-1.282552958E0,5.704489231E0,-3.755834341E0
8.122477417E1,-6.888338327E-1,3.609572887E0,2.554936409E0
8.127477417E1,-8.901300430E-1,-2.720340252E0,-1.545584011E1
8.132477417E1,-1.567597985E0,-1.422383499E1,-2.422433853E0
8.137477417E1,6.311368942E0,-3.338137054E1,-9.858429432E-1
8.142477417E1,2.316820526E1,-3.030031395E1,-1.107218838E1
8.147477417E1,1.938545227E1,-5.385047436E0,7.759923935E0
8.152477417E1,-5.021936297E-1,-4.389034748E0,2.715554714E0
8.157477417E1,5.631507874E0,4.485944271E0,6.876374245E0
8.162477417E1,4.592424870E0,4.782654345E-1,-3.138186932E0
8.167477417E1,2.768196583E0,4.545764923E0,6.249155521E0
8.172477417E1,5.808577061E0,-3.826422453E0,3.725624800E0
8.177477417E1,2.266062927E1,-4.138506317E1,1.236850071E1
8.182477417E1,8.808578491E0,-4.213431549E1,4.020241261E0
8.187477417E1,3.883850336E0,-6.510272026E0,-2.477468729E0
8.192477417E1,1.796112537E0,1.486241937E0,-2.759821892E0
8.197477417E1,-3.997509241E0,3.610171080E-1,-4.715954304E0
8.202477417E1,-2.417349100E0,5.369493961E0,-5.283352375E0
8.207477417E1,7.479664326E0,-4.483551383E-1,5.210341263E1
8.212477417E1,-2.288136721E0,2.147558331E-1,-1.682752609E1
8.217477417E1,-2.963211775E0,-1.444905949E1,-3.875475407E0
8.222477417E1,6.634698868E0,-3.257708359E1,-5.335994720E0
8.227477417E1,2.198076820E1,-3.055155945E1,9.774680734E-1
8.232477417E1,2.734368134E1,-6.582056999E0,2.206690979E1
8.237477417E1,1.724327803E0,-2.952444077E0,6.622735023E0
8.242477417E1,1.561316848E-1,6.051747799E0,1.219382381E1
8.247477417E1,4.781457901E0,1.009771109E0,4.606183618E-2
8.252477417E1,1.211964726E0,3.956831455E0,8.456534386E0
8.257477417E1,5.526223660E0,-3.728316784E0,1.994716763E0
8.262477417E1,2.641706085E1,-3.327848053E1,1.111645603E1
8.267477417E1,1.102044392E1,-4.214628220E1,5.588437080E0
8.272477417E1,2.997907639E0,-9.931410789E0,-1.378564954E0
8.277477417E1,8.359923959E-1,1.474277854E0,-1.960319996E0
8.282477417E1,-4.837988377E0,8.252246976E-1,-4.287340164E0
8.287477417E1,-2.747857809E0,5.642275810E0,-1.739881158E0
8.292477417E1,-3.529413417E-2,3.748655796E0,1.250249863E0
8.297477417E1,-1.275374413E0,-4.283750534E0,-1.381825161E1
8.302477417E1,-2.350350142E0,-1.595713615E1,-8.524729729E0
8.307477417E1,6.055336952E0,-2.730061150E1,6.326025128E-1
8.312477417E1,2.181087685E1,-3.308944702E1,-6.786643028E0
8.317477417E1,2.495893478E1,-7.036992073E0,1.566401482E0
8.322477417E1,1.843968987E0,-5.866004944E0,1.870290041E0
8.327477417E1,3.483949661E0,4.062115669E0,1.299571896E1
8.332477417E1,4.350749969E0,9.272187948E-2,-1.565205097E0
8.337477417E1,1.276570916E0,4.514657974E0,6.292226315E0
8.342477417E1,5.437689304E0,-8.697910309E-1,1.805683732E0
8.347477417E1,2.341735840E1,-3.051327515E1,1.113559818E1
8.352477417E1,1.226800156E1,-4.821059036E1,8.777172089E0
8.357477417E1,5.669793129E0,-4.735994339E0,-6.314060688E-1
8.362477417E1,-2.676970363E-1,-1.992024779E-1,-4.189234257E0
8.367477417E1,-4.773382187E0,3.681955934E-1,-6.559325218E0
8.372477417E1,-4.112364769E0,6.051747799E0,-5.601597786E0
8.377477417E1,5.064109802E0,2.273779631E0,3.861985779E1
8.382477417E1,-1.239482164E0,-4.894219398E0,-1.618355751E1
8.387477417E1,-3.693620920E0,-1.409701538E1,-8.350053787E0
8.392477417E1,4.458426952E0,-2.802114868E1,-1.663310885E0
8.397477417E1,2.427428818E1,-3.622583771E1,-6.611967087E0
8.402477417E1,3.195225716E1,-7.230811119E0,2.708017159E1
8.407477417E1,1.144965649E0,-5.327320576E0,7.999206066E0
8.412477417E1,-3.044866800E0,5.074877739E0,1.214088345E1
8.417477417E1,4.372285366E0,-6.421737671E-1,-2.940180898E-1
8.422477417E1,7.522436380E-1,3.564109325E0,2.468794823E0
8.427477417E1,4.144668102E0,7.486543655E-1,3.366701365E0
8.432477417E1,2.353939247E1,-2.522962379E1,4.906183720E0
8.437477417E1,9.699007034E0,-6.157450485E1,7.628019333E0
8.442477417E1,5.487938881E0,-1.227996540E1,-3.394817114E-1
8.447477417E1,2.516651154E0,2.510669231E0,-5.548357368E-1
8.452477417E1,-3.439682484E0,-3.170489892E-2,-6.252744675E0
8.457477417E1,-2.575574398E0,6.655037880E0,-4.050151348E0
8.462477417E1,-2.079961061E0,5.098805904E0,-3.363112211E0
8.467477417E1,3.172583818E0,-1.150678539E1,7.563413143E0
8.472477417E1,-1.799701691E0,-2.145763636E0,-8.019844055E0
8.477477417E1,-3.861118555E0,-3.645794296E1,-1.399771309E1
8.482477417E1,1.453759384E1,-3.381476974E1,3.874279022E0
8.487477417E1,4.068815613E1,-2.681935501E1,1.425972748E1
8.492477417E1,6.799803734E0,-6.342475414E0,2.420938253E0
8.497477417E1,-5.666203976E0,6.231209278E0,1.177717400E1
8.502477417E1,6.153442383E0,-2.066800594E0,2.691925503E-2
8.507477417E1,2.674876690E0,2.972783089E0,3.177369356E0
8.512477417E1,3.069692373E0,1.208375454E0,2.729911566E0
8.517477417E1,1.684068489E1,-2.120998001E1,8.545068741E0
8.522477417E1,1.309621716E1,-6.361648178E1,-9.276674271E0
8.527477417E1,6.086443424E0,-1.637857246E1,-1.328315616E0
8.532477417E1,2.454437733E0,1.366301775E0,-1.246660590E0
8.537477417E1,-4.031008720E0,-1.324427366E0,-6.566503525E0
8.542477417E1,-4.363910198E0,6.451348782E0,-7.761120319E0
8.547477417E1,-1.977069736E0,5.220839977E0,-2.006980032E-1
8.552477417E1,2.085943222E0,-9.912267685E0,-8.829515576E-1
8.557477417E1,-2.621038198E0,-3.007478952E0,-3.968795538E0
8.562477417E1,-3.530609846E0,-4.217260361E1,-1.198205948E1
8.567477417E1,1.604327774E1,-3.148057365E1,2.435295343E0
8.572477417E1,5.059264374E1,-1.590449429E1,5.686034393E1
8.577477417E1,2.883052111E0,-4.384249210E0,6.096014977E0
8.582477417E1,-3.658027649E-1,8.723632812E0,6.572186470E0
8.587477417E1,5.255535603E0,-1.736291885E0,-2.724826932E-1
8.592477417E1,6.780661345E-1,2.082353830E0,5.226821899E0
8.597477417E1,4.906183720E0,-1.671685696E0,8.048857450E-1
8.602477417E1,2.350828552E1,-3.298894882E1,1.463809299E1
8.607477417E1,1.064477062E1,-4.741587448E1,3.706482172E0
8.612477417E1,2.772982359E0,-1.090798092E1,-3.777369738E0
8.617477417E1,3.522234917E0,2.800499916E0,-1.167697430E0
8.622477417E1,-4.344767570E0,-5.703890920E-1,-7.105187893E0
8.627477417E1,-5.395814896E0,4.109972000E0,-4.861916542E0
8.632477417E1,4.456034184E0,2.936890602E0,4.147838593E1
8.637477417E1,-1.345065475E0,-5.461617470E0,-1.229073334E1
8.642477417E1,-3.719941854E0,-4.930111885E0,-3.987937927E0
8.647477417E1,-1.052842021E0,-3.656322861E1,-9.305388451E0
8.652477417E1,2.418096924E1,-3.230430222E1,-9.312566757E0
8.657477417E1,4.301308060E1,-1.646471405E1,7.825157928E1
8.662477417E1,3.546163082E0,-3.735495329E0,3.369094372E0
8.667477417E1,2.811267614E0,8.033902168E0,7.161418915E0
8.672477417E1,4.341178417E0,6.218347549E-1,-4.782654345E-1
8.677477417E1,-1.452742457E0,1.610668778E0,4.314558506E0
8.682477417E1,5.195715427E0,-1.983051777E0,1.669292927E0
8.687477417E1,2.199033928E1,-3.560310745E1,1.949342918E1
8.692477417E1,1.033579731E1,-4.489473724E1,5.473581791E0
8.697477417E1,1.178465128E0,-7.505985737E0,-4.416552544E0
8.702477417E1,4.087240219E0,4.909772873E0,1.463211060E0
8.707477417E1,-2.405385017E0,1.932204217E-1,-5.288137913E0
8.712477417E1,-3.562015533E0,3.449253798E0,-8.038987160E0
8.717477417E1,-2.485544533E-1,2.000998020E0,7.283154130E-1
8.722477417E1,4.196412563E-1,-2.698804855E0,-1.115832996E1
8.727477417E1,-2.879462957E0,-9.112466812E0,-2.640180588E0
8.732477417E1,1.219143152E0,-3.319712448E1,-4.177269936E0
8.737477417E1,1.595474339E1,-2.645773888E1,-1.292423368E0
8.742477417E1,4.199553299E1,-1.547139263E1,3.577269793E0
8.747477417E1,5.088038445E0,-1.226321578E0,1.403719521E1
8.752477417E1,1.712363720E0,6.984050870E-1,3.433700562E0
8.757477417E1,4.879862785E0,4.926223755E-1,8.216354847E-1
8.762477417E1,3.752244949E0,6.925426960E0,1.372283816E0
8.767477417E1,3.584448338E0,-2.444866419E0,4.850849628E0
8.772477417E1,1.972313881E1,-2.820061111E1,1.080030441E1
8.777477417E1,1.305314636E1,-5.334588623E1,7.558627605E0
8.782477417E1,3.107977629E0,-6.005087376E0,-4.016951025E-1
8.787477417E1,1.111466169E0,2.963211775E0,-2.335993052E0
8.792477417E1,-2.029711723E0,1.799701691E0,-7.031010151E0
8.797477417E1,-2.944069147E0,7.217650414E0,-8.141878128E0
8.802477417E1,4.240380764E0,3.044567823E0,2.866511726E1
8.807477417E1,2.805584669E-1,-6.979265213E0,-1.077757263E1
8.812477417E1,-3.490529954E-1,-1.508106422E1,-3.336791277E0
8.817477417E1,5.608177781E-1,-3.238565826E1,-2.563610315E0
8.822477417E1,1.413290787E1,-2.147319031E1,-6.137889385E0
8.827477417E1,3.961557007E1,-2.126022911E1,-1.029661465E1
8.832477417E1,7.417450905E0,-5.669793129E0,1.704168320E1
8.837477417E1,1.702792406E0,3.174079180E0,-9.032905847E-2
8.842477417E1,4.506283283E0,1.227517962E0,1.642971873E0
8.847477417E1,2.380260229E0,5.888736725E0,2.772982359E0
8.852477417E1,2.547757864E0,-2.995514870E0,3.914957047E0
8.857477417E1,2.222962189E1,-4.779154587E1,1.854766655E1
8.862477417E1,1.273490143E1,-4.304418564E1,4.403391838E0
8.867477417E1,1.788933992E0,-7.712067604E0,-3.853940010E0
8.872477417E1,-1.842772484E0,-2.782553673E0,-8.714061737E0
8.877477417E1,-3.629014730E0,1.938485503E0,-5.376672268E0
8.882477417E1,1.506580949E0,1.030827999E1,-1.115115166E1
8.887477417E1,1.889432549E0,8.084749579E-1,1.989063644E1
8.892477417E1,-1.732702732E0,-8.590532303E0,-1.070578766E1
8.897477417E1,1.561615825E0,-3.696312714E1,-8.175377846E0
8.902477417E1,1.406112289E1,-2.865076065E1,2.222334146E0
8.907477417E1,3.343640518E1,-2.399193573E1,-1.427797318E1
8.912477417E1,4.659423828E0,-4.652245522E0,5.322535038E0
8.917477417E1,4.357928276E0,7.562216759E0,9.260822296E0
8.922477417E1,5.044967651E0,-8.697910309E-1,7.283154130E-1
8.927477417E1,1.580758452E0,3.454039574E0,2.715554714E0
8.932477417E1,4.228416920E0,-1.518545032E0,4.353142738E0
8.937477417E1,2.379781723E1,-3.669722366E1,1.474337673E1
8.942477417E1,6.737590313E0,-5.121508026E1,3.670589924E0
8.947477417E1,2.600399971E0,-7.324131012E0,-2.319243431E0
8.952477417E1,1.705185294E0,5.156233788E0,-3.214757204E0
8.957477417E1,-2.874677420E0,3.789333820E0,-8.362017632E0
8.962477417E1,-2.316850424E0,6.154638767E0,-6.889833927E0
8.967477417E1,8.044670105E0,-2.938086987E0,4.503591156E1
8.972477417E1,-2.443969250E0,-6.134598851E-1,-1.082572746E1
8.977477417E1,-5.007878780E0,-1.738894081E1,-1.185015488E1
8.982477417E1,1.306750393E1,-3.236651611E1,-4.160520554E0
8.987477417E1,2.546411896E1,-3.270390320E1,-1.095972633E1
8.992477417E1,8.832506180E0,-1.315125275E1,1.489532113E0
8.997477417E1,-3.018545866E0,-1.250249863E0,3.328416348E0
9.002477417E1,6.189334869E0,-1.877468467E0,-9.260223508E-1
9.007477417E1,3.359523058E0,6.192924023E0,-3.238685369E0
9.012477417E1,4.036991119E0,4.351946354E0,5.356034279E0
9.017477417E1,8.750851631E0,-1.167906857E1,2.437688112E0
9.022477417E1,1.419990730E1,-7.777301788E1,-4.842773914E0
9.027477417E1,5.787041664E0,-1.760429573E1,-9.750752151E-2
9.032477417E1,3.302095175E0,1.957628012E0,-4.615156651E-1
9.037477417E1,-3.226721287E0,-3.050549746E0,-5.822036743E0
9.042477417E1,-4.665405750E0,3.751048565E0,-3.786941051E0
9.047477417E1,1.369891018E-1,4.782953262E0,-1.756630898E0
9.052477417E1,9.694221497E0,-7.568199158E0,7.017550468E0
9.057477417E1,-3.514458239E-1,-7.235596657E0,-8.871988297E0
9.062477417E1,-6.242275834E-1,-3.990540314E1,-6.394220352E0
9.067477417E1,1.619671822E1,-3.039124107E1,-9.329316139E0
9.072477417E1,3.619443512E1,-1.210050392E1,3.969483566E1
9.077477417E1,1.877468467E0,-4.920540810E0,9.373284340E0
9.082477417E1,3.741776347E-1,6.329315186E0,6.677769661E0
9.087477417E1,4.372285366E0,-8.578268886E-1,3.888336942E-2
9.092477417E1,1.499402523E0,2.833999395E0,3.859921932E0
9.097477417E1,2.918944597E0,5.644070506E-1,1.013360381E0
9.102477417E1,2.269412804E1,-2.415464783E1,3.912564039E0
9.107477417E1,1.233978653E1,-6.501000214E1,-7.844869137E0
9.112477417E1,2.926122904E0,-1.808555222E1,-1.445564032E0
9.117477417E1,1.219143152E0,3.006282568E0,-4.304089844E-1
9.122477417E1,-3.303291559E0,-2.350948304E-1,-4.383052826E0
9.127477417E1,-2.905783892E0,5.165804863E0,-3.904189348E0
9.132477417E1,-5.380859971E-1,4.698905468E0,1.314856052E0
9.137477417E1,1.116251707E0,-5.322535038E0,-1.272413349E1
9.142477417E1,-3.396611691E0,-4.887041092E0,-1.950748682E0
9.147477417E1,6.014958024E-1,-4.295325851E1,-7.861618996E0
9.152477417E1,1.902174377E1,-3.186133003E1,2.761018276E0
9.157477417E1,3.697987747E1,-1.082183933E1,5.094947433E1
9.162477417E1,1.731506228E0,-4.127918243E0,1.095823002E1
9.167477417E1,-7.366902828E-1,7.354041100E0,1.091037369E1
9.172477417E1,5.293820858E0,-2.212762833E0,-1.815554202E-1
9.177477417E1,2.461616278E0,3.760619879E0,4.254737854E0
9.182477417E1,2.935694218E0,4.160520434E-1,3.249453068E0
9.187477417E1,1.961785507E1,-2.419293213E1,7.733603001E0
9.192477417E1,1.477209091E1,-5.641767502E1,3.826422453E0
9.197477417E1,4.233202457E0,-1.550967789E1,-2.510968208E0
9.202477417E1,2.131406784E0,3.255435228E0,7.689933777E-1
9.207477417E1,-4.239483356E0,-1.920240223E-1,-4.814060211E0
9.212477417E1,-4.131806374E0,5.663811207E0,-5.395814896E0
9.217477417E1,-8.159525394E-1,3.339184046E0,8.200202942E0
9.222477417E1,-2.365903407E-1,-3.967599154E0,-1.484297752E1
9.227477417E1,-4.519443989E0,-1.005823040E1,-4.014258862E0
9.232477417E1,3.287738323E0,-2.981905746E1,-2.324028969E0
9.237477417E1,2.252423859E1,-3.298894882E1,-4.418945312E0
9.242477417E1,2.517937279E1,-8.023134232E0,2.307249260E1
9.247477417E1,-1.632204175E0,-2.325225353E0,3.761517286E0
9.252477417E1,7.024729252E0,4.304089546E0,6.625127792E0
9.257477417E1,5.408676624E0,1.479063511E0,-1.972284079E0
9.262477417E1,2.039881349E-1,2.355135679E0,6.218048573E0
9.267477417E1,7.168597698E0,-5.854040623E0,1.051645517E0
9.272477417E1,2.231127739E1,-3.913222122E1,1.394148159E1
9.277477417E1,8.087740898E0,-4.160520554E1,7.285845757E0
9.282477417E1,3.960420609E0,-5.068895817E0,-4.670490742E0
9.287477417E1,1.042074203E0,2.683251381E0,-2.120639086E0
9.292477417E1,-5.007878780E0,4.064807594E-1,-7.337291718E0
9.297477417E1,-2.951247692E0,4.339982033E0,-2.532503605E0
9.302477417E1,5.959324837E0,-2.859123945E0,2.708017159E1
9.307477417E1,5.703890920E-1,8.060821295E-1,-9.927821159E0
9.312477417E1,-8.031509399E0,-2.315384865E1,-7.895118237E0
9.317477417E1,1.120499039E1,-3.595036697E1,-1.050449133E0
9.322477417E1,2.941437149E1,-3.080071259E1,-1.279352570E1
9.327477417E1,1.431954765E1,-5.178965569E0,-9.427721500E-1
9.332477417E1,2.446661144E-1,-9.224331379E-1,1.147358418E0
9.337477417E1,6.069693565E0,1.974676847E0,1.494317770E0
9.342477417E1,3.239881754E0,5.548357368E-1,-2.910569668E0
9.347477417E1,1.595115423E0,3.901796341E0,3.778566122E0
9.352477417E1,9.758828163E0,-9.993623734E0,1.266999602E0
9.357477417E1,2.438196564E1,-4.590989304E1,3.292523861E0
9.362477417E1,6.814160824E0,-3.310140991E1,7.450651526E-1
9.367477417E1,3.062513828E0,-1.501795292E0,2.781656384E-1
9.372477417E1,-1.129412293E0,8.315058798E-2,-4.361517429E0
9.377477417E1,-3.882653952E0,1.895414591E0,-9.367601395E0
9.382477417E1,-2.991925716E0,3.942474365E0,-3.102294445E0
9.387477417E1,5.387141228E0,-7.027420998E0,3.492564011E1
9.392477417E1,1.345962733E-1,1.517348647E0,-8.522336960E0
9.397477417E1,-7.694121361E0,-3.238805008E1,-1.296102333E1
9.402477417E1,1.422862053E1,-3.283341599E1,7.881359458E-1
9.407477417E1,3.214607620E1,-3.177518845E1,-1.287248898E1
9.412477417E1,1.239242840E1,-4.939683437E0,1.250249892E-1
9.417477417E1,-5.563312531E0,4.261018753E0,7.960920811E0
9.422477417E1,6.658627033E0,-4.698905349E-1,-9.930213690E-1
9.427477417E1,3.136691332E0,3.123830080E0,5.344070435E0
9.432477417E1,1.216750264E0,-3.957130313E-1,2.890230656E0
9.437477417E1,1.740569115E1,-1.827727699E1,3.191726208E0
9.442477417E1,1.465962791E1,-6.056174469E1,-1.152712440E1
9.447477417E1,1.666900039E0,-1.878216171E1,-5.045864582E-1
9.452477417E1,2.954836845E0,1.471885085E0,-1.141376376E0
9.457477417E1,-3.140579700E0,-4.845465720E-2,-5.417350292E0
9.462477417E1,-4.689633369E0,3.296113253E0,-3.583550930E0
9.467477417E1,-1.429711580E-1,4.519443989E0,7.750352383E0
9.472477417E1,9.014361382E0,-1.155224895E1,2.962015390E0
9.477477417E1,-2.848356247E0,-3.428914785E0,-7.045367241E0
9.482477417E1,-2.903391123E0,-3.876342773E1,-1.311924839E1
9.487477417E1,1.799941063E1,-3.307508850E1,-6.669394970E0
9.492477417E1,2.781028175E1,-1.650539207E1,7.008308411E1
9.497477417E1,2.009073734E0,-7.913064480E0,4.192524433E0
9.502477417E1,3.917349815E0,7.004390240E0,1.013479996E1
9.507477417E1,5.679364681E0,-1.494616866E0,-4.088735580E-1
9.512477417E1,2.334796667E0,4.706083775E0,8.087740898E0
9.517477417E1,2.957229614E0,7.630113363E-1,2.212762833E0
9.522477417E1,2.299831581E1,-2.914876747E1,8.880363464E0
9.527477417E1,1.193031502E1,-5.244797897E1,-1.211845016E1
9.532477417E1,-1.847558141E0,-1.952932167E1,-6.580262445E-3
9.537477417E1,2.207977057E0,2.877070189E0,-2.652144909E0
9.542477417E1,-4.342374802E0,1.895414591E0,-3.629014730E0
9.547477417E1,-2.829213619E0,5.180161953E0,-3.650550127E0
9.552477417E1,6.775875568E0,4.775774956E0,2.143729782E1
9.557477417E1,-1.205982566E0,-2.782553673E0,-8.764310837E0
9.562477417E1,-2.376671076E0,-8.794221878E0,-5.900999546E0
9.567477417E1,1.085533905E1,-3.759273911E1,-3.717549086E0
9.572477417E1,2.184198380E1,-3.026442146E1,-9.628418922E0
9.577477417E1,1.976142502E1,-7.096812725E0,-2.443969250E0
9.582477417E1,-2.972783089E0,-1.393819213E0,9.538688660E0
9.587477417E1,6.017051697E0,2.094317913E0,6.656234264E0
9.592477417E1,4.202095509E0,1.136590719E0,-2.630609512E0
9.597477417E1,-1.836491376E-1,2.635395050E0,5.458925724E0
9.602477417E1,8.947361946E0,-7.415058136E0,-1.074377418E0
9.607477417E1,2.938087082E1,-4.813402176E1,1.218873978E1
9.612477417E1,7.304988384E0,-2.925644493E1,-5.443671346E-2
9.617477417E1,3.306880951E0,-7.642077208E-1,-6.314060688E-1
9.622477417E1,-2.386242390E0,-1.704886109E-1,-5.472385406E0
9.627477417E1,-5.855535984E0,3.753441334E0,-1.252313614E1
9.632477417E1,-2.941676378E0,5.285446167E0,-1.694417477E0
9.637477417E1,5.834897995E0,-1.185374451E1,3.012773132E1
9.642477417E1,5.084748194E-2,2.190030813E0,-6.578467846E0
9.647477417E1,-8.376375198E0,-2.544737053E1,-1.015035343E1
9.652477417E1,1.380479240E1,-3.386741257E1,-3.506681681E0
9.657477417E1,3.604129410E1,-3.509822083E1,-1.760100555E1
9.662477417E1,7.862815380E0,-1.134855938E1,6.043372631E0
9.667477417E1,-4.426123619E0,4.181756496E0,1.058734322E1
9.672477417E1,7.714460373E0,-3.919742584E0,-1.272981644E0
9.677477417E1,3.821636915E0,2.474776745E0,1.537388563E-1
9.682477417E1,2.111666054E-1,2.994318485E0,3.620340586E0
9.687477417E1,1.014915752E1,-7.206882477E0,-3.257827997E0
9.692477417E1,2.573959351E1,-5.487579727E1,1.171735382E1
9.697477417E1,4.551746845E0,-3.014477921E1,2.918944597E0
9.702477417E1,2.081157446E0,-2.015953064E-1,-3.178864956E0
9.707477417E1,-1.684846282E0,5.524429083E-1,-4.007080555E0
9.712477417E1,-4.847559452E0,4.414159775E0,-1.237926769E1
9.717477417E1,-3.763012648E0,4.869094849E0,-3.497110367E0
9.722477417E1,1.120020485E1,-9.938589096E0,3.255076218E1
9.727477417E1,1.609173268E-1,1.337587833E0,-3.865904093E0
9.732477417E1,-7.643871784E0,-4.152384949E1,-1.542473316E1
9.737477417E1,1.204756260E1,-3.004188919E1,2.365903378E0
9.742477417E1,3.927579117E1,-3.450898743E1,-1.914018822E1
9.747477417E1,1.098694420E1,-3.067299604E0,6.520441920E-2
9.752477417E1,-2.223530531E0,8.891130447E0,9.960124016E0
9.757477417E1,5.643472195E0,-4.555336237E-1,3.810569942E-1
9.762477417E1,1.875075698E0,2.309672117E0,3.512663603E0
9.767477417E1,2.918944597E0,-4.316053987E-1,1.908575177E0
9.772477417E1,1.995524406E1,-2.040060806E1,3.139084101E0
9.777477417E1,1.450409412E1,-6.404030609E1,-2.391027927E0
9.782477417E1,3.048156977E0,-1.249053383E1,-2.326421738E0
9.787477417E1,1.422533035E0,4.694119930E0,-4.187439568E-3
9.792477417E1,-3.176471949E0,9.044869542E-1,-8.283054352E0
9.797477417E1,-5.687739372E0,3.327219963E0,-3.245863914E0
9.802477417E1,4.570889473E0,7.597211748E-2,3.166960526E1
9.807477417E1,-1.821237087E0,-2.356332064E0,-1.726092529E1
9.812477417E1,-5.453242779E0,-1.322094345E1,-5.989534378E0
9.817477417E1,3.850350618E0,-2.926362228E1,-2.158924341E0
9.822477417E1,2.865315437E1,-3.430559921E1,-1.256381416E1
9.827477417E1,2.268694878E1,-8.281858444E0,5.729374695E1
9.832477417E1,3.402593851E0,-3.601198196E0,-3.322434187E0
9.837477417E1,7.206882477E0,3.226721287E0,1.042074203E0
9.842477417E1,4.487140656E0,3.138186932E0,-9.643075466E-1
9.847477417E1,2.117049932E0,3.102294445E0,5.767899036E0
9.852477417E1,1.160010529E1,-1.297418308E1,2.538186550E0
9.857477417E1,2.218176460E1,-7.351618195E1,-1.246660590E0
9.862477417E1,6.103193283E0,-2.049662018E1,6.134598851E-1
9.867477417E1,3.922135353E0,2.738286495E0,-5.620142221E-1
9.872477417E1,-3.150151014E0,-1.314856052E0,-7.394719124E0
9.877477417E1,-5.338387489E0,4.983950615E0,-1.258774281E1
9.882477417E1,-2.656930447E0,3.166900873E0,-1.462313771E0
9.887477417E1,6.811768055E0,-1.142273712E1,-1.053111172E1
9.892477417E1,-3.873381615E-1,-6.110371590E0,-3.179463148E-1
9.897477417E1,-1.048056364E0,-3.503331757E1,-4.062115669E0
9.902477417E1,2.213869476E1,-3.188525963E1,1.891825438E0
9.907477417E1,4.842355347E1,-2.186830521E1,4.386043930E1
9.912477417E1,2.538186550E0,-3.789632916E-1,5.387141228E0
9.917477417E1,1.491924882E0,6.856035233E0,8.674281120E0
9.922477417E1,5.222036362E0,3.080460072E0,3.512663603E0
9.927477417E1,-2.920140982E0,1.043270707E0,5.109573841E0
9.932477417E1,5.746363640E0,-3.309273720E0,2.143370867E0
9.937477417E1,2.256252289E1,-3.001048279E1,1.070219803E1
9.942477417E1,1.293350506E1,-5.553173065E1,4.080061913E0
9.947477417E1,2.456830740E0,-9.919445992E0,-1.617847204E0
9.952477417E1,-1.359422326E0,3.183650494E0,-1.605883121E0
9.957477417E1,-4.083651066E0,1.002592683E0,-4.644169807E0
9.962477417E1,-3.676871061E0,6.808178425E0,-8.761918068E0
9.967477417E1,6.546164513E0,9.332008362E-1,4.466233444E1
9.972477417E1,-5.452644825E-1,-2.224726915E0,-1.346620750E1
9.977477417E1,-3.736691713E0,-5.485546112E0,-2.977867842E0
9.982477417E1,6.385546207E0,-4.660889435E1,-5.484349728E0
9.987477417E1,2.482493591E1,-3.082464027E1,-8.388339043E0
9.992477417E1,1.912224197E1,-3.737888098E0,1.253599739E1
9.997477417E1,-2.494218588E0,-1.456331730E0,7.436593533E0
1.000247742E2,7.398308277E0,-4.316053987E-1,2.039881349E-1
1.000747742E2,2.318047047E0,2.163709879E0,-2.413759828E-1
1.001247742E2,-1.366600871E0,2.948854923E0,4.881956577E0
1.001747742E2,9.945767403E0,-8.432605743E0,-1.354636669E0
1.002247742E2,2.873451042E1,-5.240730286E1,6.359225273E0
1.002747742E2,3.776173353E0,-3.107349396E1,1.583151340E0
1.003247742E2,1.312463164E0,-2.880360186E-1,-1.938784599E0
1.003747742E2,-2.683251381E0,1.359123230E0,-3.470789194E0
1.004247742E2,-4.703989983E0,1.893021822E0,-6.856035233E0
1.004747742E2,-1.514955878E0,3.710370541E0,-9.092726111E-1
1.005247742E2,1.013240719E1,-1.137488079E1,1.237328625E1
1.005747742E2,-2.786142826E0,-7.953144312E-1,-8.470591903E-1
1.006247742E2,1.504188180E0,-4.060201263E1,-1.019103146E1
1.006747742E2,2.171516418E1,-3.333829880E1,-5.975177288E0
1.007247742E2,2.805464935E1,-2.924448013E1,7.429415131E1
1.007747742E2,3.431307554E0,-7.932207108E0,-2.270190418E-1
1.008247742E2,1.686042666E0,8.615656853E0,1.431236935E1
1.008747742E2,5.552545071E0,-1.875075698E0,-2.892324328E-1
1.009247742E2,3.529413462E0,5.391029358E0,7.865208149E0
1.009747742E2,6.771090031E0,-1.300499082E0,2.322832584E0
1.010247742E2,2.278984070E1,-2.855504799E1,7.917850018E0
1.010747742E2,9.883255005E0,-4.912524796E1,4.740779877E0
1.011247742E2,1.123430252E0,-6.771090031E0,-1.337886930E0
1.011747742E2,4.842474759E-1,1.936092615E0,-3.444468260E0
1.012247742E2,-4.696811676E0,2.602194548E-1,-5.994319916E0
1.012747742E2,-4.335196495E0,3.722334623E0,-2.367099762E0
1.013247742E2,3.378665686E0,-3.697210073E0,1.688136292E1
1.013747742E2,2.054836512E0,1.194018483E0,-9.408279419E0
1.014247742E2,-9.520742416E0,-2.747528648E1,-8.299804688E0
1.014747742E2,1.073091221E1,-3.096342468E1,-1.050449133E0
1.015247742E2,2.780310440E1,-2.555056000E1,-1.477837181E1
1.015747742E2,2.631416893E1,-9.102895737E0,5.161258698E1
1.016247742E2,4.281058788E0,-1.669292927E0,3.905385733E0
1.016747742E2,7.465307713E0,-1.322034448E-1,-4.016951025E-1
1.017247742E2,5.159822941E0,5.944070339E0,8.503493667E-1
1.017747742E2,1.721935034E0,2.204387903E0,3.421736479E0
1.018247742E2,1.060169983E1,-1.704407501E1,9.792327881E0
1.018747742E2,1.726451492E1,-7.580492401E1,-8.476873398E0
1.019247742E2,3.629911900E0,-1.787498283E1,-8.255237937E-1
1.019747742E2,9.798609018E-1,1.835594058E0,-1.794916034E0
1.020247742E2,-4.179663181E0,-7.139584422E-1,-5.960820198E0
1.020747742E2,-4.713561535E0,2.979961395E0,-3.332005501E0
1.021247742E2,-1.124626637E0,4.775774956E0,-1.251446247E0
1.021747742E2,3.780958891E0,-6.084050655E0,-1.188844013E1
1.022247742E2,-8.374879360E-1,-8.913264424E-2,-3.439682484E0
1.022747742E2,1.180858016E0,-5.157190704E1,-1.169222832E1
1.023247742E2,1.827697754E1,-3.073131943E1,1.281356573E0
1.023747742E2,3.489692688E1,-6.785446644E0,2.883500862E1
1.024247742E2,4.214059830E0,-3.888635874E0,3.438486099E0
1.024747742E2,4.214059830E0,4.426123619E0,6.572186470E0
1.025247742E2,4.357928276E0,-1.152144074E0,-1.648056656E-1
1.025747742E2,-9.427721500E-1,2.032104731E0,2.670090914E0
1.026247742E2,1.913360834E0,-3.170489892E-2,1.209571838E0
1.026747742E2,1.895713806E1,-2.168166542E1,4.338785648E0
1.027247742E2,1.049402237E1,-6.912774658E1,1.743470430E0
1.027747742E2,7.477571070E-2,-1.152353477E1,-3.482753277E0
1.028247742E2,-3.777668774E-1,4.799703121E0,8.718847632E-1
1.028747742E2,-3.095116138E0,1.876272082E0,-4.182055950E0
1.029247742E2,-2.814856768E0,3.655335665E0,-2.479861498E0
1.029747742E2,6.608377934E0,3.772583961E0,3.842095566E1
1.030247742E2,1.805683732E0,-3.831208229E0,-7.847261906E0
1.030747742E2,-2.328814745E0,-3.934099436E0,-1.136590719E0
1.031247742E2,2.004287958E0,-4.135634995E1,-1.047368336E1
1.031747742E2,2.022593117E1,-2.811207771E1,-2.924926519E0
1.032247742E2,3.057788086E1,-1.553839207E1,5.034109879E1
1.032747742E2,-3.090330362E0,-1.138445187E1,1.697946930E1
1.033247742E2,1.219143152E0,5.297410011E0,1.328764343E1
1.033747742E2,6.383153439E0,-2.722733021E0,1.824527234E-1
1.034247742E2,2.234298229E0,4.325624943E0,4.209274292E0
1.034747742E2,5.083252430E0,-1.693221092E0,3.828815222E0
1.035247742E2,2.120040894E1,-2.833969498E1,8.861220360E0
1.035747742E2,1.131266689E1,-5.810072327E1,1.013360381E0
1.036247742E2,3.263810158E0,-1.277797222E1,-2.589931488E0
