"Time (s)","Linear Acceleration x (m/s^2)","Linear Acceleration y (m/s^2)","Linear Acceleration z (m/s^2)"
1.085573460E-1,-8.635733128E-1,-2.975873947E-1,-8.192048073E-1
1.585573460E-1,-8.999872208E-2,-2.463288307E-1,-1.255064964E0
2.085573460E-1,2.902002335E-1,3.148345947E-1,4.438166618E-1
2.585573460E-1,-4.179313183E-1,-4.083957672E-1,1.198934555E0
3.085573460E-1,-1.372716904E0,-1.449603081E0,2.079062462E0
3.585573460E-1,-5.735239387E-1,-1.712581158E0,-1.897296906E-1
4.085573460E-1,1.625590324E0,3.110146523E-1,6.327295303E-2
4.585573460E-1,9.749035835E-1,2.195037842E0,1.646490097E-1
5.085573460E-1,-6.631157398E-1,-1.795904398E0,4.249696732E-1
5.585573460E-1,-1.186651707E0,-3.971520185E0,-4.095020294E0
6.085573460E-1,-3.580373287E0,-5.221341133E0,-4.104115486E0
6.585573460E-1,5.764124393E-1,-5.412735939E0,-2.696484089E0
7.085573460E-1,2.249816656E0,-2.162793159E0,9.381895065E-1
7.585573460E-1,2.933060646E0,-1.185655117E0,3.517842293E-1
8.085573460E-1,6.913252831E0,8.036651611E-1,3.805088997E0
8.585573460E-1,7.397838116E0,7.293243408E-1,4.517441750E0
9.085573460E-1,6.300921440E0,1.800580502E0,6.232502937E0
9.585573460E-1,5.777706623E0,4.317422867E0,7.412639618E0
1.008557346E0,2.673619270E0,2.919904709E0,5.694828033E0
1.058557346E0,-2.067969799E0,1.147946358E0,2.509523869E0
1.108557346E0,-1.999951363E0,-5.564732552E-1,2.311381817E0
1.158557346E0,8.526992798E-2,-8.147044182E-1,1.817312002E0
1.208557346E0,1.103725433E-1,-2.942652702E-1,3.350791335E-1
1.258557346E0,3.748641014E0,2.169935942E0,2.022757530E0
1.308557346E0,-1.683862686E0,-1.292624474E-1,-4.846455753E-1
1.358557346E0,1.307711601E0,3.869624138E-1,-3.293422461E0
1.408557346E0,-4.435367584E-1,3.131368399E0,3.067591190E0
1.458557346E0,-1.465954781E0,1.169557571E0,2.110956192E0
1.508557346E0,9.207506180E-1,1.635699034E0,-1.448365211E0
1.558557346E0,-2.332498550E0,2.488668442E0,7.920058966E-1
1.608557346E0,-3.567290306E0,3.125209808E-1,-2.046510458E0
1.658557346E0,4.190707207E0,-2.969934464E0,-1.946309209E-1
1.708557346E0,1.207263947E0,-1.439783573E0,3.749640584E-1
1.758557346E0,9.433746338E-2,-1.218074322E0,1.700775623E-1
1.808557346E0,-1.932659149E-1,1.419118881E0,1.144961864E-1
1.858557346E0,-1.725735664E-1,2.131654739E0,1.257034421E0
1.908557346E0,1.778336048E0,3.320527077E-1,1.386919856E0
1.958557346E0,1.240612984E0,1.498821735E0,7.740681767E-1
2.008557346E0,-2.808327675E-1,-1.384476662E0,7.863135338E-1
2.058557346E0,3.631450653E0,2.307675362E0,6.276313305E0
2.108557346E0,6.482853889E-1,3.039525032E0,6.121960878E-1
2.158557346E0,9.598152161E0,-3.588278770E0,7.304612160E0
2.208557346E0,-1.022877407E1,-9.493679047E0,-4.267232418E0
2.258557346E0,1.643423080E0,-2.033638000E0,-1.826505423E0
2.308557346E0,-3.090068579E0,-2.017717361E0,-1.739593267E0
2.358557346E0,-3.730682850E0,-1.759532928E0,-1.443542480E0
2.408557346E0,-3.476444721E0,1.007449627E0,-2.620168686E0
2.458557346E0,-1.790167809E0,1.255692482E0,-1.548996568E0
2.508557346E0,-3.444457054E-1,1.797885895E0,-3.768200874E-1
2.558557346E0,-2.324924469E0,3.919714928E0,-4.627869129E-1
2.608557346E0,4.023683071E0,1.831275940E0,3.892693758E0
2.658557346E0,6.269881725E0,3.301984787E0,4.407248497E0
2.708557346E0,4.540259838E0,-8.551074982E0,-4.628614902E0
2.758557346E0,-7.900135994E0,-1.560142040E0,6.688129425E0
2.808557346E0,2.413600445E0,-3.349615574E0,-2.327777147E0
2.858557346E0,-2.607969522E0,-2.798239708E0,-8.168916702E0
2.908557346E0,6.186518669E-1,3.706874847E-1,4.149344921E0
2.958557346E0,3.142418861E-1,1.498672485E0,7.861184597E0
3.008557346E0,-3.174207211E0,1.428839684E0,1.028808832E0
3.058557346E0,-1.636202812E0,1.244437218E0,2.108572006E0
3.108557346E0,7.353434563E-1,1.255102158E-1,3.207529783E0
3.158557346E0,3.848920345E0,-7.327470779E-1,4.118112564E0
3.208557346E0,4.142852783E0,-9.980783463E-1,5.520046234E0
3.258557346E0,2.634808302E0,-7.576789856E-1,-1.182160020E0
3.308557346E0,3.560101271E0,-2.749056816E0,-2.985430002E0
3.358557346E0,3.821735382E0,-9.457262039E0,2.132095814E0
3.408557346E0,-2.744611263E0,-5.073240280E0,-4.923754692E0
3.458557346E0,4.690987110E0,-1.915277481E0,-5.911556721E0
3.508557346E0,-7.130912781E0,6.058496475E0,-3.803235054E0
3.558557346E0,-5.286647797E0,1.013852310E1,-1.120268583E0
3.608557346E0,1.344341278E0,7.218127251E0,8.372073174E0
3.658557346E0,-3.443818092E0,4.236572266E0,-4.053401947E-2
3.708557346E0,1.347537518E0,-4.669187546E0,-5.516317368E0
3.758557346E0,5.424461365E-1,-1.818138313E1,-2.509512424E0
3.808557346E0,9.151248932E-1,-7.132012844E0,-1.231791258E0
3.858557346E0,4.806619167E0,-7.391574860E0,-1.096197128E1
3.908557346E0,-1.989260793E0,-2.102882385E0,3.115934372E0
3.958557346E0,-3.082394123E0,6.482684612E0,7.502526283E0
4.008557346E0,-2.123772860E0,1.097555828E1,1.024191380E1
4.058557346E0,-2.382491112E0,8.329652786E0,1.744536877E0
4.108557346E0,1.911492825E0,1.526426315E0,3.546841383E0
4.158557346E0,7.204064369E0,-1.403539753E1,-1.610212803E0
4.208557346E0,8.631424904E-1,-8.990215302E0,2.299259186E0
4.258557346E0,1.685954571E0,-5.763694763E0,-5.912746906E0
4.308557346E0,1.553698540E0,-2.647800446E0,5.719799042E0
4.358557346E0,-3.378074646E0,7.650673866E0,-3.542396545E0
4.408557346E0,-8.708280563E0,6.818321228E0,-1.202414274E0
4.458557346E0,-2.364241600E0,1.128590393E1,-3.922539234E0
4.508557346E0,3.382525921E0,3.366597652E0,-5.120697975E0
4.558557346E0,-8.716851234E0,-4.920475960E0,-5.041779995E0
4.608557346E0,6.213314056E0,-1.095654392E1,1.877074122E0
4.658557346E0,1.561174965E1,2.052165985E1,1.958776712E-1
4.708557346E0,2.900633812E-1,-9.434206963E0,-8.510255814E0
4.758557346E0,-1.096820831E0,-2.977435112E1,2.927605629E0
4.808557346E0,-5.527842999E0,3.066956997E0,1.531497002E1
4.858557346E0,2.592339993E0,5.603306770E0,2.616300106E0
4.908557346E0,-1.511719227E-1,1.503474712E1,-9.129592180E-1
4.958557346E0,1.230963230E0,9.586888313E0,3.017541409E0
5.008557346E0,7.483984947E0,-7.797789574E0,6.125341892E0
5.058557346E0,5.594629288E0,-3.995909119E1,-4.445853233E0
5.108557346E0,-3.563733101E-1,-1.080187511E1,-3.134500265E0
5.158557346E0,-2.250719070E-2,5.921891689E0,-4.198550224E0
5.208557346E0,-2.708968163E0,7.778479576E0,-7.897337914E0
5.258557346E0,-9.131957054E0,1.041018772E1,-8.394120216E0
5.308557346E0,-5.406190872E0,9.027590752E0,-2.728512764E0
5.358557346E0,6.912899017E0,-5.337347984E-1,5.511363983E0
5.408557346E0,-1.191353226E1,-9.324342728E0,-1.343034077E1
5.458557346E0,-4.356075764E0,-1.272341061E1,3.125962734E0
5.508557346E0,1.195464325E1,-1.223643589E1,-5.745981693E0
5.558557346E0,1.840533829E1,-1.207607746E1,-5.657003880E0
5.608557346E0,4.336853027E0,2.152826309E0,-1.528721333E0
5.658557346E0,-7.666946888E0,1.185460472E1,1.199424458E1
5.708557346E0,3.174326181E0,1.082638264E1,7.313027382E0
5.758557346E0,-6.311134338E0,2.821138859E0,4.040136337E0
5.808557346E0,2.377830029E0,-3.720582962E0,1.184725761E-2
5.858557346E0,9.682851791E0,-2.175783539E1,-3.867806911E0
5.908557346E0,2.997451305E0,-1.593103790E1,-2.426309586E-1
5.958557346E0,-1.361684322E0,-1.939277649E-1,-6.084562302E0
6.008557346E0,-5.982710361E0,5.467148304E0,-1.346699810E1
6.058557346E0,-7.524077892E0,1.020269680E1,-7.463466167E0
6.108557346E0,-3.340564728E0,1.184505463E1,-9.441764355E-1
6.158557346E0,1.003415871E1,2.220821381E0,4.448238850E0
6.208557346E0,-3.995952368E0,-1.024764252E1,-6.325336456E0
6.258557346E0,4.025602341E-2,-8.353981018E0,-6.563832283E0
6.308557346E0,3.075190783E0,-6.090420723E0,-7.248426437E0
6.358557346E0,2.554229736E0,-1.630335617E1,1.715900183E0
6.408557346E0,-2.836128235E0,-1.467723846E0,5.910943031E0
6.458557346E0,-6.254759789E0,8.186549187E0,5.816812038E0
6.508557346E0,-4.158717632E0,9.861227989E0,1.110198402E1
6.558557346E0,-5.268057823E0,3.339081287E0,4.499528408E0
6.608557346E0,-4.248641014E0,-5.423253059E0,-2.443037987E0
6.658557346E0,4.407724857E0,-2.156008911E1,-4.619688988E0
6.708557346E0,1.920346737E0,-9.174513817E0,6.602704048E0
6.758557346E0,-3.449516296E-1,-6.733141422E0,-2.767794609E0
6.808557346E0,1.498500824E0,4.997168541E0,-8.996530533E0
6.858557346E0,-3.474483252E0,9.629372597E0,-6.004030704E0
6.908557346E0,-2.059710979E0,1.414340401E1,-8.531962395E0
6.958557346E0,6.703218937E0,2.816328526E0,1.427165413E1
7.008557346E0,-3.305508614E0,6.423058510E-1,-7.758816242E0
7.058557346E0,-9.263478279E0,-1.548796463E1,-1.150605965E1
7.108557346E0,-2.135343552E-1,-5.081333160E0,-4.453612804E0
7.158557346E0,9.423732758E0,-1.098982048E1,-4.804534912E0
7.208557346E0,8.652572632E0,-1.328759384E1,2.801536942E1
7.258557346E0,-1.400082111E0,-3.933639526E-1,2.881974697E0
7.308557346E0,-6.755505562E0,1.341216278E1,1.193293571E1
7.358557346E0,7.506935596E-1,9.065126419E0,2.320733786E0
7.408557346E0,-7.074683189E0,4.008677959E0,9.893868446E0
7.458557346E0,-5.875466347E0,-5.633243561E0,-3.357301712E0
7.508557346E0,-6.216382980E-2,-2.430095863E1,-2.549653769E0
7.558557346E0,9.428047180E0,-1.049153900E1,5.554031372E0
7.608557346E0,1.006888628E0,-6.261389732E0,-2.822859049E0
7.658557346E0,-4.239686012E0,8.650254250E0,-6.810867786E0
7.708557346E0,-5.343019962E0,1.453763580E1,-1.075121593E1
7.758557346E0,-3.545020580E0,1.012092495E1,-8.177728653E0
7.808557346E0,2.266001701E-1,2.248297691E0,1.210141373E1
7.858557346E0,-4.645670414E0,5.254347801E0,-5.772287369E0
7.908557346E0,-4.957172871E0,-1.697043991E1,-5.089240074E0
7.958557346E0,7.403604507E0,-1.071993828E1,-9.084629059E0
8.008557346E0,2.741170883E0,-1.122381687E1,1.708759308E0
8.058557346E0,-2.831619978E-1,-8.413454056E0,2.058640671E1
8.108557346E0,2.521985054E0,4.669148445E0,6.453090668E0
8.158557346E0,-1.500102162E0,7.567563057E0,4.268296719E0
8.208557346E0,7.935172319E-1,1.115144920E1,1.060159111E1
8.258557346E0,-6.755161285E0,6.699135780E0,3.907866478E0
8.308557346E0,-4.756283760E0,-9.284015656E0,-7.009658813E-1
8.358557346E0,4.468631744E-2,-3.362091064E1,-6.665479660E0
8.408557346E0,9.601880074E0,-1.482085800E1,6.716813564E0
8.458557346E0,-1.714445353E0,-1.003696442E0,-6.424104691E0
8.508557346E0,-1.545874357E0,6.081508160E0,-8.956453323E0
8.558557346E0,-3.156404734E0,1.250687599E1,-8.176646233E0
8.608557346E0,1.262803555E0,1.180479717E1,-1.155179882E1
8.658557346E0,1.859579086E0,1.125989914E0,4.944118881E1
8.708557346E0,-6.954202175E0,6.246525288E0,-1.138395691E1
8.758557346E0,-5.539406776E0,-2.326013374E1,-1.011776924E1
8.808557346E0,4.463633537E0,-5.025875092E0,-4.755571365E0
8.858557346E0,1.292707539E1,-2.077586365E1,-7.265892029E0
8.908557346E0,5.798388958E0,7.999086380E-1,8.215317726E0
8.958557346E0,-3.293446779E0,7.840670586E0,5.867520332E0
9.008557346E0,5.730066299E0,1.036082840E1,1.592086983E1
9.058557346E0,-5.321350098E0,5.993138313E0,6.856915951E0
9.108557346E0,-7.551440239E0,5.702915192E-1,3.612877607E0
9.158557346E0,6.946489811E0,-9.144148827E0,-1.527501225E0
9.208557346E0,8.507325172E0,-3.472430420E1,1.352401924E1
9.258557346E0,-3.787970543E0,-1.208885956E1,-5.421576023E0
9.308557346E0,1.726768970E0,3.629328251E0,-6.563264847E0
9.358557346E0,-1.469340920E0,9.375817299E0,-8.659272194E0
9.408557346E0,-1.259705305E0,1.470813942E1,-9.538715363E0
9.458557346E0,4.656009674E-1,1.048534584E1,-1.061268902E1
9.508557346E0,-9.577751160E-3,-1.076101780E1,1.106918716E1
9.558557346E0,-8.782722473E0,5.002849579E0,-8.673886299E0
9.608557346E0,-7.724603653E0,-2.258386612E1,-1.554077721E1
9.658557346E0,1.509181023E1,-2.033086014E1,-2.791532516E0
9.708557346E0,3.030693054E1,-8.833239555E0,3.688156891E1
9.758557346E0,-6.622734070E-1,2.442054749E0,5.164285660E0
9.808557346E0,-3.108188629E0,1.334795666E1,1.469875908E1
9.858557346E0,3.872636318E0,7.611729622E0,4.976710320E0
9.908557346E0,-2.177539587E0,1.077332783E1,6.787423134E0
9.958557346E0,3.226256132E0,3.832397461E0,1.140251875E0
1.000855735E1,1.550438118E1,-1.413985252E1,-5.007967949E-1
1.005855735E1,2.761371613E0,-3.537017822E1,3.736332417E0
1.010855735E1,-3.570985556E0,-4.062739372E0,-6.729879379E0
1.015855735E1,-3.008841991E0,8.947250366E0,-5.855640888E0
1.020855735E1,-8.253701210E0,7.105031967E0,-7.849315643E0
1.025855735E1,-4.672058582E0,9.712604523E0,-7.780383110E0
1.030855735E1,-3.938598633E0,9.867492676E0,-2.925387621E0
1.035855735E1,-3.524944782E0,5.070455551E0,-1.553307152E1
1.040855735E1,-1.164458656E1,-2.144680595E1,-8.532644272E0
1.045855735E1,3.686644554E0,-1.906643486E1,-6.705093384E0
1.050855735E1,2.164199638E1,-1.893735886E1,-8.808038712E0
1.055855735E1,1.028476334E1,1.793681622E0,-1.668096066E0
1.060855735E1,-6.143177509E0,8.873750687E0,6.918779373E0
1.065855735E1,2.718845367E0,8.634182930E0,4.605710983E0
1.070855735E1,2.811379433E0,1.341609573E1,9.563692093E0
1.075855735E1,1.226834774E0,9.516614914E0,3.538997412E0
1.080855735E1,9.746623993E0,-4.092693329E0,-1.990399480E0
1.085855735E1,8.364431381E0,-5.141566849E1,-1.617870331E0
1.090855735E1,-3.364472389E0,-1.479002571E1,-4.036730289E0
1.095855735E1,-1.959644318E0,6.513669491E0,-7.056624413E0
1.100855735E1,-1.227207375E1,1.025310326E1,-5.179228306E0
1.105855735E1,-9.731131554E0,6.367073536E0,-5.360076427E0
1.110855735E1,-2.753361225E0,9.969626427E0,5.335794449E0
1.115855735E1,7.420911312E0,1.930404186E0,5.189023972E0
1.120855735E1,-7.535661697E0,-1.469239521E1,-1.291772842E1
1.125855735E1,3.559755802E0,-6.940671921E0,-9.941184044E0
1.130855735E1,-4.197256565E-1,-1.190667820E1,-3.577017307E0
1.135855735E1,8.849882126E0,-1.716680908E1,1.885566330E1
1.140855735E1,5.936822891E0,3.386107445E0,4.137772560E0
1.145855735E1,-7.497813702E-1,1.089549255E1,3.777333021E0
1.150855735E1,4.843448639E0,1.176019764E1,1.139860821E1
1.155855735E1,-3.906196117E0,8.571495056E0,6.780187607E0
1.160855735E1,7.233905792E-1,1.000509262E-1,-3.792860806E-1
1.165855735E1,5.338468552E0,-1.800234222E1,1.648371696E0
1.170855735E1,4.462053299E0,-2.379563141E1,6.517378807E0
1.175855735E1,-1.549608588E0,-6.995745659E0,-2.958561659E0
1.180855735E1,-2.033461809E0,3.063229561E0,-6.659437180E0
1.185855735E1,-5.869859695E0,1.004494381E1,-7.527020454E0
1.190855735E1,-1.595051289E-1,1.616432190E1,-1.295673180E1
1.195855735E1,-3.206572771E0,7.943434238E0,-3.669714451E0
1.200855735E1,1.178246021E0,3.670447826E0,-8.142280579E-2
1.205855735E1,-4.068186760E0,-1.263058281E1,-1.130270576E1
1.210855735E1,1.263259888E0,-1.302790356E1,-1.455928802E1
1.215855735E1,4.977307320E-1,-1.583294106E1,-4.119748116E0
1.220855735E1,1.023237228E1,-1.865118027E1,1.967862892E1
1.225855735E1,9.304403305E0,1.601977825E0,7.658229828E0
1.230855735E1,1.134696364E0,1.254410362E1,2.350453377E0
1.235855735E1,2.170189857E0,7.113530159E0,1.264272499E1
1.240855735E1,-3.834628105E0,1.064127541E1,3.173564911E0
1.245855735E1,-2.671087742E0,-3.611116409E-1,1.136541128E0
1.250855735E1,3.776023626E0,-1.981395912E1,-2.574634552E-1
1.255855735E1,1.036109352E1,-1.736923218E1,7.607699394E0
1.260855735E1,-4.044500351E0,-1.156373978E1,-1.551125050E0
1.265855735E1,-2.578826666E0,2.754681587E0,-7.714286804E0
1.270855735E1,-4.472740650E0,9.770874977E0,-7.784626484E0
1.275855735E1,-1.746975303E0,1.508505440E1,-1.261550903E1
1.280855735E1,-2.387104034E-1,1.021536064E1,-6.845915318E0
1.285855735E1,7.825228691E0,2.734479904E0,9.327407837E0
1.290855735E1,-6.282319069E0,-8.446329117E0,-5.893476486E0
1.295855735E1,-5.365242958E0,-2.335333061E1,-1.458573246E1
1.300855735E1,8.275641441E0,-1.472411060E1,-3.557027340E0
1.305855735E1,2.247554398E1,-1.298614883E1,5.610394287E1
1.310855735E1,-4.989397526E-2,-1.351247787E0,5.007837296E0
1.315855735E1,-9.990363717E-1,1.122217369E1,8.895205498E0
1.320855735E1,7.532069683E0,9.434693336E0,7.946349144E0
1.325855735E1,1.195864797E0,1.202620697E1,4.014284611E0
1.330855735E1,-3.024945736E0,1.512414932E0,2.325297117E0
1.335855735E1,8.399065971E0,-1.773100281E1,-6.455980539E-1
1.340855735E1,4.112096786E0,-3.204113770E1,1.175901413E1
1.345855735E1,3.136456013E-1,-8.879435539E0,-4.850288391E0
1.350855735E1,-3.943932056E0,2.142203331E0,-6.587183952E0
1.355855735E1,-6.941344261E0,9.466709137E0,-9.269117355E0
1.360855735E1,-4.166557312E0,1.462631989E1,-9.824659348E0
1.365855735E1,8.673913479E-1,1.223370075E1,-6.326445580E0
1.370855735E1,2.786275625E0,-8.047533035E-1,7.503031254E0
1.375855735E1,-7.237746239E0,-6.111742496E0,-9.280248642E0
1.380855735E1,-3.980725765E0,-1.779160500E1,-9.494206429E0
1.385855735E1,9.050246239E0,-1.489407158E1,-9.235517502E0
1.390855735E1,1.556139660E1,-1.297881889E1,3.615961838E1
1.395855735E1,-1.651560307E0,2.366101742E0,9.889618158E-1
1.400855735E1,-1.603658676E0,1.198696709E1,1.590875435E1
1.405855735E1,6.329387188E0,6.464225769E0,6.752050400E0
1.410855735E1,-2.162942171E0,1.192776108E1,5.806633949E0
1.415855735E1,-1.711463928E-2,1.797510147E0,1.754035830E0
1.420855735E1,1.045237732E1,-1.442714977E1,-2.051341772E0
1.425855735E1,-2.556920767E0,-3.072968483E1,4.956375122E0
1.430855735E1,-1.247772932E0,-2.026771069E0,-9.291746140E0
1.435855735E1,-3.047606945E0,5.515661240E0,-7.304450512E0
1.440855735E1,-7.762764931E0,9.120917320E0,-9.641541481E0
1.445855735E1,-3.704169035E0,1.617364883E1,-8.993159294E0
1.450855735E1,5.867633820E0,7.701334953E0,5.687908554E1
1.455855735E1,-4.300151348E0,4.221712112E0,-5.275542259E0
1.460855735E1,-4.524391651E0,-2.504241753E1,-1.943385315E1
1.465855735E1,3.510403395E0,-9.179340363E0,-4.790027142E0
1.470855735E1,1.219997215E1,-2.584802628E1,8.722722054E0
1.475855735E1,3.694490910E0,-3.344458580E0,6.159646034E0
1.480855735E1,-2.017115593E0,7.375487328E0,7.473812103E0
1.485855735E1,7.008605480E0,8.891636848E0,1.535894966E1
1.490855735E1,-1.263427019E0,8.355930328E0,3.108346939E0
1.495855735E1,-8.495004654E0,5.291250229E0,4.705868721E0
1.500855735E1,3.873318434E0,-1.025166035E1,-5.920789242E-1
1.505855735E1,8.942899704E0,-3.491333389E1,1.201699448E1
1.510855735E1,-1.009780169E0,-1.724061966E1,-5.543504238E0
1.515855735E1,-1.615982056E-1,2.519033432E0,-8.314307213E0
1.520855735E1,-3.853638887E0,7.273991585E0,-1.009708214E1
1.525855735E1,-7.067230225E0,1.391520309E1,-1.058653641E1
1.530855735E1,-8.297590017E-1,1.232332897E1,-6.037312508E0
1.535855735E1,4.924939156E0,-8.314371109E-1,2.008218575E1
1.540855735E1,-3.568703175E0,3.790150166E0,-7.007121086E0
1.545855735E1,-4.332785606E0,-2.856416130E1,-1.625682640E1
1.550855735E1,5.052836895E0,-1.083704948E1,-2.315785408E0
1.555855735E1,1.120713234E1,-2.424010086E1,-4.609020710E0
1.560855735E1,5.430386066E-1,-2.302910805E0,4.501218319E0
1.565855735E1,2.932432294E-1,1.086493587E1,7.202788830E0
1.570855735E1,9.049669266E0,8.617150307E0,1.026218510E1
1.575855735E1,7.595350742E-1,9.439970016E0,4.734300137E0
1.580855735E1,-3.990089417E0,3.174324989E0,5.654404640E0
1.585855735E1,7.781499386E0,-1.418245411E1,-8.314687014E-1
1.590855735E1,4.377018929E0,-3.901395416E1,6.942239761E0
1.595855735E1,-2.886872292E0,-9.493010521E0,-6.779080391E0
1.600855735E1,1.483676910E0,5.330870628E0,-8.952994347E0
1.605855735E1,-3.917507172E0,7.614851475E0,-1.274407196E1
1.610855735E1,-5.405879021E0,1.408846569E1,-1.140572548E1
1.615855735E1,-7.037578821E-1,1.142913818E1,-6.929272175E0
1.620855735E1,-2.198852539E0,-6.653965950E0,1.656269264E1
1.625855735E1,-9.577864647E0,1.620287895E0,-4.106834412E0
1.630855735E1,-5.917676926E0,-3.125542641E1,-1.590578651E1
1.635855735E1,9.475893021E0,-9.480921745E0,-2.506089687E0
1.640855735E1,2.120920944E1,-2.649520874E1,4.649512863E1
1.645855735E1,1.580883741E0,2.035446167E-1,2.548653841E0
1.650855735E1,-5.177037716E-1,1.235809612E1,1.891555595E1
1.655855735E1,6.900357246E0,4.483401299E0,1.149380493E1
1.660855735E1,-2.702181339E0,8.571661949E0,2.015137672E0
1.665855735E1,-4.162341118E0,5.271582603E0,-1.078034759E0
1.670855735E1,7.988954067E0,-1.161768913E1,-3.670331240E-1
1.675855735E1,-1.752577901E0,-4.512506104E1,6.194568634E0
1.680855735E1,-2.438507318E0,-4.656065464E0,-7.848434448E0
1.685855735E1,1.608587027E0,6.690225601E0,-7.096902847E0
1.690855735E1,-5.466559410E0,8.049102783E0,-9.147486687E0
1.695855735E1,-5.620380402E0,1.095523834E1,-7.739254951E0
1.700855735E1,-6.704549789E-1,1.008162975E1,-5.662371159E0
1.705855735E1,2.072117567E0,-2.917314529E0,1.112938690E1
1.710855735E1,-1.025497055E1,4.363908768E-1,-2.902352571E0
1.715855735E1,-5.616870403E0,-2.655755043E1,-1.105997467E1
1.720855735E1,1.076272011E1,-1.089478779E1,-1.274181128E0
1.725855735E1,2.211139488E1,-2.073304749E1,4.648523331E1
1.730855735E1,1.411805630E0,4.446926117E-1,3.710124969E0
1.735855735E1,-4.592558384E0,1.128538704E1,2.212127876E1
1.740855735E1,5.563427925E0,4.660898209E0,7.695639610E0
1.745855735E1,-1.851713181E0,9.960498810E0,3.470253229E0
1.750855735E1,-3.511924267E0,6.726311207E0,8.937386274E-1
1.755855735E1,1.023915863E1,-1.414099312E1,4.546952248E-1
1.760855735E1,-3.945379734E0,-3.822978973E1,1.177493668E1
1.765855735E1,-3.654643536E0,-1.234728813E0,-8.073969841E0
1.770855735E1,3.247165680E-1,8.577951431E0,-1.142351151E1
1.775855735E1,-4.767394066E0,1.007021618E1,-1.137352371E1
1.780855735E1,-3.727364540E0,1.296158791E1,-7.813418388E0
1.785855735E1,-1.330950260E0,1.181941986E1,-1.169460297E0
1.790855735E1,1.740845203E0,-5.945215225E0,1.486711740E0
1.795855735E1,-4.742659092E0,2.054076195E0,-6.477137566E0
1.800855735E1,-8.218059540E0,-3.881322098E1,-1.332204628E1
1.805855735E1,8.128964424E0,-7.407348633E0,-1.389279246E0
1.810855735E1,1.910057259E1,-2.441049767E1,-4.933657646E-1
1.815855735E1,2.201788425E0,-1.093756676E0,7.687687397E0
1.820855735E1,-2.026822805E0,1.223471260E1,2.289757347E1
1.825855735E1,6.353386879E0,3.658152580E0,7.781408310E0
1.830855735E1,-1.804652214E0,8.401397705E0,9.815483093E-1
1.835855735E1,-6.686175346E0,9.751196861E0,1.343616962E0
1.840855735E1,7.591970921E0,-7.411153793E0,4.851372242E-1
1.845855735E1,-9.494918585E-1,-4.975495911E1,3.607949734E0
1.850855735E1,-4.021277905E0,-1.106510258E1,-4.977565765E0
1.855855735E1,9.292199612E-1,8.159624100E0,-6.695044041E0
1.860855735E1,-5.483174324E0,7.883011818E0,-9.495882034E0
1.865855735E1,-6.851464272E0,1.167079449E1,-7.546263218E0
1.870855735E1,1.056139469E-1,1.070534706E1,-6.219620705E0
1.875855735E1,6.056697369E0,-7.606182098E-1,2.038306236E1
1.880855735E1,-4.905878067E0,-6.722049713E-1,-6.321513176E0
1.885855735E1,-1.246944809E1,-3.308243179E1,-1.905625916E1
1.890855735E1,4.641837597E0,-8.197113037E0,-1.322321892E0
1.895855735E1,1.865564537E1,-1.971599197E1,-9.748599052E0
1.900855735E1,5.120459080E0,-5.047972679E0,1.919568634E1
1.905855735E1,-6.524617195E0,1.214836884E1,1.231096458E1
1.910855735E1,8.339588165E0,4.413675308E0,4.594978333E0
1.915855735E1,4.031078815E0,1.047976494E1,3.695237160E0
1.920855735E1,-1.910112262E0,7.643267632E0,5.912387848E0
1.925855735E1,6.012354374E0,-7.578755379E0,-2.371292591E0
1.930855735E1,1.436462879E0,-6.109433746E1,3.594344139E0
1.935855735E1,-2.550047159E0,-9.845632553E0,-7.363718987E0
1.940855735E1,1.299628973E0,9.523788452E0,-1.017867088E1
1.945855735E1,-6.322603226E0,7.416512966E0,-9.569854736E0
1.950855735E1,-6.288132191E0,1.295033836E1,-8.925571442E0
1.955855735E1,8.530523777E-1,9.864482880E0,-4.644192696E0
1.960855735E1,3.511112690E0,-9.979391098E-1,4.876720428E0
1.965855735E1,-6.600122452E0,-3.870638371E0,-1.827929020E0
1.970855735E1,-7.123008251E0,-2.339994049E1,-7.543456078E0
1.975855735E1,5.690486908E0,-9.562131882E0,-1.490930676E0
1.980855735E1,1.379320812E1,-1.008120632E1,3.199792290E1
1.985855735E1,-5.011711597E0,-5.043382645E-1,6.410065174E0
1.990855735E1,1.705812454E0,1.095438194E1,1.670002747E1
1.995855735E1,7.393218994E0,4.267317295E0,7.535663605E0
2.000855735E1,-1.590708494E0,9.836400986E0,3.103838444E0
2.005855735E1,-5.823651552E-1,3.834215641E0,7.446964979E-1
2.010855735E1,9.691814423E0,-2.499292374E1,-2.238994837E-1
2.015855735E1,-3.621290922E0,-2.398285294E1,6.384220123E-1
2.020855735E1,-4.032626629E0,-5.436553001E0,-8.286925316E0
2.025855735E1,1.760692596E-1,4.189327240E0,-6.634095192E0
2.030855735E1,-5.912474632E0,8.982812881E0,-8.681500435E0
2.035855735E1,-3.010872364E0,1.333261299E1,-9.033027649E0
2.040855735E1,7.181139946E0,7.132581711E0,6.206597137E1
2.045855735E1,-3.315822601E0,5.085111141E0,-1.615908432E1
2.050855735E1,-8.056941986E0,-1.310200405E1,-1.356933784E1
2.055855735E1,3.368108273E-1,-1.374292564E1,9.275197983E-3
2.060855735E1,1.204391289E1,-2.006552887E1,-3.608897924E-1
2.065855735E1,1.067762661E1,-4.154700279E0,2.960635900E0
2.070855735E1,-2.203712463E0,8.410917282E0,1.064604473E1
2.075855735E1,8.403139114E0,6.969815254E0,1.208112240E1
2.080855735E1,2.664970398E0,7.516392708E0,4.552209377E0
2.085855735E1,-4.329300404E0,7.946626663E0,5.506916523E0
2.090855735E1,5.217288494E0,-6.824042320E0,-2.266482711E-1
2.095855735E1,1.883933902E0,-4.103175354E1,7.578510284E0
2.100855735E1,-4.313646317E0,-1.545123291E1,-4.470762730E0
2.105855735E1,7.708492279E-1,4.732030869E0,-5.555584908E0
2.110855735E1,-2.854138136E0,1.047870445E1,-9.969369888E0
2.115855735E1,-6.039057255E0,1.245046043E1,-7.419157028E0
2.120855735E1,-4.245214462E-1,1.271140671E1,-6.296247482E0
2.125855735E1,7.270802498E0,-1.847342491E0,2.080791092E1
2.130855735E1,-7.648680687E0,5.279461861E0,-8.226518631E0
2.135855735E1,-1.061833382E1,-3.313401031E1,-1.870870972E1
2.140855735E1,3.161157131E0,-1.294570160E1,-2.164733410E0
2.145855735E1,3.446634674E1,-1.619448090E1,2.652407837E1
2.150855735E1,8.366096497E0,3.282135963E0,1.022880936E1
2.155855735E1,-3.964680433E0,6.711878300E0,6.920473099E0
2.160855735E1,5.152614117E0,8.959310532E0,8.396905899E0
2.165855735E1,-1.169098735E0,9.137422562E0,8.798102379E0
2.170855735E1,-1.272299290E0,2.984253883E0,1.802708864E0
2.175855735E1,1.388124275E1,-1.689008904E1,1.581158638E0
2.180855735E1,3.291509628E0,-3.409440613E1,-1.094480038E0
2.185855735E1,-3.167750120E0,-1.193774891E1,-6.164767265E0
2.190855735E1,-9.188609123E-1,7.162470818E0,-5.168764591E0
2.195855735E1,-8.371917725E0,9.126068115E0,-9.092050552E0
2.200855735E1,-7.822721958E0,1.132966805E1,-6.579488754E0
2.205855735E1,-1.220114231E0,1.280769062E1,9.062071800E0
2.210855735E1,-5.028781414E0,-5.497140884E-1,-1.404000473E1
2.215855735E1,-8.567670822E0,9.314222336E-1,-7.125350952E0
2.220855735E1,5.114698410E-2,-2.912172890E1,-1.610267258E1
2.225855735E1,1.366918945E1,-1.498785877E1,7.900913954E-1
2.230855735E1,2.795805550E1,-7.536729813E0,1.941450691E1
2.235855735E1,6.876791716E-1,3.756624699E0,9.358373642E0
2.240855735E1,-3.986325741E0,1.355544090E1,1.762257767E1
2.245855735E1,4.151321888E0,7.895685673E0,2.394867420E0
2.250855735E1,4.404748678E-1,1.304689789E1,1.008491898E1
2.255855735E1,3.639419317E0,5.281369209E0,3.046586812E-1
2.260855735E1,1.515821266E1,-1.433987713E1,5.758719921E0
2.265855735E1,6.120738506E0,-3.840952682E1,4.226246834E0
2.270855735E1,-1.958558083E0,-2.699817181E0,-8.310969353E0
2.275855735E1,-3.163320065E0,9.205952644E0,-5.348272324E0
2.280855735E1,-9.006341934E0,7.431234360E0,-1.155294895E1
2.285855735E1,-6.609740734E0,1.339559174E1,-1.116021919E1
2.290855735E1,4.528155327E0,9.304742813E0,4.499338913E1
2.295855735E1,-4.992784500E0,8.644884109E0,-1.871975899E1
2.300855735E1,-9.239362717E0,-4.914179802E0,-7.632880211E0
2.305855735E1,6.101784706E-1,-2.719735909E1,-8.585178375E0
2.310855735E1,2.422190666E1,-2.169872284E1,-7.279639244E0
2.315855735E1,1.814157867E1,6.732292175E-1,-3.336357594E0
2.320855735E1,-4.064108849E0,6.454464912E0,4.207100391E0
2.325855735E1,3.163485050E0,1.034548950E1,6.211514473E0
2.330855735E1,4.424035072E0,1.065968132E1,1.165349102E1
2.335855735E1,-3.061495304E0,9.037380219E0,6.446635246E0
2.340855735E1,9.953072548E0,-2.582027435E0,4.285801947E-2
2.345855735E1,1.560620689E1,-3.317283630E1,5.088868141E0
2.350855735E1,-2.460537195E0,-2.547414970E1,2.676119566E0
2.355855735E1,-2.456176996E0,5.105404854E0,-8.947433472E0
2.360855735E1,-7.178586006E0,9.661260605E0,-8.444375992E0
2.365855735E1,-1.002507782E1,1.016539478E1,-1.120891476E1
2.370855735E1,-5.527267456E0,1.258221531E1,-7.329605103E0
2.375855735E1,4.417737007E0,1.025978088E0,1.414535904E1
2.380855735E1,-5.508879185E0,7.832932949E0,-8.539110184E0
2.385855735E1,-7.167658329E0,-3.724018478E1,-1.824874496E1
2.390855735E1,8.024080276E0,-1.667760849E1,-8.385180473E0
2.395855735E1,3.478688812E1,-2.481283951E1,1.982222557E1
2.400855735E1,2.197569609E0,7.122163773E-1,2.417629957E0
2.405855735E1,-4.187476635E0,1.509605503E1,1.519016647E1
2.410855735E1,6.128531456E0,7.299909115E0,3.246204138E0
2.415855735E1,1.919009566E0,1.357883835E1,9.724944115E0
2.420855735E1,2.134680748E0,7.027572155E0,2.043167591E0
2.425855735E1,1.343864155E1,-1.419573116E1,8.157471657E0
2.430855735E1,5.951568604E0,-4.499676514E1,-4.605465889E0
2.435855735E1,-5.175302505E0,-7.472819328E0,-5.697656155E0
2.440855735E1,-2.618470430E0,1.034710312E1,-5.914505005E0
2.445855735E1,-8.897758484E0,8.465270042E0,-9.353923798E0
2.450855735E1,-5.514710426E0,1.059418964E1,-9.638876915E0
2.455855735E1,6.986195564E0,7.940791130E0,3.706140518E1
2.460855735E1,-7.808090210E0,6.322080612E0,-1.197469902E1
2.465855735E1,-8.562284470E0,-3.681159973E0,-5.826763153E0
2.470855735E1,3.181313515E0,-2.437810135E1,-1.027637863E1
2.475855735E1,1.528672218E1,-1.605061340E1,-1.027868652E1
2.480855735E1,1.888416862E1,-1.043056488E0,3.573876381E0
2.485855735E1,-1.135344505E0,5.516513348E0,6.061131954E0
2.490855735E1,3.939484596E0,7.131555557E0,6.909532547E0
2.495855735E1,1.393607140E0,1.042940903E1,2.932516813E0
2.500855735E1,1.428039074E-1,1.166497517E1,4.974302292E0
2.505855735E1,9.371210098E0,-2.201857567E0,2.792776823E-1
2.510855735E1,1.745049286E1,-3.011688614E1,1.895386219E0
2.515855735E1,-2.208778381E0,-2.094982910E1,6.726670265E-1
2.520855735E1,-3.657622099E0,4.645246506E0,-5.421320915E0
2.525855735E1,-8.199523926E0,8.491933823E0,-7.748319626E0
2.530855735E1,-8.347131729E0,9.153499603E0,-8.904575348E0
2.535855735E1,-4.062247276E0,1.223836899E1,-3.709315777E0
2.540855735E1,-5.560870171E-1,2.680499554E0,-3.308904409E0
2.545855735E1,-6.040868759E0,4.403722763E0,-1.003116798E1
2.550855735E1,-2.065053940E0,-3.676374054E1,-1.396166039E1
2.555855735E1,9.088451385E0,-1.670435333E1,9.514738321E-1
2.560855735E1,2.732563591E1,-5.468212128E0,3.480475616E1
2.565855735E1,2.881842375E0,1.993732452E-1,6.374268055E0
2.570855735E1,-9.543706775E-1,9.875706673E0,9.876188278E0
2.575855735E1,6.622145653E0,6.351772785E0,5.524270535E0
2.580855735E1,9.848642349E-2,1.156928062E1,5.909593105E0
2.585855735E1,2.430092096E-1,8.824291229E0,2.635397434E0
2.590855735E1,1.707578850E1,-1.543071842E1,4.222710609E0
2.595855735E1,6.569570065E0,-4.169670105E1,-2.460944891E0
2.600855735E1,-4.403287411E0,-1.172763252E1,-4.151353359E0
2.605855735E1,-1.607071400E0,7.538691521E0,-4.481661797E0
2.610855735E1,-7.605321884E0,7.565610409E0,-9.824417114E0
2.615855735E1,-8.735451698E0,1.025339699E1,-9.392994881E0
2.620855735E1,-5.106307030E0,1.120354843E1,1.013326645E1
2.625855735E1,-3.850479603E0,1.790939331E0,-2.071115494E1
2.630855735E1,-5.679332733E0,5.752947807E0,-6.646935940E0
2.635855735E1,-4.874870300E0,-3.369324875E1,-1.452325153E1
2.640855735E1,1.274309063E1,-1.915618515E1,2.648893833E0
2.645855735E1,3.514974213E1,-4.434597015E0,4.962274933E1
2.650855735E1,-8.132534027E-1,3.976078033E0,9.967642784E0
2.655855735E1,-4.368994713E0,1.602566528E1,1.852394104E1
2.660855735E1,4.034063339E0,8.164204597E0,4.536259174E0
2.665855735E1,-4.029121399E0,1.032962799E1,8.397052765E0
2.670855735E1,8.478527069E-1,2.934506416E0,1.687948227E0
2.675855735E1,1.586358833E1,-2.039615631E1,7.131640911E0
2.680855735E1,2.331346035E0,-3.421785736E1,1.643677711E0
2.685855735E1,-2.674479723E0,-5.967287540E0,-8.560363770E0
2.690855735E1,-1.800841093E0,8.602105141E0,-6.735055923E0
2.695855735E1,-9.139934540E0,8.020887375E0,-1.022248650E1
2.700855735E1,-5.267513275E0,1.164435959E1,-8.430515289E0
2.705855735E1,-2.773083687E0,1.127812958E1,-4.572802544E0
2.710855735E1,-5.895479202E0,5.411993027E0,-1.207195568E1
2.715855735E1,-8.887052536E0,-1.104898930E0,-5.490119457E0
2.720855735E1,1.880361557E0,-2.578655052E1,-1.003743172E1
2.725855735E1,1.576148415E1,-1.948415756E1,-9.778196335E0
2.730855735E1,1.817563248E1,-2.941932678E-1,-6.634116173E-2
2.735855735E1,-2.322840452E0,5.031654835E0,1.040670586E1
2.740855735E1,5.661418915E0,1.232986832E1,1.373132801E1
2.745855735E1,3.986118793E0,9.998232841E0,-2.052722216E0
2.750855735E1,9.162461758E-2,1.252866936E1,1.051200390E1
2.755855735E1,6.268607140E0,4.781341553E-1,-3.723745048E-1
2.760855735E1,1.663511467E1,-2.393065262E1,4.713031769E0
2.765855735E1,1.421226978E0,-3.802428436E1,8.448724747E-1
2.770855735E1,-3.285806656E0,1.309550285E0,-7.477654457E0
2.775855735E1,-5.282260895E0,9.770972252E0,-5.890057564E0
2.780855735E1,-9.711755753E0,8.329049110E0,-9.916757584E0
2.785855735E1,-4.543416500E0,1.196881485E1,-5.876369476E0
2.790855735E1,4.563251019E0,-6.089735031E-1,4.039995193E1
2.795855735E1,-5.728866577E0,6.196043491E0,-1.607834244E1
2.800855735E1,-8.030025482E0,-3.353806305E1,-1.125325775E1
2.805855735E1,4.071245193E0,-1.530187798E1,3.707917690E0
2.810855735E1,3.514272690E1,-1.269566154E1,1.265066528E1
2.815855735E1,1.182497215E1,2.349349976E0,9.344965935E0
2.820855735E1,-5.486563683E0,3.839594841E0,6.570051193E0
2.825855735E1,3.724239588E0,8.226429939E0,9.275862694E0
2.830855735E1,-5.095726252E-1,9.336752892E0,4.767641068E0
2.835855735E1,-2.237272263E0,9.290959358E0,2.717562199E0
2.840855735E1,1.129932022E1,-4.990700722E0,-2.637790203E0
2.845855735E1,1.533067322E1,-4.930284882E1,-1.817669630E0
2.850855735E1,-3.400713444E0,-1.542041588E1,-3.124502659E0
2.855855735E1,-3.194768190E0,5.430486202E0,-5.554661751E0
2.860855735E1,-8.808200836E0,9.803400040E0,-8.535079956E0
2.865855735E1,-7.497013092E0,1.082467651E1,-8.575619698E0
2.870855735E1,-5.102450371E0,9.419878960E0,-5.116205215E0
2.875855735E1,-9.105741978E-1,-2.955008507E0,-7.544317245E0
2.880855735E1,-9.188028336E0,5.801829815E0,-6.262309074E0
2.885855735E1,-8.094856262E0,-3.604143906E1,-1.733962631E1
2.890855735E1,7.803571224E0,-1.774319649E1,3.667166948E0
2.895855735E1,4.891441727E1,-1.254569912E1,3.709122086E1
2.900855735E1,5.679426193E0,4.306286812E0,1.525144482E1
2.905855735E1,-8.786085129E0,1.146209335E1,1.261178493E1
2.910855735E1,5.252703667E0,6.606439114E0,3.009193420E0
2.915855735E1,1.639339447E0,1.282180595E1,5.666282654E0
2.920855735E1,2.518332958E0,1.126317692E1,4.497863293E0
2.925855735E1,1.479348946E1,-5.864051819E0,-6.982713938E-1
2.930855735E1,1.333448315E1,-4.124539566E1,1.861020088E0
2.935855735E1,-2.172819138E0,-2.001969910E1,-3.109055042E0
2.940855735E1,-1.909572124E0,7.699218273E0,-3.686481237E0
2.945855735E1,-8.606884003E0,7.786576748E0,-1.066767502E1
2.950855735E1,-8.041951180E0,1.307123756E1,-1.301938152E1
2.955855735E1,-5.703466415E0,1.338257027E1,-4.088767052E0
2.960855735E1,6.943581104E0,-7.434051037E0,5.750196934E0
2.965855735E1,-5.128096581E0,3.255422831E0,-5.691434383E0
2.970855735E1,-9.732733727E0,-3.240761566E1,-1.468793869E1
2.975855735E1,8.840751648E0,-1.971593857E1,1.303629041E0
2.980855735E1,4.522702026E1,-4.939955711E0,5.034731674E1
2.985855735E1,4.335393906E0,4.085794449E0,6.135662079E0
2.990855735E1,-7.246079445E0,1.646342087E1,2.243486404E1
2.995855735E1,4.893965721E0,6.288043976E0,3.956642389E0
3.000855735E1,4.927389622E-1,1.062333488E1,8.754285812E0
3.005855735E1,3.786617279E0,6.337056160E0,2.121413231E0
3.010855735E1,1.660788918E1,-2.005406189E1,6.244792461E0
3.015855735E1,3.298482895E0,-4.332569504E1,-8.252899647E-1
3.020855735E1,-5.594919682E0,-3.974928379E0,-9.148139954E0
3.025855735E1,-5.202933788E0,1.156453133E1,-3.469618320E0
3.030855735E1,-9.711235046E0,9.069292068E0,-7.185271263E0
3.035855735E1,-6.289513111E0,1.293170357E1,-9.608177185E0
3.040855735E1,-4.144283772E0,1.015809441E1,-5.911540985E-1
3.045855735E1,-4.801331043E0,5.014533520E0,-1.138191223E1
3.050855735E1,-4.882061005E0,-1.639266491E0,-1.333037376E1
3.055855735E1,1.956288815E0,-2.751407623E1,-7.534434319E0
3.060855735E1,1.494954300E1,-1.834890747E1,-1.431751966E0
3.065855735E1,1.824713326E1,-4.738229752E0,-5.803777695E0
3.070855735E1,3.501298428E-1,5.101584435E0,5.814307213E0
3.075855735E1,-5.862826347E0,1.416898346E1,1.554477882E1
3.080855735E1,1.769804358E0,8.968953133E0,3.554775238E0
3.085855735E1,-7.016534805E-1,1.093604374E1,6.039327621E0
3.090855735E1,9.281753540E0,-3.292208672E0,5.629315853E0
3.095855735E1,1.392202950E1,-3.855131912E1,-6.583389759E0
3.100855735E1,-3.321850300E0,-1.804267883E1,-1.590361118E0
3.105855735E1,-2.134264469E0,6.329092503E0,-8.441406250E0
3.110855735E1,-3.966546535E0,1.094938469E1,-7.677455902E0
3.115855735E1,-3.501815796E0,1.227645874E1,-1.515827942E1
3.120855735E1,-3.720891953E0,1.036800194E1,-5.582599640E0
3.125855735E1,3.912290573E0,-8.415470123E0,3.930852509E1
3.130855735E1,-9.039710045E0,6.489131451E0,-3.475462675E0
3.135855735E1,-1.249678612E1,-2.835978508E1,-1.985504532E1
3.140855735E1,8.471847534E0,-2.354128265E1,-1.662914753E0
3.145855735E1,4.684688568E1,-1.558544827E1,4.082514954E1
3.150855735E1,8.530932426E0,2.721732616E0,2.133904457E0
3.155855735E1,-6.435288429E0,8.395389557E0,9.616723061E0
3.160855735E1,2.355507851E0,7.365464211E0,3.765838146E0
3.165855735E1,2.193005562E0,1.182882309E1,5.940048218E0
3.170855735E1,4.686951637E-3,1.037543678E1,4.555743217E0
3.175855735E1,1.229937553E1,-2.482998848E0,-4.006742954E0
3.180855735E1,1.365897083E1,-6.619686890E1,8.781461716E-1
3.185855735E1,-4.153553486E0,-1.504772377E1,-3.001301289E0
3.190855735E1,-3.309634686E0,1.119650650E1,-3.097771645E0
3.195855735E1,-5.920679569E0,1.164970970E1,-6.165419102E0
3.200855735E1,-7.075876236E0,1.154915047E1,-8.643939972E0
3.205855735E1,-5.270647526E0,1.074056053E1,-5.169884682E0
3.210855735E1,3.469841480E0,-4.327947140E0,6.826268673E0
3.215855735E1,-4.595948219E0,3.231024265E0,-5.118973255E0
3.220855735E1,-7.813746452E0,-3.449806213E1,-8.911576271E0
3.225855735E1,9.326822281E0,-1.437847996E1,-3.746830940E0
3.230855735E1,3.758780289E1,-9.981647491E0,5.630656815E1
3.235855735E1,1.057922602E0,1.719866753E0,6.311228275E0
3.240855735E1,-3.281389475E0,1.445733070E1,1.827695847E1
3.245855735E1,3.223834038E0,7.715667725E0,4.946555614E0
3.250855735E1,-2.494806528E0,1.104327393E1,5.090916634E0
3.255855735E1,-7.005153894E-1,7.845969677E0,3.223859310E0
3.260855735E1,1.497934914E1,-9.471905708E0,-1.832173586E0
3.265855735E1,7.830481529E0,-5.161029434E1,-1.203665972E0
3.270855735E1,-5.993839264E0,-1.353361702E1,-6.951308250E0
3.275855735E1,-3.736462593E0,8.497925758E0,-5.718913555E0
3.280855735E1,-7.513095379E0,1.047657204E1,-7.352189064E0
3.285855735E1,-6.656423569E0,1.217089272E1,-1.044987488E1
3.290855735E1,-4.308106899E0,1.202596855E1,-5.260072231E0
3.295855735E1,-2.583354712E0,-4.636502266E-1,-6.691557884E0
3.300855735E1,-7.510557175E0,6.173193932E0,-5.432034016E0
3.305855735E1,-7.145719528E0,-3.794114304E1,-1.760881042E1
3.310855735E1,7.065753460E0,-1.621042633E1,3.367485762E0
3.315855735E1,4.476263046E1,-4.271970749E0,3.681473541E1
3.320855735E1,5.566899776E0,5.358859062E0,1.043027782E1
3.325855735E1,-3.207959175E0,1.537718773E1,1.539068317E1
3.330855735E1,4.247946739E0,7.690264702E0,9.874500275E0
3.335855735E1,-4.292382717E0,8.222331047E0,4.677478790E0
3.340855735E1,9.101333618E-1,4.760280132E0,1.223220706E0
3.345855735E1,1.799938202E1,-1.661075592E1,3.604027748E0
3.350855735E1,7.051234722E0,-3.895951462E1,4.479215145E-1
3.355855735E1,-6.080234528E0,-6.686386108E0,-8.442250252E0
3.360855735E1,-4.487429619E0,1.157859516E1,-4.974660397E0
3.365855735E1,-8.185593605E0,8.548728943E0,-9.873652458E0
3.370855735E1,-6.051264763E0,1.323599052E1,-1.254077721E1
3.375855735E1,-4.356973171E0,1.029293442E1,-2.002182961E0
3.380855735E1,-2.902475834E0,2.684677601E0,-1.837977600E1
3.385855735E1,-9.027215958E0,-1.657610130E1,-1.102905750E1
3.390855735E1,-7.427358627E-1,-2.062304115E1,-5.649589062E0
3.395855735E1,1.568207836E1,-1.543727684E1,-4.203211665E-1
3.400855735E1,1.769103432E1,1.781054497E0,-7.256771088E0
3.405855735E1,-6.510777473E0,8.149662971E0,1.448200417E1
3.410855735E1,3.086609364E0,6.933273792E0,3.631212711E0
3.415855735E1,3.189772129E0,1.096965599E1,8.246092796E0
3.420855735E1,-1.568938255E0,1.045843124E1,7.166186333E0
3.425855735E1,7.927552223E0,1.637405396E0,-2.225688934E0
3.430855735E1,1.919565201E1,-3.749748611E1,1.051689243E1
3.435855735E1,-1.101560593E-1,-2.693455505E1,1.923874140E0
3.440855735E1,-3.339665413E0,1.972337246E0,-5.900687218E0
3.445855735E1,-4.857739925E0,1.096611404E1,-5.708347321E0
3.450855735E1,-8.714115143E0,8.271385193E0,-9.369665146E0
3.455855735E1,-6.140519142E0,1.102405834E1,-7.796548843E0
3.460855735E1,4.748431206E0,1.189453602E0,5.449799347E1
3.465855735E1,-5.345767498E0,4.081123829E0,-1.161091995E1
3.470855735E1,-1.753599930E1,-2.788621902E1,-1.445993042E1
3.475855735E1,3.158925056E0,-1.500895691E1,-2.427726746E0
3.480855735E1,3.735648727E1,-2.809271049E1,-1.106934738E1
3.485855735E1,1.342541313E1,3.187878609E0,7.915128708E0
3.490855735E1,-8.054969788E0,1.209948921E1,9.530447960E0
3.495855735E1,4.800222397E0,9.097966194E0,4.097596169E0
3.500855735E1,2.107419491E0,9.937468529E0,5.224039078E0
3.505855735E1,-2.597998142E0,9.758100510E0,5.176980972E0
3.510855735E1,9.377201080E0,-7.491111755E-3,-6.964874744E0
3.515855735E1,1.723547363E1,-3.449402237E1,1.216779900E1
3.520855735E1,-3.017376184E0,-2.269467163E1,-1.953606248E0
3.525855735E1,-1.110870361E0,5.251925468E0,-4.825827122E0
3.530855735E1,-4.827719212E0,1.023200607E1,-6.139331818E0
3.535855735E1,-9.601537704E0,7.994453430E0,-1.164046955E1
3.540855735E1,-8.286211967E0,1.125998878E1,-6.568710327E0
3.545855735E1,1.062358856E0,2.908130646E0,2.876682663E1
3.550855735E1,-4.620620728E0,4.263636112E0,-1.348645496E1
3.555855735E1,-1.065962696E1,-2.256449127E1,-2.438436127E1
3.560855735E1,4.488113403E0,-2.124043846E1,-5.390500069E0
3.565855735E1,4.062472153E1,-2.685833168E1,1.409142017E0
3.570855735E1,1.155110741E1,3.584444046E0,8.704149246E0
3.575855735E1,-5.340014935E0,6.332255363E0,-5.115468979E0
3.580855735E1,3.063902855E0,9.079328537E0,3.949444056E0
3.585855735E1,3.267079115E0,1.178335476E1,8.642841339E0
3.590855735E1,-2.665805817E0,1.147515965E1,4.690556049E0
3.595855735E1,7.062424183E0,1.390597343E0,-3.300314426E0
3.600855735E1,2.210418701E1,-3.385868073E1,1.052339745E1
3.605855735E1,-7.148122787E-2,-2.600934982E1,-1.360151768E-1
3.610855735E1,-2.417403698E0,4.925333977E0,-3.928212643E0
3.615855735E1,-5.766666412E0,9.137596130E0,-6.556080341E0
3.620855735E1,-8.263128281E0,8.786548615E0,-1.121561050E1
3.625855735E1,-5.152745247E0,1.153422546E1,-4.924609184E0
3.630855735E1,4.379836559E0,3.293557167E0,2.068477631E1
3.635855735E1,-4.209372520E0,4.633440971E0,-1.063459206E1
3.640855735E1,-8.199699402E0,-3.662632370E1,-1.579358292E1
3.645855735E1,4.177447796E0,-1.589448452E1,1.723695755E0
3.650855735E1,2.550208473E1,-1.485636520E1,5.467011452E0
3.655855735E1,8.274040222E0,2.864404202E0,2.102368116E0
3.660855735E1,-6.292276382E0,7.150555611E0,3.649463415E0
3.665855735E1,5.573137760E0,6.490194798E0,7.946584225E0
3.670855735E1,2.355882406E0,1.075212288E1,7.753100395E0
3.675855735E1,-4.331610203E-1,1.087156391E1,4.448680401E0
3.680855735E1,1.015069389E1,-1.956842422E0,-3.402164698E0
3.685855735E1,5.747873306E0,-5.743540955E1,-1.298061848E0
3.690855735E1,-3.167684793E0,-1.706636047E1,-4.385006428E0
3.695855735E1,9.841871262E-1,5.503715038E0,-7.787929058E0
3.700855735E1,-3.755397081E0,9.956612587E0,-4.835692883E0
3.705855735E1,-7.166704178E0,7.290237904E0,-6.612020493E0
3.710855735E1,-4.258891106E0,1.142274952E1,-5.027945518E0
3.715855735E1,3.405767918E0,7.708908558E0,1.812070274E1
3.720855735E1,-6.620563030E0,5.973356247E0,-5.221640587E0
3.725855735E1,-8.935519218E0,-1.427293873E1,-8.224536896E0
3.730855735E1,4.057509422E0,-1.700256729E1,4.656957984E-1
3.735855735E1,1.846008682E1,-1.458620071E1,-8.986273766E0
3.740855735E1,1.472343540E1,-1.888980865E0,2.372130013E1
3.745855735E1,-2.157370806E0,4.553903580E0,1.553251863E0
3.750855735E1,4.342860222E0,1.281939125E1,1.003828812E1
3.755855735E1,3.465709209E0,9.742381096E0,-1.182455063E0
3.760855735E1,2.342446566E0,1.388037682E1,8.046010017E0
3.765855735E1,4.720006943E0,4.052402496E0,8.162249923E-1
3.770855735E1,1.815960884E1,-2.441468430E1,6.471672535E0
3.775855735E1,3.028173447E-1,-3.253420258E1,3.273513079E0
3.780855735E1,-4.774379730E0,5.572052002E-1,-6.619242668E0
3.785855735E1,-5.446182728E0,1.068074608E1,-4.854190826E0
3.790855735E1,-9.076420784E0,7.659374237E0,-7.016305447E0
3.795855735E1,-4.314406872E0,9.518571854E0,-3.981857300E0
3.800855735E1,-2.401453495E0,8.156088829E0,1.247624874E1
3.805855735E1,-5.797241688E0,5.718423367E0,-1.028745651E1
3.810855735E1,-8.226680756E0,-1.547699165E1,-4.946250916E0
3.815855735E1,1.184329987E0,-1.643852806E1,3.740680456E0
3.820855735E1,2.321833420E1,-1.352287292E1,-5.776401043E0
3.825855735E1,2.546091652E1,-7.132282257E-1,3.558699036E1
3.830855735E1,5.473350525E0,4.552834511E0,5.036005020E0
3.835855735E1,2.241783619E0,1.194994545E1,1.504455376E1
3.840855735E1,3.225433350E0,1.115678120E1,2.615008593E0
3.845855735E1,-2.099014759E0,1.253897285E1,4.092725754E0
3.850855735E1,3.691842079E0,8.577089310E0,1.360522628E0
3.855855735E1,1.548376846E1,-1.699162102E1,4.479246140E0
3.860855735E1,2.548110008E0,-3.499443817E1,3.588502169E0
3.865855735E1,-2.617207050E0,-1.336781979E0,-6.598119736E0
3.870855735E1,-4.231878281E0,9.996709824E0,-4.355297089E0
3.875855735E1,-9.319679260E0,7.561331272E0,-8.600831985E0
3.880855735E1,-5.094798088E0,1.194888496E1,-4.396209717E0
3.885855735E1,1.269555092E-1,1.076495361E1,1.990046120E1
3.890855735E1,-4.413375854E0,5.742301941E0,-1.265031910E1
3.895855735E1,-1.054378605E1,-1.123849678E1,-1.017466164E1
3.900855735E1,-7.626318932E-1,-1.894113159E1,-1.007591009E0
3.905855735E1,1.320051098E1,-1.497178268E1,-7.959365368E0
3.910855735E1,2.822395897E1,-2.395654678E0,3.802014160E1
3.915855735E1,3.925512791E0,5.079516411E0,1.184803963E1
3.920855735E1,1.948614717E-1,1.288566971E1,1.388865852E1
3.925855735E1,3.580927849E0,1.058164024E1,2.456208944E0
3.930855735E1,2.293607950E0,1.474534512E1,8.044059753E0
3.935855735E1,3.924144268E0,6.931361198E0,1.525875568E0
3.940855735E1,1.307713699E1,-2.048783684E1,8.652713776E0
3.945855735E1,-3.111639023E-1,-5.063973999E1,5.655453682E0
3.950855735E1,-5.220145226E0,-4.587163448E0,-6.677562237E0
3.955855735E1,-3.284287453E0,9.527342796E0,-4.576917648E0
3.960855735E1,-8.101951599E0,9.869048119E0,-8.837003708E0
3.965855735E1,-4.433952808E0,1.023258400E1,-8.325972557E0
3.970855735E1,3.215937614E-1,9.993875504E0,2.561895752E1
3.975855735E1,1.245605946E0,1.390141010E0,-8.925598145E0
3.980855735E1,-5.607880592E0,-5.331313133E0,-1.019690037E1
3.985855735E1,-2.174561501E0,-1.995544052E1,-5.661874771E0
3.990855735E1,1.721394539E0,-1.197266865E1,5.276733637E-2
3.995855735E1,9.734182358E0,-1.647996902E1,6.827237129E0
4.000855735E1,6.384287834E0,4.767646790E-1,6.451463699E0
4.005855735E1,1.481529474E-1,1.032259750E1,5.924625397E0
4.010855735E1,3.509619713E0,1.062204075E1,9.013759613E0
4.015855735E1,1.891496539E0,1.045109272E1,2.006135464E0
4.020855735E1,-1.280584335E-1,7.387390137E-1,7.742154121E0
4.025855735E1,6.603821278E0,-2.357258606E1,-3.172480464E-1
4.030855735E1,6.845721722E0,-1.938858032E1,5.118768692E0
4.035855735E1,-3.215029955E0,-1.380070400E1,-5.042580128E0
4.040855735E1,-2.353091240E0,2.534294605E0,-6.349381447E0
4.045855735E1,-4.524990559E0,9.455848694E0,-8.407485008E0
4.050855735E1,1.696204424E0,1.435819340E1,-1.075041962E1
4.055855735E1,2.266607761E0,1.041608238E1,-2.425341129E0
4.060855735E1,-2.992128849E0,-4.729594231E0,1.324537468E1
4.065855735E1,-1.063865471E1,-9.746482849E0,-2.707787514E0
4.070855735E1,1.017994881E-1,-2.813449860E0,-3.389246464E0
4.075855735E1,-8.760142326E-1,-1.174046993E1,-5.627267361E0
4.080855735E1,1.274185181E1,-1.314377975E1,-5.191885948E0
4.085855735E1,1.246751118E1,-5.600633621E0,2.127711678E1
4.090855735E1,4.168699741E0,5.969257355E0,3.261273861E0
4.095855735E1,3.330006361E0,9.740969658E0,7.415527344E0
4.100855735E1,2.621788025E0,1.455142212E1,4.920162678E0
4.105855735E1,2.134907484E0,7.954162121E0,5.750917196E-1
4.110855735E1,-4.846189022E-1,-1.745654297E1,1.075729656E1
4.115855735E1,-4.892098427E0,-2.896074104E1,-1.379575253E0
4.120855735E1,4.667289257E0,-1.905088425E-1,-3.318345308E0
4.125855735E1,5.729479790E-1,5.574792862E0,-1.087808371E0
4.130855735E1,-3.366758347E0,7.133043289E0,-5.519909859E0
4.135855735E1,-7.079422474E-2,1.536263657E1,-7.973001480E0
4.140855735E1,-1.648959398E0,1.115453529E1,2.943884850E0
4.145855735E1,-7.173715115E0,-2.119238377E0,-8.190984726E0
4.150855735E1,-7.106880665E0,-4.472212791E0,-1.185014248E1
4.155855735E1,-2.247034311E-1,-1.825580788E1,-1.543232918E0
4.160855735E1,9.674354553E0,-7.414266586E0,5.071029663E0
4.165855735E1,9.353049278E0,-4.500646591E0,8.114876747E0
4.170855735E1,5.116518736E-1,4.768913269E0,2.887027264E0
4.175855735E1,2.512313843E0,1.046698570E1,3.041977167E0
4.180855735E1,7.761054993E0,1.544686317E1,6.475674629E0
4.185855735E1,-1.424357533E0,5.229227066E0,2.804248333E0
4.190855735E1,-2.284900665E0,-1.546630478E1,6.843167782E0
4.195855735E1,2.740822315E0,-3.128213882E1,-2.347881079E0
4.200855735E1,-5.509324074E-1,-1.206735420E1,1.068600416E0
4.205855735E1,-1.825318336E-1,1.513715744E0,-3.972780704E-1
4.210855735E1,-3.941978455E0,8.322697639E0,-5.644886494E0
4.215855735E1,-2.561573505E0,1.306051445E1,-9.971976280E0
4.220855735E1,-2.028481722E0,1.241330242E1,-5.722284794E0
4.225855735E1,5.082762241E-1,3.306502342E0,1.422780228E1
4.230855735E1,-5.438094139E0,-7.937198162E0,-1.073977470E1
4.235855735E1,-6.220243454E0,-1.963361359E1,-9.099605083E-1
4.240855735E1,4.660196781E0,-3.047127724E0,-1.343830824E-1
4.245855735E1,1.030505753E1,-8.546360016E0,4.358760834E0
4.250855735E1,2.881836414E0,-3.090415001E0,1.062706184E1
4.255855735E1,-1.569720864E0,6.008103848E0,7.485934258E0
4.260855735E1,2.054345369E0,8.600587845E0,3.662007332E0
4.265855735E1,6.007006168E0,1.553098297E1,4.477556229E0
4.270855735E1,1.301054001E0,6.011688232E0,3.435424328E0
4.275855735E1,5.347178459E0,-1.322477436E1,7.280869961E0
4.280855735E1,9.160313606E-1,-3.396779633E1,-3.928895950E0
4.285855735E1,-5.801205635E-1,-9.173579216E0,-1.928624153E0
4.290855735E1,1.906538010E0,4.080362797E0,-4.805474758E0
4.295855735E1,-6.304032326E0,8.024065018E0,-5.941094875E0
4.300855735E1,-5.241399288E0,1.037979889E1,-6.527880669E0
4.305855735E1,-2.305467606E0,1.261666679E1,-7.950325012E0
4.310855735E1,2.067387104E0,3.493036270E0,1.796893120E1
4.315855735E1,-6.569577217E0,5.419553757E0,-2.698552132E0
4.320855735E1,-6.972394943E0,-2.183180237E1,-1.342513943E1
4.325855735E1,7.416789532E0,-1.970007706E1,-1.093514442E0
4.330855735E1,1.467420578E1,-1.768519592E1,-7.746665001E0
4.335855735E1,2.980563641E0,-1.009062767E0,-1.259782314E-1
4.340855735E1,-5.394146442E0,1.096964645E1,1.506537437E1
4.345855735E1,5.032492161E0,6.472869873E0,3.651264429E0
4.350855735E1,2.150932789E0,1.000355434E1,1.080532074E-1
4.355855735E1,3.120022058E0,1.092335701E1,6.029723167E0
4.360855735E1,1.039578247E1,-1.701497078E0,6.069075465E-1
4.365855735E1,7.412877083E0,-5.551026154E1,-5.599784851E-2
4.370855735E1,-3.338568926E0,-1.513058662E1,-3.502791643E0
4.375855735E1,-1.703519821E-1,5.416485310E0,-5.442255020E0
4.380855735E1,-4.176895142E0,7.950985432E0,-4.862451553E0
4.385855735E1,-6.205903530E0,7.911289215E0,-4.967345238E0
4.390855735E1,-2.828276634E0,1.240995693E1,-7.371698380E0
4.395855735E1,4.336251259E0,5.089808941E0,3.008131790E1
4.400855735E1,-5.898634911E0,5.571498871E0,-6.333136559E0
4.405855735E1,-1.091571712E1,-2.368618393E1,-1.500829887E1
4.410855735E1,3.140865326E0,-1.697025108E1,3.350795507E-1
4.415855735E1,2.337365532E1,-1.695004272E1,-8.732231140E0
4.420855735E1,8.906411171E0,7.040443420E-1,1.332692623E0
4.425855735E1,-4.884923458E0,7.271684647E0,9.797930717E0
4.430855735E1,2.769291401E0,8.655950546E0,3.273318291E0
4.435855735E1,2.036078691E0,1.453984451E1,3.074475050E0
4.440855735E1,2.130420446E0,1.006716919E1,2.960580587E0
4.445855735E1,1.193883991E1,-9.006679535E0,3.605273247E0
4.450855735E1,1.995520115E0,-5.277042389E1,-1.361407399E0
4.455855735E1,-5.974375725E0,-1.045345688E1,-6.265942097E0
4.460855735E1,-3.358459949E0,7.529871941E0,-5.421991825E0
4.465855735E1,-7.656145096E0,9.430367470E0,-5.987355232E0
4.470855735E1,-4.163912296E0,1.059970570E1,-4.491685867E0
4.475855735E1,-2.450656652E0,1.020040703E1,-1.558082700E0
4.480855735E1,-4.182142258E0,6.055401802E0,-1.301580238E1
4.485855735E1,-5.632056713E0,3.809229136E0,-7.318112373E0
4.490855735E1,-2.405315876E0,-3.095005798E1,-1.130830193E1
4.495855735E1,9.720020294E0,-1.649856186E1,-8.136945963E-1
4.500855735E1,2.734121513E1,-3.837328911E0,6.121195602E1
4.505855735E1,-1.556070805E0,1.887383938E0,8.434521675E0
4.510855735E1,-1.083357096E0,1.342989063E1,1.316834736E1
4.515855735E1,4.060831547E0,8.461525917E0,2.993710756E0
4.520855735E1,2.491894245E0,1.426715279E1,1.004932499E1
4.525855735E1,4.438399315E0,3.331334591E0,2.796214342E0
4.530855735E1,1.648883057E1,-2.006087494E1,4.510662079E0
4.535855735E1,-8.648042679E-1,-3.284728241E1,5.107448578E0
4.540855735E1,-2.021455288E0,-1.508747578E0,-7.035425186E0
4.545855735E1,-3.183402300E0,8.819718361E0,-3.858314753E0
4.550855735E1,-7.775174618E0,7.900181293E0,-6.204168320E0
4.555855735E1,-3.593196869E0,1.231033230E1,-4.660342216E0
4.560855735E1,-1.678471327E0,8.908492088E0,1.610580826E1
4.565855735E1,-4.446845531E0,6.051665783E0,-1.842917061E1
4.570855735E1,-7.611777306E0,-1.484873772E0,-7.708905697E0
4.575855735E1,-3.558118343E0,-2.602743912E1,-4.088599682E0
4.580855735E1,1.411496544E1,-1.509436607E1,-9.271569252E0
4.585855735E1,2.738425827E1,-1.512324333E0,3.678816223E1
4.590855735E1,9.189637899E-1,2.573437691E0,9.240665436E0
4.595855735E1,-1.064643264E0,1.336308861E1,1.469850445E1
4.600855735E1,2.555700779E0,9.548410416E0,2.912953377E0
4.605855735E1,2.549405575E0,1.572884655E1,8.317647934E0
4.610855735E1,2.679390907E0,6.393413067E0,3.906663656E0
4.615855735E1,1.769121361E1,-1.876615143E1,7.358113289E0
4.620855735E1,4.205692768E0,-4.425307465E1,2.508844376E0
4.625855735E1,-2.313934326E0,-1.970251560E0,-5.827807903E0
4.630855735E1,-6.795352459E0,8.411569595E0,-3.805635452E0
4.635855735E1,-9.658730507E0,8.386946678E0,-5.806409836E0
4.640855735E1,-4.603790760E0,1.152686882E1,-3.441533566E0
4.645855735E1,-1.030192137E0,1.179158211E1,8.203500748E0
4.650855735E1,-5.478799820E0,5.029818535E0,-1.466609573E1
4.655855735E1,-7.215975285E0,-2.793103218E0,-8.516363144E0
4.660855735E1,-3.097311258E0,-2.515840912E1,-5.127840042E0
4.665855735E1,1.183763695E1,-1.793276596E1,-2.633789778E0
4.670855735E1,2.155835342E1,6.196908951E-1,8.535589218E0
4.675855735E1,-6.049370766E-1,3.898245811E0,7.998301983E0
4.680855735E1,-3.519178391E0,1.365616608E1,1.457487106E1
4.685855735E1,3.928327084E0,8.456729889E0,3.179357052E0
4.690855735E1,1.525316358E0,1.348303986E1,5.634626389E0
4.695855735E1,2.501749039E0,1.115608597E1,4.968547344E0
4.700855735E1,1.628529549E1,-1.400981045E1,4.384854317E0
4.705855735E1,1.935050488E0,-5.707022095E1,2.617525339E0
4.710855735E1,-4.379202843E0,-7.765535831E0,-5.408635616E0
4.715855735E1,-4.322408199E0,8.949327469E0,-4.103981972E0
4.720855735E1,-7.975862026E0,1.073995399E1,-6.896933079E0
4.725855735E1,-4.745505333E0,1.288092327E1,-5.324447632E0
4.730855735E1,-2.583906889E0,1.234078217E1,-3.903287172E0
4.735855735E1,2.611943007E0,4.263687134E-2,1.216006279E0
4.740855735E1,-5.594910622E0,6.527818680E0,-6.819019318E0
4.745855735E1,-5.462668419E0,-3.420376205E1,-1.472545624E1
4.750855735E1,5.762170792E0,-1.443965721E1,-1.481243610E0
4.755855735E1,2.216628647E1,-1.535679340E1,2.578970432E0
4.760855735E1,5.516518593E0,-9.896373749E-2,8.131926537E0
4.765855735E1,1.588737369E0,7.301589966E0,2.979298592E0
4.770855735E1,4.902445316E0,8.581400871E0,4.571804523E0
4.775855735E1,4.428600073E-1,1.315977097E1,4.915111065E-1
4.780855735E1,1.289544702E0,1.353690815E1,4.338562489E0
4.785855735E1,7.756588936E0,-3.759984970E-1,7.740766406E-1
4.790855735E1,9.188130379E0,-6.502886200E1,-1.080626678E1
4.795855735E1,-2.487262487E0,-1.153661537E1,-2.478500605E0
4.800855735E1,-3.154327869E0,7.545754910E0,-3.571636915E0
4.805855735E1,-7.428801537E0,9.100566864E0,-5.675898552E0
4.810855735E1,-6.479578972E0,1.096398640E1,-5.215733528E0
4.815855735E1,-3.988656044E0,1.179136848E1,-5.665719986E0
4.820855735E1,1.672919035E0,2.773551464E0,9.452532768E0
4.825855735E1,-6.775671482E0,3.571366310E0,-5.917654991E0
4.830855735E1,-7.876712799E0,-3.084164810E1,-1.465380669E1
4.835855735E1,1.051137733E1,-1.683616257E1,2.724879026E0
4.840855735E1,3.541870880E1,-1.722129059E1,7.862384796E1
4.845855735E1,3.879051924E0,1.730720997E0,-5.535173416E-1
4.850855735E1,-6.085095882E0,1.334558201E1,1.065040112E1
4.855855735E1,4.703768253E0,8.075886726E0,3.574964523E0
4.860855735E1,2.126469612E0,1.341007423E1,5.912856102E0
4.865855735E1,6.129792929E-1,9.131718636E0,4.657573223E0
4.870855735E1,1.301797295E1,-7.197521210E0,4.664997458E-1
4.875855735E1,1.050849915E1,-5.218888855E1,-6.419885159E0
4.880855735E1,-3.004953623E0,-1.177862167E1,-2.097156763E0
4.885855735E1,-2.766683102E0,6.283686161E0,-4.768409729E0
4.890855735E1,-7.168322563E0,8.147955894E0,-6.278262138E0
4.895855735E1,-6.479223251E0,1.099466133E1,-6.831250191E0
4.900855735E1,-3.298636913E0,1.181054497E1,-4.794388771E0
4.905855735E1,1.230964661E-1,1.716281414E0,2.163286686E0
4.910855735E1,-7.395664692E0,-2.247147560E-1,-6.154030800E0
4.915855735E1,-7.236078262E0,-2.386952782E1,-8.574587822E0
4.920855735E1,6.467141151E0,-1.462782097E1,-1.611636758E0
4.925855735E1,3.604563904E1,-5.531090736E0,4.109166718E1
4.930855735E1,1.507641315E0,2.434935570E0,1.253173542E1
4.935855735E1,-2.277757645E0,1.080045033E1,8.174313545E0
4.940855735E1,2.808406353E0,8.332874298E0,3.575344086E0
4.945855735E1,1.166656971E0,1.535395050E1,4.821716785E0
4.950855735E1,-7.375478745E-3,8.613653183E0,5.303300858E0
4.955855735E1,1.350666428E1,-1.689135742E1,1.040166092E1
4.960855735E1,6.486011028E0,-4.380725479E1,4.616795063E0
4.965855735E1,-3.911637068E0,-5.132930756E0,-5.898481369E0
4.970855735E1,-4.943218231E0,9.514410019E0,-3.911275864E0
4.975855735E1,-8.393975258E0,9.223594666E0,-7.478644371E0
4.980855735E1,-5.719023705E0,1.299143982E1,-6.353314400E0
4.985855735E1,-2.311492443E0,1.151339912E1,1.006537151E1
4.990855735E1,-3.746847153E0,4.382071972E0,-1.759490395E1
4.995855735E1,-9.614001274E0,-7.322741985E0,-9.703941345E0
5.000855735E1,-1.853599548E-1,-2.345136261E1,2.454674244E0
5.005855735E1,1.386793423E1,-1.530986214E1,-7.058998585E0
5.010855735E1,2.259901810E1,-3.412096024E0,2.802383995E1
5.015855735E1,1.060299039E0,2.456815720E0,5.580093384E0
5.020855735E1,6.539480090E-1,1.273337078E1,1.151911640E1
5.025855735E1,3.106409311E0,9.755272865E0,1.975914717E0
5.030855735E1,8.386687040E-1,1.386970520E1,7.591092110E0
5.035855735E1,4.052394867E0,4.024615288E0,1.735605240E0
5.040855735E1,1.888350105E1,-2.512287521E1,8.528231621E0
5.045855735E1,-2.496027946E-1,-3.238781738E1,3.048346996E0
5.050855735E1,-1.923993587E0,1.957416534E-1,-6.295618534E0
5.055855735E1,-3.562739611E0,1.094138050E1,-5.446105480E0
5.060855735E1,-6.677083015E0,9.678013802E0,-1.036785221E1
5.065855735E1,-4.539710045E0,1.197454643E1,-5.457887650E0
5.070855735E1,7.075095177E-1,2.117944717E0,2.550045204E1
5.075855735E1,-6.439513206E0,7.477654457E0,-1.962562180E1
5.080855735E1,-8.922540665E0,-1.038868523E1,-9.287006378E0
5.085855735E1,4.549052238E0,-2.357375336E1,-7.679773331E0
5.090855735E1,1.955289459E1,-2.100323868E1,-1.630991173E1
5.095855735E1,1.251986408E1,1.441602707E0,-2.604086399E0
5.100855735E1,-3.792484760E0,7.851386070E0,7.989087105E0
5.105855735E1,3.764429092E0,1.210246372E1,5.320292950E0
5.110855735E1,1.828138351E0,9.276933670E0,2.557973862E0
5.115855735E1,6.333284378E-1,1.176315498E1,5.022893906E0
5.120855735E1,9.821326256E0,-1.951894760E-1,8.661962152E-1
5.125855735E1,1.288961601E1,-3.421398926E1,2.871212482E0
5.130855735E1,-3.472489834E0,-2.570346451E1,4.629826546E-1
5.135855735E1,-1.277612686E0,3.906594753E0,-6.324028492E0
5.140855735E1,-2.741383076E0,1.154337120E1,-3.387113333E0
5.145855735E1,-6.506164551E0,8.283680916E0,-6.935752869E0
5.150855735E1,-1.781129003E0,1.310274506E1,-9.337141037E0
5.155855735E1,-1.325510979E0,9.870704651E0,-3.911345959E0
5.160855735E1,-8.706910133E0,1.052541256E0,2.193372154E1
5.165855735E1,-1.024668598E1,-1.677711678E1,-1.147731972E1
5.170855735E1,3.305326462E0,-2.164505577E1,2.776485682E0
5.175855735E1,1.559157753E1,-1.300386333E1,-5.127017021E0
5.180855735E1,1.670848846E1,4.999065399E-1,7.353823662E0
5.185855735E1,-1.460473061E0,2.358390808E0,9.608549118E0
5.190855735E1,1.060950875E0,1.159967422E1,1.478621292E1
5.195855735E1,2.095487833E0,9.320408821E0,1.944840431E0
5.200855735E1,1.083357692E0,1.397686291E1,4.168282986E0
5.205855735E1,7.854874611E0,3.940477371E-1,1.751435280E0
5.210855735E1,1.677252579E1,-3.683524704E1,3.006052256E0
5.215855735E1,-9.739975929E-1,-2.525086021E1,3.003540039E-1
5.220855735E1,-2.430073261E0,4.647500515E0,-5.646105766E0
5.225855735E1,-7.129480839E0,9.914091110E0,-6.422076225E0
5.230855735E1,-8.915988922E0,9.789438248E0,-7.410442829E0
5.235855735E1,-4.599056244E0,1.201813793E1,-3.483171225E0
5.240855735E1,3.353902817E0,3.611315250E0,1.638056564E1
5.245855735E1,-3.639664888E0,6.503291130E0,-1.147909927E1
5.250855735E1,-5.031870842E0,-3.872979355E1,-1.469549656E1
5.255855735E1,6.839608192E0,-1.800979424E1,3.964267731E0
5.260855735E1,2.447556305E1,-1.205252171E1,5.471258545E1
5.265855735E1,4.908687592E0,1.127573013E0,-1.178542852E0
5.270855735E1,-5.192179680E0,1.031497955E1,1.190483665E1
5.275855735E1,6.747234821E0,6.910084724E0,6.964075089E0
5.280855735E1,1.934161186E0,9.282050133E0,3.092140436E0
5.285855735E1,-2.395113230E0,1.086591625E1,4.403125763E0
5.290855735E1,1.204179001E1,-1.997110367E0,-3.796562433E0
5.295855735E1,4.674192429E0,-6.245341492E1,-1.027543545E-1
5.300855735E1,-4.038425446E0,-1.629870033E1,-6.948554039E0
5.305855735E1,-1.383557796E0,6.161594868E0,-6.642372131E0
5.310855735E1,-2.912414074E0,1.036622047E1,-8.509881973E0
5.315855735E1,-7.341581345E0,9.729496956E0,-9.965316772E0
5.320855735E1,-5.751361847E0,1.064287090E1,-6.457684517E0
5.325855735E1,-3.587164879E-1,-6.005005836E-1,1.806833267E1
5.330855735E1,-5.956356525E0,9.327317238E0,-9.823009491E0
5.335855735E1,-6.961138725E0,-1.072745705E1,-1.059089279E1
5.340855735E1,7.417649269E0,-2.355172729E1,4.817669392E-1
5.345855735E1,2.097533798E1,-1.865527153E1,-4.532930374E0
5.350855735E1,1.433899307E1,1.203838348E0,1.775367928E1
5.355855735E1,2.182360888E-1,5.324099541E0,4.189259529E0
5.360855735E1,3.450803995E0,9.418950081E0,7.049979687E0
5.365855735E1,2.154142857E0,1.296072197E1,4.216365814E-1
5.370855735E1,5.822455883E0,1.614152145E1,3.439905643E0
5.375855735E1,5.011352539E0,3.430638790E0,7.614573240E-1
5.380855735E1,1.572068024E1,-2.862652588E1,7.670705318E0
5.385855735E1,-5.586633682E-1,-2.699553680E1,2.224442959E0
5.390855735E1,-2.213855982E0,2.521411896E0,-4.722486973E0
5.395855735E1,-5.243801117E0,8.479839325E0,-5.129477978E0
5.400855735E1,-7.509117603E0,9.055809021E0,-7.037513733E0
5.405855735E1,-3.339164972E0,1.320796776E1,-5.958659172E0
5.410855735E1,2.841484070E0,6.902569771E0,2.162396622E1
5.415855735E1,-7.598431110E0,7.566628456E0,-9.985521317E0
5.420855735E1,-9.156288147E0,-2.077204895E1,-6.258085728E0
5.425855735E1,4.699968338E0,-2.300210381E1,-3.330305338E0
5.430855735E1,2.008470726E1,-1.787690735E1,-4.340494156E0
5.435855735E1,1.510327911E1,2.362383842E0,-1.156999588E0
5.440855735E1,-2.692835808E0,5.555102825E0,1.137770844E1
5.445855735E1,3.000835180E0,1.189016533E1,7.660519600E0
5.450855735E1,2.293046474E0,9.527028084E0,2.963711262E0
5.455855735E1,-1.410112739E0,1.279212952E1,5.915788174E0
5.460855735E1,6.397782326E0,2.118947029E0,-1.636537760E-1
5.465855735E1,1.751588821E1,-3.391734314E1,9.076251984E0
5.470855735E1,1.580091953E0,-2.878214264E1,-8.981070518E-1
5.475855735E1,-2.005607605E0,4.906644821E-1,-6.596940517E0
5.480855735E1,-4.551250935E0,9.165763855E0,-3.762658119E0
5.485855735E1,-8.745622635E0,8.223956108E0,-5.968803406E0
5.490855735E1,-4.306168556E0,1.220821857E1,-4.395382881E0
5.495855735E1,1.548866987E0,9.232757568E0,2.668406296E1
5.500855735E1,-7.016909599E0,7.109574318E0,-9.406652451E0
5.505855735E1,-8.836017609E0,-1.197794914E1,-6.581049442E0
5.510855735E1,2.697549343E0,-2.533806992E1,-8.756672859E0
5.515855735E1,2.024897194E1,-1.831740570E1,-1.319233418E1
5.520855735E1,1.786864090E1,6.089119434E0,4.084800243E0
5.525855735E1,-1.463263392E0,3.861200333E0,5.511279106E0
5.530855735E1,-1.860955238E0,1.177567005E1,1.159862900E1
5.535855735E1,3.657505035E0,8.911919594E0,2.401318550E0
5.540855735E1,1.329769135E0,1.336681175E1,3.159999132E0
5.545855735E1,6.147450447E0,4.487036228E0,1.427239537E0
5.550855735E1,2.005094528E1,-2.972153854E1,5.814358711E0
5.555855735E1,3.210152149E0,-3.149240494E1,2.107312918E0
5.560855735E1,-1.881244659E0,6.356906891E-2,-5.812437534E0
5.565855735E1,-5.675049305E0,7.785947323E0,-6.531765461E0
5.570855735E1,-8.227846146E0,9.956191063E0,-1.011438560E1
5.575855735E1,-5.337132454E0,1.305850792E1,-6.197536469E0
5.580855735E1,6.422867775E-1,8.548134804E0,2.532877350E1
5.585855735E1,-5.919936180E0,7.085202217E0,-1.605665970E1
5.590855735E1,-6.664251328E0,7.040386200E-1,-7.406690598E0
5.595855735E1,-7.949151993E-1,-2.439918518E1,-9.802092552E0
5.600855735E1,1.748080635E1,-2.221789932E1,5.483118534E0
5.605855735E1,2.779931259E1,-1.038700104E0,1.755717278E1
5.610855735E1,2.335721254E-1,3.847754002E0,5.374272823E0
5.615855735E1,-4.231772423E0,1.324657345E1,1.167668056E1
5.620855735E1,3.831518650E0,1.094067383E1,3.462343216E0
5.625855735E1,3.715734005E0,1.558668900E1,7.080911636E0
5.630855735E1,4.347486496E0,9.485668182E0,4.493899345E0
5.635855735E1,1.624909019E1,-1.684548759E1,8.285591125E0
5.640855735E1,2.824367523E0,-5.336850739E1,5.648533821E0
5.645855735E1,-9.258246422E-1,-2.790748596E0,-5.980648994E0
5.650855735E1,-2.449358702E0,1.074748421E1,-4.727746487E0
5.655855735E1,-7.449989319E0,7.543823242E0,-8.888643265E0
5.660855735E1,-6.776834011E0,1.371385002E1,-1.087038803E1
5.665855735E1,-4.211874962E0,1.218646622E1,-4.173877239E0
5.670855735E1,-5.411674023E0,5.140881538E0,-1.906101799E1
5.675855735E1,-9.484937668E0,-9.709067345E-1,-1.201329803E1
5.680855735E1,-1.420493603E0,-3.078623009E1,-3.562167168E0
5.685855735E1,2.250168228E1,-2.678868103E1,-1.160385990E1
5.690855735E1,1.519371510E1,1.388132095E0,-3.071955442E0
5.695855735E1,-4.576575279E0,6.764494896E0,7.887906551E0
5.700855735E1,4.853014469E0,1.239116096E1,1.185678387E1
5.705855735E1,2.765198946E0,8.191564560E0,1.564492702E0
5.710855735E1,5.449433327E-1,1.496768665E1,2.439268112E0
5.715855735E1,4.601193905E0,8.838840485E0,4.101863861E0
5.720855735E1,2.313331985E1,-2.349397278E1,6.654881001E0
5.725855735E1,2.544564724E0,-3.772727966E1,-7.690602779E0
5.730855735E1,-5.680685043E0,-6.074496269E0,-5.919407845E0
5.735855735E1,-5.625035763E0,7.276488781E0,-5.908724785E0
5.740855735E1,-8.208379745E0,8.106203079E0,-6.300242424E0
5.745855735E1,-6.212384701E0,1.207198048E1,-4.118179321E0
5.750855735E1,7.265470505E0,1.161035347E1,2.758904266E1
5.755855735E1,-5.460158348E0,9.027292252E0,-1.608304596E1
5.760855735E1,-1.208807659E1,-1.031970501E1,-1.014480782E1
5.765855735E1,6.308643341E0,-3.333692932E1,2.662935734E0
5.770855735E1,2.561918449E1,-2.055777931E1,6.532094479E-1
5.775855735E1,7.411162853E0,1.268369675E0,-4.949792862E0
5.780855735E1,-6.792220116E0,9.652424812E0,8.419816971E0
5.785855735E1,7.038999557E0,7.984820366E0,1.165116024E1
5.790855735E1,1.506470203E0,9.689954758E0,4.151573181E0
5.795855735E1,-4.023039341E0,9.052014351E0,4.445700645E0
5.800855735E1,9.086743355E0,-1.409096718E0,-4.803933144E0
5.805855735E1,1.396156597E1,-5.451090240E1,-1.294426560E0
5.810855735E1,-2.165393591E0,-1.693368912E1,-3.441703796E0
5.815855735E1,-6.422214508E-1,4.584916592E0,-7.248767853E0
5.820855735E1,-5.704262257E0,7.716721535E0,-8.838743210E0
5.825855735E1,-8.382453918E0,1.034828568E1,-1.096104240E1
5.830855735E1,-4.608298302E0,1.249113846E1,-7.747356892E0
5.835855735E1,1.547086239E-1,6.530823708E-1,-1.640336990E1
5.840855735E1,-8.827690125E0,1.072253227E0,-1.069486618E1
5.845855735E1,-7.987007141E0,-2.562701035E1,-1.152502632E1
5.850855735E1,1.762872124E1,-2.766948700E1,7.152653337E-1
5.855855735E1,2.498054504E1,-5.631885529E-1,1.830378151E1
5.860855735E1,-5.601770878E-1,5.818878174E0,5.172451019E0
5.865855735E1,6.301257610E-1,1.615229034E1,7.870629311E0
5.870855735E1,2.682122231E0,8.478264809E0,2.073399782E0
5.875855735E1,-1.480461240E0,1.248824978E1,9.157501221E0
5.880855735E1,4.309677601E0,7.877600670E0,7.406592369E-3
5.885855735E1,2.131632042E1,-1.758224487E1,1.958594322E0
5.890855735E1,1.579416275E0,-4.631723022E1,-2.973370552E0
5.895855735E1,-4.644222260E0,-5.050216198E0,-4.876868248E0
5.900855735E1,-4.018552780E0,1.097929955E1,-3.725405693E0
5.905855735E1,-7.803206921E0,1.025300217E1,-6.768278122E0
5.910855735E1,-4.263004780E0,1.292249966E1,-6.619595528E0
5.915855735E1,-3.675891161E0,1.024640083E1,-4.646010399E0
5.920855735E1,-4.976252556E0,1.149612427E0,-1.201247597E1
5.925855735E1,-8.200891495E0,-1.620826244E0,-8.191012383E0
5.930855735E1,-1.163522720E0,-2.591967964E1,-8.472607613E0
5.935855735E1,1.526877403E1,-2.083129883E1,1.634174824E0
5.940855735E1,1.887982368E1,5.795402527E-1,1.162285805E1
5.945855735E1,-1.643150330E0,4.654968739E0,8.123913765E0
5.950855735E1,1.140842199E0,1.430454254E1,1.193343830E1
5.955855735E1,1.685765147E0,9.245167732E0,1.255185723E0
5.960855735E1,9.450688362E-1,1.411628819E1,6.945096970E0
5.965855735E1,4.732413292E0,6.936557293E0,3.072417259E0
5.970855735E1,1.967634773E1,-2.648596191E1,1.106747437E1
5.975855735E1,3.032978535E0,-4.280204391E1,4.905592442E0
5.980855735E1,-3.993976355E0,-3.190752983E0,-5.436790466E0
5.985855735E1,-5.839652538E0,1.116113663E1,-4.822522640E0
5.990855735E1,-8.269050598E0,9.873993874E0,-1.121508408E1
5.995855735E1,-4.900467873E0,1.326840496E1,-7.606788158E0
6.000855735E1,2.964845419E0,4.564118862E0,3.310808563E1
6.005855735E1,-6.557724953E0,5.053392410E0,-1.489913368E1
6.010855735E1,-1.081507492E1,-1.642907143E1,-1.093733311E1
6.015855735E1,3.050882816E0,-2.238778305E1,1.771681428E0
6.020855735E1,2.284335518E1,-1.958536339E1,-7.337553978E0
6.025855735E1,1.794513321E1,3.219584465E0,9.722532272E0
6.030855735E1,-1.184618711E0,7.364026070E0,2.311278820E0
6.035855735E1,5.166148186E0,1.236788940E1,6.912425041E0
6.040855735E1,2.482784986E0,1.027500439E1,-9.807572365E-1
6.045855735E1,-9.886215925E-1,1.295829391E1,6.807202816E0
6.050855735E1,3.488683701E0,3.672058105E0,5.022321701E0
6.055855735E1,2.130190849E1,-3.947253799E1,6.109376907E0
6.060855735E1,-1.978778362E0,-2.355078506E1,-6.170713902E-1
6.065855735E1,-3.033203602E0,5.411364555E0,-5.386116982E0
6.070855735E1,-6.478270054E0,1.052624226E1,-7.484264374E0
6.075855735E1,-8.507030487E0,1.012738228E1,-9.827893257E0
6.080855735E1,-5.913942337E0,1.243705177E1,-6.891765594E0
6.085855735E1,5.567700863E0,3.862898350E0,5.242986679E1
6.090855735E1,-5.168965816E0,5.139992714E0,-1.294051743E1
6.095855735E1,-1.379391861E1,-3.203014374E1,-2.089079475E1
6.100855735E1,2.404990673E0,-2.236698341E1,2.955921412E0
6.105855735E1,2.505095863E1,-2.194208336E1,-7.918622971E0
6.110855735E1,1.422767735E1,3.488228798E0,5.021243095E0
6.115855735E1,-4.375988483E0,1.024770451E1,4.450172901E0
6.120855735E1,3.309405327E0,8.909412384E0,2.913465977E0
6.125855735E1,1.988149524E0,1.278630066E1,4.832045078E0
6.130855735E1,5.097123384E-1,1.229520130E1,6.274891853E0
6.135855735E1,7.044642925E0,7.474727631E-1,-1.098178148E0
6.140855735E1,2.033622360E1,-4.306781006E1,5.696707726E0
6.145855735E1,-3.184214354E0,-2.805643463E1,-1.560214281E0
6.150855735E1,-3.997392178E0,8.136728287E0,-5.019594193E0
6.155855735E1,-7.328044415E0,8.968926430E0,-8.553950310E0
6.160855735E1,-8.716604233E0,1.163198471E1,-8.087721825E0
6.165855735E1,-6.706882477E0,1.354018211E1,-5.232153893E0
6.170855735E1,5.559270382E0,-4.830787659E0,2.184251022E1
6.175855735E1,-6.238899231E0,8.302658081E0,-1.355764961E1
6.180855735E1,-9.171955109E0,-3.031133842E1,-1.673336792E1
6.185855735E1,7.352026939E0,-2.116220856E1,4.578389168E0
6.190855735E1,2.343347359E1,-2.139010620E1,-5.362012386E0
6.195855735E1,9.080787659E0,2.704318047E0,-3.243801594E-1
6.200855735E1,-5.263685703E0,1.040008354E1,1.574378777E1
6.205855735E1,3.045367956E0,8.087459564E0,3.678708076E0
6.210855735E1,8.972769976E-1,1.531249237E1,1.934686422E0
6.215855735E1,1.238293648E0,1.183645439E1,6.523212910E0
6.220855735E1,6.602576256E0,-2.563911438E0,4.691423416E0
6.225855735E1,1.123701096E1,-6.989675903E1,-1.228704453E1
6.230855735E1,-4.397927284E0,-1.307610416E1,-5.242955685E0
6.235855735E1,-3.217130184E0,8.712980270E0,-4.186455250E0
6.240855735E1,-7.017897606E0,9.190733910E0,-9.151247025E0
6.245855735E1,-4.588782787E0,1.358146858E1,-1.122414589E1
6.250855735E1,-3.331724167E0,1.412023544E1,-9.988146782E0
6.255855735E1,2.358651161E0,-3.306919098E0,2.327713013E1
6.260855735E1,-9.436037064E0,9.267697334E-1,-1.990102291E0
6.265855735E1,-9.151159286E0,-3.034327698E1,-1.703443527E1
6.270855735E1,8.732192993E0,-2.039879227E1,-4.082695484E0
6.275855735E1,4.533293915E1,-2.265256500E1,4.475193405E1
6.280855735E1,6.381670952E0,4.137245178E0,3.191775322E0
6.285855735E1,-2.114178181E0,1.258474922E1,8.371966362E0
6.290855735E1,1.248771191E0,1.157886982E1,3.155984879E0
6.295855735E1,2.010987043E0,1.414380074E1,6.350160599E0
6.300855735E1,3.518282652E0,9.959563255E0,3.003661633E0
6.305855735E1,1.208186054E1,-1.249530029E1,8.093490601E0
6.310855735E1,7.429745197E0,-4.843234253E1,2.976737022E-1
6.315855735E1,-2.454337835E0,-7.150619984E0,-3.347024679E0
6.320855735E1,-4.549546719E0,7.769073486E0,-5.751632690E0
6.325855735E1,-8.994036674E0,8.368679047E0,-1.175383759E1
6.330855735E1,-8.268881798E0,1.432003880E1,-9.594200134E0
6.335855735E1,-4.845007896E0,1.178378391E1,-1.713211298E0
6.340855735E1,-4.817408562E0,-4.312105179E-1,-1.892190933E1
6.345855735E1,-6.587841511E0,-6.399302483E-1,-6.210445404E0
6.350855735E1,-5.751613140E0,-2.500346756E1,-1.183580208E1
6.355855735E1,1.628663826E1,-1.908401489E1,-4.760773480E-1
6.360855735E1,3.181275558E1,-2.220763206E0,5.271558380E1
6.365855735E1,3.985081911E-1,2.098102570E0,8.160572052E0
6.370855735E1,2.090472221E0,1.414021301E1,1.678870010E1
6.375855735E1,2.815757751E0,9.220444679E0,7.013530731E-1
6.380855735E1,1.769816399E0,1.506567764E1,6.661149979E0
6.385855735E1,2.847197533E0,7.134616852E0,1.877403498E0
6.390855735E1,1.686858749E1,-2.110935974E1,1.044791794E1
6.395855735E1,4.891292095E0,-4.688554001E1,7.244644165E0
6.400855735E1,-2.037919044E0,4.037976265E-1,-3.923032761E0
6.405855735E1,-5.961392403E0,8.346923828E0,-7.329360962E0
6.410855735E1,-8.182365417E0,8.738403320E0,-9.823692322E0
6.415855735E1,-6.872587204E0,1.463591385E1,-7.910490036E0
6.420855735E1,3.379144669E-1,8.944134712E0,3.499002075E1
6.425855735E1,-6.395864487E0,5.929785728E0,-2.029324532E1
6.430855735E1,-7.396450043E0,-8.595835686E0,-6.663392067E0
6.435855735E1,7.815346718E-1,-2.695668983E1,-3.908921242E0
6.440855735E1,2.072450638E1,-2.271555328E1,-1.405508041E1
6.445855735E1,1.684831810E1,4.153072357E0,1.197021723E0
6.450855735E1,-2.822023869E0,7.231957912E0,1.241832542E1
6.455855735E1,4.143041134E0,1.132863522E1,5.799612999E0
6.460855735E1,1.860943913E0,1.099242687E1,4.241234779E0
6.465855735E1,-1.373588085E0,1.220926762E1,4.742618561E0
6.470855735E1,5.198396206E0,4.130017757E0,4.141571224E-1
6.475855735E1,2.043184662E1,-3.509381104E1,6.208382130E0
6.480855735E1,2.158929825E0,-2.991515350E1,2.489575148E0
6.485855735E1,-2.322785378E0,3.015500546E0,-3.580472708E0
6.490855735E1,-7.749338150E0,7.115529060E0,-7.391432762E0
6.495855735E1,-8.675748825E0,9.755508423E0,-8.344354630E0
6.500855735E1,-5.822067738E0,1.423843002E1,-7.090818405E0
6.505855735E1,3.444337845E-2,8.995691299E0,2.818721771E1
6.510855735E1,-5.102510452E0,8.526771545E0,-1.420427895E1
6.515855735E1,-1.093715000E1,-1.767476845E1,-7.158303261E0
6.520855735E1,4.669468403E0,-2.644996262E1,4.104279995E0
6.525855735E1,2.102050400E1,-1.517118454E1,-9.182576180E0
6.530855735E1,1.463932514E1,2.223215103E0,3.286028385E0
6.535855735E1,6.184976101E-1,4.623138905E0,1.308085918E0
6.540855735E1,3.615650177E0,1.286430645E1,1.427400398E1
6.545855735E1,2.174278259E0,7.948243141E0,2.312156200E0
6.550855735E1,-2.364001751E0,1.245762062E1,6.317608833E0
6.555855735E1,6.163920403E0,6.408408165E0,3.111317635E0
6.560855735E1,1.872968864E1,-3.895595551E1,9.711541176E0
6.565855735E1,-3.608465195E-1,-2.507368660E1,-1.430028439E0
6.570855735E1,-2.988574266E0,3.543690205E0,-7.610975266E0
6.575855735E1,-4.644919872E0,1.074996376E1,-6.656110287E0
6.580855735E1,-7.304781437E0,1.138631725E1,-8.362651825E0
6.585855735E1,-3.699984550E0,1.342139721E1,-1.098893166E1
6.590855735E1,-2.911264896E0,1.076283073E1,-3.123781919E0
6.595855735E1,-5.170017242E0,6.223773479E0,-9.963869095E0
6.600855735E1,-8.850720406E0,-1.862179565E1,-8.829765320E0
6.605855735E1,3.798761368E0,-2.308555984E1,1.981776357E-1
6.610855735E1,2.144808197E1,-1.924702072E1,-5.607606411E0
6.615855735E1,1.715422440E1,1.971114635E0,3.311719418E0
6.620855735E1,-2.761806488E0,4.772267342E0,6.021117210E0
6.625855735E1,5.151707649E0,1.020982361E1,7.282144547E0
6.630855735E1,2.904542685E0,9.337163925E0,2.837123871E-1
6.635855735E1,-6.296717525E-1,1.294723320E1,6.836698055E0
6.640855735E1,4.358147621E0,7.684082031E0,2.217572451E0
6.645855735E1,2.333764076E1,-2.615969086E1,8.415112495E0
6.650855735E1,2.337352753E0,-4.298785400E1,2.468523741E0
6.655855735E1,-4.293768406E0,3.509764671E0,-4.488090992E0
6.660855735E1,-7.611349106E0,1.103338051E1,-7.656406403E0
6.665855735E1,-7.644019127E0,1.143102837E1,-1.117776108E1
6.670855735E1,-6.498351097E0,1.399724770E1,-6.390763760E0
6.675855735E1,5.238914490E-2,4.786618710E0,2.332577133E1
6.680855735E1,-6.400760651E0,6.961184025E0,-1.456036663E1
6.685855735E1,-8.949706078E0,-1.993901825E1,-9.281267166E0
6.690855735E1,4.601612091E0,-2.687982559E1,-5.047986507E0
6.695855735E1,2.146030617E1,-1.889692307E1,-1.266027927E1
6.700855735E1,1.367613029E1,3.433200836E0,4.945142269E-1
6.705855735E1,-2.394873857E0,6.021220207E0,5.230663300E0
6.710855735E1,4.886986732E0,9.896861076E0,1.034085083E1
6.715855735E1,1.589763999E0,8.937076569E0,-2.827930450E-2
6.720855735E1,-3.889926434E0,1.203451920E1,7.083433151E0
6.725855735E1,4.369402885E0,5.721034527E0,2.287996292E0
6.730855735E1,2.173182106E1,-3.319309235E1,8.137071609E0
6.735855735E1,1.376895428E0,-2.714769745E1,2.597586632E0
6.740855735E1,-2.521306038E0,3.559054613E0,-3.474874258E0
6.745855735E1,-6.948877335E0,8.683210373E0,-7.025069237E0
6.750855735E1,-8.524052620E0,1.021176338E1,-9.221705437E0
6.755855735E1,-5.287054062E0,1.469332886E1,-8.503864288E0
6.760855735E1,1.412373543E0,4.685991764E0,3.241170883E1
6.765855735E1,-5.933544159E0,7.812179565E0,-1.687734413E1
6.770855735E1,-8.624996185E0,-2.878466606E0,-5.105688095E0
6.775855735E1,4.162472725E0,-2.924046707E1,-1.199280739E1
6.780855735E1,2.613528442E1,-2.636022568E1,-1.394688320E1
6.785855735E1,1.166715145E1,1.223045349E0,-4.222536087E-2
6.790855735E1,-6.507408619E0,8.607626915E0,1.173439312E1
6.795855735E1,2.240514994E0,1.088595676E1,3.766667366E0
6.800855735E1,-1.031553745E-2,1.051608562E1,1.378749013E0
6.805855735E1,-1.484078050E0,1.160133362E1,6.289822102E0
6.810855735E1,6.902781010E0,-1.032432556E0,4.220258713E0
6.815855735E1,1.484340286E1,-5.607641602E1,3.378725290E0
6.820855735E1,-2.617470264E0,-1.606940842E1,-3.708068848E0
6.825855735E1,-1.451814175E0,7.563254833E0,-3.563012123E0
6.830855735E1,-5.960078716E0,9.743684769E0,-8.528205872E0
6.835855735E1,-5.063023567E0,1.367245293E1,-9.056194305E0
6.840855735E1,-3.148464441E0,1.388923454E1,-7.429802895E0
6.845855735E1,3.423020363E0,1.152602196E0,2.983636093E1
6.850855735E1,-6.539878845E0,8.950082779E0,-8.834053993E0
6.855855735E1,-9.400128365E0,-2.055077744E1,-1.059190845E1
6.860855735E1,4.135238171E0,-2.471825409E1,-6.129648685E0
6.865855735E1,1.785758400E1,-1.911620712E1,-1.228767109E1
6.870855735E1,1.689225197E1,1.461618423E0,1.444696307E0
6.875855735E1,-1.080771446E0,6.155160904E0,7.986855507E0
6.880855735E1,4.818487644E0,9.930993080E0,8.465250015E0
6.885855735E1,1.873750329E0,9.238447189E0,-7.681365013E-1
6.890855735E1,1.633885741E0,1.360064316E1,6.718958855E0
6.895855735E1,5.418265820E0,3.374313354E0,2.422663450E0
6.900855735E1,2.031072617E1,-2.870035934E1,5.899862289E0
6.905855735E1,4.203647614E0,-3.319987106E1,2.040984631E0
6.910855735E1,-2.474370480E0,3.429767370E0,-2.814903259E0
6.915855735E1,-7.224905014E0,8.579864502E0,-6.766404152E0
6.920855735E1,-9.292548180E0,9.545444489E0,-6.309403896E0
6.925855735E1,-6.152807713E0,1.422480011E1,-7.709423065E0
6.930855735E1,3.209648132E0,7.105999947E0,3.033796501E1
6.935855735E1,-4.759131908E0,7.099484921E0,-1.881082535E1
6.940855735E1,-9.018523216E0,-1.437818432E1,-8.933515549E0
6.945855735E1,8.976521492E-1,-2.403626442E1,-5.569953442E0
6.950855735E1,1.835711670E1,-2.080301666E1,-5.788353443E0
6.955855735E1,1.903342056E1,2.494288445E0,-2.595944881E0
6.960855735E1,-4.577568531E0,6.062888145E0,1.130013657E1
6.965855735E1,3.097308874E0,1.382250214E1,1.066866779E1
6.970855735E1,2.352646351E0,8.411103249E0,1.528445959E0
6.975855735E1,-2.204744816E0,1.099488640E1,5.913639545E0
6.980855735E1,4.464739799E0,3.725450993E0,3.063660145E0
6.985855735E1,1.811458206E1,-3.189690018E1,5.622071266E0
6.990855735E1,3.743074894E0,-2.960242844E1,2.624640465E0
6.995855735E1,-2.578551054E0,2.239084244E-1,-6.891354561E0
7.000855735E1,-6.212737560E0,1.002111721E1,-5.585583687E0
7.005855735E1,-9.055995941E0,8.781637192E0,-9.518643379E0
7.010855735E1,-5.567662239E0,1.269940948E1,-6.938759804E0
7.015855735E1,-4.962743759E0,1.049356747E1,-1.849773407E0
7.020855735E1,-5.558481216E0,4.433128834E0,-1.597768021E1
7.025855735E1,-7.352766037E0,-3.360833645E0,-7.739685535E0
7.030855735E1,-1.927301168E0,-2.512419510E1,-6.473806858E0
7.035855735E1,1.382511806E1,-1.999771118E1,2.262747288E0
7.040855735E1,2.994922256E1,1.098782539E0,7.826228142E0
7.045855735E1,-1.712067723E0,5.682393074E0,7.922441959E0
7.050855735E1,9.828208089E-1,1.327969742E1,1.080236244E1
7.055855735E1,3.417302132E0,9.248262405E0,2.393986702E0
7.060855735E1,3.824384212E-1,1.364036751E1,7.611368179E0
7.065855735E1,2.342086315E0,8.235905647E0,2.700698137E0
7.070855735E1,1.687742233E1,-2.197737122E1,1.455225658E1
7.075855735E1,7.556500912E0,-3.850563431E1,1.653270245E0
7.080855735E1,-2.461324692E0,-1.201251984E0,-1.451880455E0
7.085855735E1,-6.070730686E0,4.872854233E0,-6.860301018E0
7.090855735E1,-9.409822464E0,6.599875450E0,-1.014009380E1
7.095855735E1,-8.391178131E0,1.411171913E1,-6.042580605E0
7.100855735E1,-2.795376301E0,1.474912548E1,1.465585613E1
7.105855735E1,-4.548550129E0,6.459350109E0,-1.937028122E1
7.110855735E1,-5.706751823E0,2.218431473E0,-6.667898178E0
7.115855735E1,-8.750295639E-2,-3.007350540E1,-1.585311031E1
7.120855735E1,1.496658516E1,-2.310306549E1,-2.183310509E0
7.125855735E1,1.986815643E1,8.308801651E-1,1.605885744E0
7.130855735E1,1.202330589E-1,5.626364231E0,1.351947784E0
7.135855735E1,3.044064045E0,1.529589081E1,8.220790863E0
7.140855735E1,3.879179478E0,9.655073166E0,1.936932087E0
7.145855735E1,-4.586921334E-1,1.283355808E1,8.134980202E0
7.150855735E1,3.331656933E0,3.154524803E0,2.373457670E0
7.155855735E1,1.886392784E1,-2.526013947E1,8.272985458E0
7.160855735E1,2.562720299E0,-3.758850479E1,5.651351929E0
7.165855735E1,-6.387548447E-1,2.638788700E0,-4.191638470E0
7.170855735E1,-4.186357498E0,9.692590714E0,-6.402183056E0
7.175855735E1,-8.852910042E0,6.717661381E0,-9.674339294E0
7.180855735E1,-5.093329430E0,1.559930611E1,-9.006628036E0
7.185855735E1,8.535260201E0,7.925170422E0,3.768122101E1
7.190855735E1,-4.710310936E0,4.589187145E0,-1.432235336E1
7.195855735E1,-1.306373692E1,-1.197469234E1,-1.061921597E1
7.200855735E1,6.425080299E-1,-2.271996689E1,2.336072445E0
7.205855735E1,1.663445282E1,-2.332460022E1,-5.603859425E0
7.210855735E1,2.265806770E1,2.512866020E0,2.486877823E1
7.215855735E1,1.774491072E-1,5.909739971E0,1.170001221E1
7.220855735E1,1.632259846E0,1.549551964E1,1.139671803E1
7.225855735E1,3.662952900E0,1.006930161E1,8.791279793E-1
7.230855735E1,1.174956083E0,1.266501999E1,9.065710068E0
7.235855735E1,3.454245090E0,6.566137314E0,2.971123695E0
7.240855735E1,1.755868721E1,-2.184630203E1,7.572350025E0
7.245855735E1,5.017393589E0,-4.579911423E1,7.446017265E-1
7.250855735E1,-3.211316109E0,-6.905987740E0,-5.488328934E0
7.255855735E1,-4.707985401E0,9.451686859E0,-2.455490589E0
7.260855735E1,-9.838973999E0,8.686088562E0,-6.747103214E0
7.265855735E1,-7.557485104E0,1.315651417E1,-6.111858368E0
7.270855735E1,-8.132867813E-1,1.197678757E1,2.148565865E1
7.275855735E1,-5.439158440E0,5.352829456E0,-1.535171509E1
7.280855735E1,-5.092426777E0,1.867969513E0,-6.989688396E0
7.285855735E1,-4.819245815E0,-3.008175659E1,-8.786987305E0
7.290855735E1,8.551878929E0,-1.400384998E1,-3.698140860E0
7.295855735E1,3.066471863E1,-3.078130722E0,2.459026718E1
7.300855735E1,6.061011553E-1,1.447717190E0,1.518764114E1
7.305855735E1,-4.881842136E0,1.115907288E1,1.265676689E1
7.310855735E1,4.859403610E0,6.445412159E0,2.777999163E0
7.315855735E1,-6.392896175E-1,1.215573215E1,-1.026618481E0
7.320855735E1,2.269133806E0,1.209242344E1,4.021245480E0
7.325855735E1,1.418594837E1,-4.226082802E0,1.100101352E0
7.330855735E1,8.016429901E0,-4.811920166E1,-3.574374914E0
7.335855735E1,-1.219327927E0,-1.888386917E1,-2.593783617E0
7.340855735E1,-1.621278763E0,6.342471600E0,-1.605455399E0
7.345855735E1,-8.142995834E0,6.692057133E0,-8.325852394E0
7.350855735E1,-9.026155472E0,1.102234173E1,-1.100630093E1
7.355855735E1,-4.813698769E0,1.452292156E1,-5.666487694E0
7.360855735E1,4.895032883E0,4.709563255E-1,1.225163555E1
7.365855735E1,-4.551097870E0,9.826049805E0,-1.305601692E1
7.370855735E1,-8.567611694E0,-3.243552017E1,-1.531289482E1
7.375855735E1,8.112251282E0,-2.457894135E1,3.720982790E0
7.380855735E1,2.612589645E1,-1.837109756E1,5.935741425E0
7.385855735E1,8.855334282E0,2.514221668E0,-5.797820091E-1
7.390855735E1,-3.858832836E0,8.404169083E0,8.852921486E0
7.395855735E1,6.613142490E0,6.958435059E0,6.764762402E0
7.400855735E1,1.805780768E0,9.965424538E0,-2.862671375E0
7.405855735E1,1.988633156E0,1.345639801E1,7.850258827E0
7.410855735E1,5.835917473E0,1.335321426E0,2.469832897E0
7.415855735E1,1.641664886E1,-3.898104095E1,3.900907516E0
7.420855735E1,1.952319145E-1,-2.014284515E1,1.639871597E-1
7.425855735E1,-3.478317261E-1,6.152234077E0,-4.981826305E0
7.430855735E1,-7.695014954E0,6.407546997E0,-8.490758896E0
7.435855735E1,-9.205156326E0,9.564222336E0,-7.718266487E0
7.440855735E1,-4.905126572E0,1.494103622E1,-7.742491245E0
7.445855735E1,8.649015427E-1,4.422612190E-1,3.977825928E1
7.450855735E1,-5.296327114E0,9.370651245E0,-1.411939812E1
7.455855735E1,-1.055785751E1,-1.498365593E1,-9.054618835E0
7.460855735E1,5.217859745E0,-2.861593628E1,-6.820936203E0
7.465855735E1,2.307863998E1,-2.336468124E1,-1.374867821E1
7.470855735E1,1.082576656E1,1.965817451E0,-1.392149925E0
7.475855735E1,-3.111582518E0,8.267745018E0,1.386143017E1
7.480855735E1,4.729227066E0,6.875258446E0,4.175980091E0
7.485855735E1,8.649168015E-1,1.170446205E1,9.678261280E-1
7.490855735E1,-6.837151647E-1,1.036176205E1,6.496521950E0
7.495855735E1,8.719439507E0,-2.521865845E0,-1.842026353E0
7.500855735E1,9.816065788E0,-5.462908173E1,-8.512885571E-1
7.505855735E1,1.581572533E0,-1.969871902E1,-3.649966240E0
7.510855735E1,-2.452757359E0,7.104463577E0,-3.544050455E0
7.515855735E1,-7.533501625E0,7.673127174E0,-6.339619637E0
7.520855735E1,-1.011273575E1,9.243808746E0,-6.576240540E0
7.525855735E1,-4.228380203E0,1.404278278E1,-6.986631393E0
7.530855735E1,7.443010330E0,4.667081833E0,2.209096909E1
7.535855735E1,-4.667788982E0,5.715957165E0,-5.535943031E0
7.540855735E1,-9.249634743E0,-2.837894249E1,-8.347712517E0
7.545855735E1,6.233153343E0,-2.279931641E1,3.442099094E0
7.550855735E1,2.142867851E1,-1.374908924E1,2.252031326E1
7.555855735E1,2.577226877E0,-5.186491013E-1,3.621337891E0
7.560855735E1,-4.654704094E0,1.138510132E1,1.055579472E1
7.565855735E1,6.344504356E0,6.670676231E0,4.401442051E0
7.570855735E1,2.471819401E0,1.303043652E1,1.057005024E1
7.575855735E1,-1.102679133E0,9.238264084E0,3.131188869E0
7.580855735E1,1.552228451E1,-1.190468025E1,3.020026445E0
7.585855735E1,5.751586914E0,-4.649144745E1,-1.406547642E1
7.590855735E1,-5.348882675E0,-1.068363571E1,-3.360585928E0
7.595855735E1,-1.733899117E0,9.795207977E0,-1.849687457E0
7.600855735E1,-8.484290123E0,8.347485542E0,-8.873594284E0
7.605855735E1,-6.953949928E0,1.110735703E1,-8.339029312E0
7.610855735E1,-5.106540680E0,1.087146282E1,-5.038887978E0
7.615855735E1,-6.536511421E0,3.950103283E0,-2.055829620E1
7.620855735E1,-6.121898651E0,2.708139420E-1,-2.700103998E0
7.625855735E1,-2.001051426E0,-2.474030685E1,-8.779249191E0
7.630855735E1,2.274536896E1,-2.550532913E1,-9.966986656E0
7.635855735E1,1.068768787E1,-3.447790146E-1,3.818502426E0
7.640855735E1,-7.462473869E0,2.071898460E0,8.288816452E0
7.645855735E1,4.418899536E0,1.193698311E1,1.600712013E1
7.650855735E1,4.025644302E0,6.703421593E0,3.391503096E0
7.655855735E1,9.646862745E-1,1.342487812E1,6.149845123E0
7.660855735E1,3.593189955E0,7.673783302E0,5.774724960E0
7.665855735E1,1.715741539E1,-2.304258347E1,1.118906403E1
7.670855735E1,6.696550369E0,-4.100698853E1,1.159286737E0
7.675855735E1,-2.963640213E0,-2.314667225E0,-5.268652916E0
7.680855735E1,-5.446845055E0,7.680117130E0,-5.481858253E0
7.685855735E1,-9.563570023E0,8.722880363E0,-1.134653187E1
7.690855735E1,-6.218787193E0,1.561404037E1,-9.325419426E0
7.695855735E1,-2.646934509E0,1.081089020E1,1.757719421E1
7.700855735E1,-6.059552193E0,5.415926933E0,-2.379960632E1
7.705855735E1,-8.799956322E0,-5.028196335E0,-1.023630524E1
7.710855735E1,-1.665543079E0,-2.324596405E1,-7.917585373E0
7.715855735E1,1.983321762E1,-2.493135452E1,-5.082427025E0
7.720855735E1,2.372794151E1,7.506275177E-2,9.250531197E0
7.725855735E1,-1.222860813E-1,2.833956718E0,9.929294586E0
7.730855735E1,-3.551220179E0,1.564068699E1,1.443124962E1
7.735855735E1,4.332690239E0,7.758399487E0,3.214324713E0
7.740855735E1,1.932852268E-1,1.130908680E1,4.309083939E0
7.745855735E1,6.314515114E0,8.665901184E0,2.946213245E0
7.750855735E1,1.581219864E1,-1.777845001E1,1.053973103E1
7.755855735E1,7.782261372E0,-5.018852997E1,-8.983562469E0
7.760855735E1,-4.619457722E0,-8.205285072E0,-5.547318459E0
7.765855735E1,-3.753453255E0,8.151651382E0,-4.192059994E0
7.770855735E1,-8.922521591E0,7.961897850E0,-7.998222351E0
7.775855735E1,-6.912125587E0,1.341949749E1,-7.035683155E0
7.780855735E1,-3.479056358E0,1.321529198E1,4.206951141E0
7.785855735E1,-3.801996231E0,4.688083172E0,-1.610030556E1
7.790855735E1,-6.938087940E0,1.259474754E0,-8.822446823E0
7.795855735E1,-2.827876091E0,-2.752582550E1,-9.736936569E0
7.800855735E1,1.367548466E1,-2.287668419E1,1.693315953E-1
7.805855735E1,2.274854088E1,-1.234569550E-1,1.286378956E1
7.810855735E1,-4.142968655E0,3.897773266E0,1.414432812E1
7.815855735E1,4.419150352E0,1.628492737E1,1.089921379E1
7.820855735E1,4.748381615E0,8.171683311E0,2.580782175E0
7.825855735E1,-1.677575231E0,1.178923988E1,7.503624916E0
7.830855735E1,6.302255630E0,5.182593822E0,1.440344810E0
7.835855735E1,1.659565353E1,-3.938956833E1,6.107336998E0
7.840855735E1,9.464583397E-1,-2.866360855E1,-1.581728458E-1
7.845855735E1,-3.982578039E0,-2.090345860E0,-8.379955292E0
7.850855735E1,-3.760161400E0,1.161262035E1,-6.079254627E0
7.855855735E1,-8.555757523E0,1.072982693E1,-1.075028896E1
7.860855735E1,-6.138197899E0,1.422379494E1,-7.377497673E0
7.865855735E1,-3.850069761E0,9.966813087E0,7.430133820E0
7.870855735E1,-5.892045021E0,4.908911705E0,-1.653987503E1
7.875855735E1,-8.601383209E0,-4.561683178E0,-5.539132118E0
7.880855735E1,5.040630817E0,-2.726602745E1,-1.081663418E1
7.885855735E1,1.912722206E1,-1.904428482E1,-1.906035423E1
7.890855735E1,1.545394421E1,1.560486794E0,-1.433149576E0
7.895855735E1,-4.797999382E0,8.345723152E0,5.072749615E0
7.900855735E1,5.079558849E0,1.037310123E1,6.313211441E0
7.905855735E1,2.051331997E0,1.045987034E1,2.257221460E0
7.910855735E1,-2.726205826E0,1.066503143E1,6.376074314E0
7.915855735E1,7.436728477E0,1.831131935E0,-2.450654268E0
7.920855735E1,1.769825172E1,-3.880751038E1,5.324778557E0
7.925855735E1,-1.035963535E0,-2.314551544E1,-2.614864826E0
7.930855735E1,-3.189098835E0,1.883080482E0,-6.455862999E0
7.935855735E1,-4.300452232E0,1.045751762E1,-3.739030838E0
7.940855735E1,-9.336933136E0,9.561464310E0,-7.426706314E0
7.945855735E1,-4.304542065E0,1.204785919E1,-5.341031075E0
7.950855735E1,-3.691301584E0,1.101024437E1,-4.196691513E-2
7.955855735E1,-5.525062084E0,5.971855164E0,-1.075772095E1
7.960855735E1,-7.111814976E0,-6.617089272E0,-6.146291733E0
7.965855735E1,-2.245405674E0,-2.417144585E1,-7.119021893E0
7.970855735E1,1.592102909E1,-1.743184662E1,-1.162952995E1
7.975855735E1,2.576163864E1,8.186645508E-1,2.826426697E1
7.980855735E1,-2.113270760E-1,1.877863884E0,7.347689152E0
7.985855735E1,3.823423982E-1,1.296929741E1,1.690913010E1
7.990855735E1,3.277037621E0,1.029578495E1,2.236013889E0
7.995855735E1,2.335603237E0,1.541111851E1,8.604674339E0
8.000855735E1,3.199824810E0,5.225388527E0,2.858401775E0
8.005855735E1,1.513524818E1,-2.704568863E1,1.173921394E1
8.010855735E1,1.999388218E0,-4.058824921E1,3.904797077E0
8.015855735E1,-2.899580717E0,-4.258475304E-1,-5.680699825E0
8.020855735E1,-3.881299257E0,8.963457108E0,-5.495515823E0
8.025855735E1,-9.256519318E0,8.116819382E0,-7.863254547E0
8.030855735E1,-5.872371197E0,1.253056145E1,-4.410120010E0
8.035855735E1,-1.332542896E-1,1.201473427E1,1.244247341E1
8.040855735E1,-4.753829956E0,7.264379978E0,-1.223459530E1
8.045855735E1,-5.928556442E0,-1.027302742E0,-7.635301590E0
8.050855735E1,-9.554252625E-1,-2.692396545E1,-5.083395958E0
8.055855735E1,1.271685600E1,-1.763808441E1,3.228548527E0
8.060855735E1,1.949328995E1,5.424346924E-1,-6.814272881E0
8.065855735E1,-3.972009659E0,5.161069870E0,1.253257275E1
8.070855735E1,2.857160568E0,1.631799316E1,1.311378765E1
8.075855735E1,4.201003075E0,8.313496590E0,2.396499157E0
8.080855735E1,1.222081423E0,1.279382133E1,8.515615463E0
8.085855735E1,2.438008308E0,8.855014801E0,2.627184629E0
8.090855735E1,1.770216751E1,-1.963031387E1,7.265142918E0
8.095855735E1,3.224930286E0,-4.809393692E1,8.982920647E-2
8.100855735E1,-2.630850792E0,-6.769053936E0,-3.380069256E0
8.105855735E1,-3.907115936E0,8.618832588E0,-2.670356750E0
8.110855735E1,-9.003817558E0,7.443576813E0,-7.566991806E0
8.115855735E1,-6.543967247E0,1.345431995E1,-7.371223450E0
8.120855735E1,-4.845918179E0,1.297008133E1,-4.054533958E0
8.125855735E1,4.817668438E0,-2.399647713E0,1.233193874E0
8.130855735E1,-3.918518543E0,3.090766907E0,-9.770000458E0
8.135855735E1,-7.374686718E0,-2.948476410E1,-8.395973206E0
8.140855735E1,1.119054508E1,-2.126506042E1,2.350648165E0
8.145855735E1,3.574269867E1,-9.516926765E0,4.934309387E1
8.150855735E1,6.469585896E-1,2.580007553E0,1.120159435E1
8.155855735E1,-3.388851166E0,1.453793526E1,1.281608200E1
8.160855735E1,5.378522396E0,7.464545727E0,3.417078733E0
8.165855735E1,3.234534264E0,1.383719730E1,8.297355652E0
8.170855735E1,3.092821121E0,1.106836891E1,4.159770012E0
8.175855735E1,1.452474213E1,-1.168995094E1,1.546977639E0
8.180855735E1,4.665932178E0,-5.208145905E1,-4.261135101E0
8.185855735E1,-3.703775406E0,-7.471896172E0,-4.627349377E0
8.190855735E1,-1.897321224E0,8.452524185E0,-4.957098961E0
8.195855735E1,-7.979948044E0,7.159195423E0,-7.945626259E0
8.200855735E1,-7.395075798E0,1.294756699E1,-8.973476410E0
8.205855735E1,-4.603549004E0,1.266840553E1,-4.626581192E0
8.210855735E1,-4.095473289E0,2.886933804E0,-1.757566833E1
8.215855735E1,-7.646884918E0,8.393874168E-1,-6.188732147E0
8.220855735E1,-8.743009567E0,-2.956716728E1,-1.605151367E1
8.225855735E1,9.654548645E0,-2.162588692E1,4.591317177E0
8.230855735E1,4.501431656E1,-1.397279739E1,3.269817734E1
8.235855735E1,5.562133312E0,4.497128963E0,8.403326035E0
8.240855735E1,-4.560124874E0,1.267567348E1,4.851882458E0
8.245855735E1,4.149601936E0,9.407327652E0,3.448868752E0
8.250855735E1,1.513871074E0,1.222913742E1,6.647362232E0
8.255855735E1,1.286445856E-1,7.485594749E0,4.327973366E0
8.260855735E1,1.674895859E1,-1.138886642E1,2.005393028E0
8.265855735E1,1.245798969E1,-5.275593948E1,-6.224032402E0
8.270855735E1,-4.586412907E0,-1.202231884E1,-4.763230801E0
8.275855735E1,-3.610434294E0,7.947148800E0,-3.357073069E0
8.280855735E1,-9.252532959E0,5.792339325E0,-9.361731529E0
8.285855735E1,-8.962663651E0,1.337589645E1,-6.650367737E0
8.290855735E1,-3.617224216E0,1.294229889E1,-5.467020035E0
8.295855735E1,3.108606339E0,-4.083728313E0,2.032002640E1
8.300855735E1,-5.972191334E0,-6.398806572E-1,-1.156033897E1
8.305855735E1,-7.716231823E0,-2.612379837E1,-1.083050632E1
8.310855735E1,8.033321381E0,-1.977779770E1,4.698912144E0
8.315855735E1,4.305118942E1,-3.877873421E0,4.184433365E1
8.320855735E1,-6.657374501E-1,1.791748047E0,1.966165352E1
8.325855735E1,-3.178774834E0,1.088004780E1,8.412219048E0
8.330855735E1,5.215794086E0,7.186705589E0,3.348911524E0
8.335855735E1,1.907664061E0,1.341475201E1,6.674460411E0
8.340855735E1,7.411599159E-1,1.124293709E1,2.872610569E0
8.345855735E1,1.295179939E1,-7.495018959E0,2.046309233E0
8.350855735E1,8.016316414E0,-7.030712891E1,-7.072686195E0
8.355855735E1,-7.573275566E-1,-9.014152527E0,-3.775063038E0
8.360855735E1,-3.635457754E0,9.846773148E0,-4.653269768E0
8.365855735E1,-8.652198792E0,5.509460926E0,-1.102972507E1
8.370855735E1,-8.547103882E0,1.431492615E1,-1.064083576E1
8.375855735E1,-5.948656082E0,1.463459110E1,-4.113784790E0
8.380855735E1,5.511742592E0,-6.286717415E0,9.846697807E0
8.385855735E1,-6.567011833E0,4.797089100E0,-1.136901283E1
8.390855735E1,-9.448326111E0,-2.929339981E1,-1.199931526E1
8.395855735E1,7.584849358E0,-2.295757484E1,2.917065144E0
8.400855735E1,4.029401779E1,-2.037516022E1,-4.523367882E0
8.405855735E1,4.423373222E0,5.491365910E0,2.151750565E1
8.410855735E1,-3.322448254E0,7.505618095E0,5.957336426E-1
8.415855735E1,5.825510979E0,9.882793427E0,3.374918938E0
8.420855735E1,1.497202516E0,1.275069618E1,9.202163815E-1
8.425855735E1,7.496026754E-1,1.278201771E1,4.035936356E0
8.430855735E1,1.431553078E1,-3.314583778E0,9.200601578E-1
8.435855735E1,1.018177223E1,-5.953540039E1,-4.098344326E0
8.440855735E1,-6.848645210E-1,-1.665644264E1,-1.333426714E0
8.445855735E1,-1.124699593E0,8.395244598E0,-2.486824036E0
8.450855735E1,-7.585288048E0,7.068484783E0,-8.491412163E0
8.455855735E1,-6.245615005E0,1.453436089E1,-1.375645447E1
8.460855735E1,-5.392380714E0,1.539157009E1,-8.811304092E0
8.465855735E1,2.079226971E-1,-3.432449818E0,4.445720291E1
8.470855735E1,-3.772091150E0,8.252236366E0,-1.774328995E1
8.475855735E1,-1.055103302E1,-1.981444168E1,-1.709091949E1
8.480855735E1,5.421476364E0,-2.673064804E1,-2.897188663E-1
8.485855735E1,2.603468323E1,-2.411815643E1,-9.787340164E0
8.490855735E1,1.743232918E1,2.875463009E0,2.664110422E0
8.495855735E1,-6.190821648E0,8.825647354E0,8.838750839E0
8.500855735E1,7.287085533E0,1.009754944E1,5.838204384E0
8.505855735E1,4.094274998E0,1.099512386E1,5.746409893E-1
8.510855735E1,-7.395198345E-1,1.168237495E1,4.749233723E0
8.515855735E1,8.912162781E0,9.476346970E-1,-3.076460958E-1
8.520855735E1,1.848032379E1,-3.866655731E1,4.548059464E0
8.525855735E1,1.507622242E0,-2.205257225E1,-2.577087879E-1
8.530855735E1,-1.739270687E0,5.086046219E0,-4.578212738E0
8.535855735E1,-7.413060188E0,6.680821419E0,-9.038021088E0
8.540855735E1,-7.685118675E0,1.325782204E1,-1.680085182E1
8.545855735E1,-6.063927650E0,1.599416065E1,-6.153853416E0
8.550855735E1,6.195572853E0,-2.276673794E0,4.108646774E1
8.555855735E1,-5.670947075E0,9.982594490E0,-1.192654037E1
8.560855735E1,-1.507013512E1,-2.722353363E1,-2.044704819E1
8.565855735E1,5.485772133E0,-2.643090057E1,2.440851927E-2
8.570855735E1,3.554746628E1,-2.632446861E1,-1.229362297E1
8.575855735E1,1.255808163E1,5.138876438E0,2.912545204E-2
8.580855735E1,-5.577471256E0,1.253611183E1,1.225651264E1
8.585855735E1,5.306544304E0,7.480115891E0,3.901240826E0
8.590855735E1,1.492410421E0,1.100567150E1,7.758867264E0
8.595855735E1,-2.626169443E0,8.850780487E0,3.459755659E0
8.600855735E1,1.260260773E1,-6.752562523E0,-3.007483780E-1
8.605855735E1,1.233168602E1,-5.294756317E1,-6.224288940E0
8.610855735E1,-3.960802078E0,-1.643843651E1,-3.811967134E0
8.615855735E1,-1.301960945E0,8.814362526E0,-4.029210091E0
8.620855735E1,-7.810656548E0,6.892572403E0,-9.252643585E0
8.625855735E1,-9.243515015E0,1.241834259E1,-1.344919682E1
8.630855735E1,-7.008314610E0,1.254420185E1,-5.313314438E0
8.635855735E1,5.889915466E0,-4.870978355E0,1.017063618E1
8.640855735E1,-7.614156723E0,9.252433777E0,-7.537185192E0
8.645855735E1,-1.210798454E1,-3.125553513E1,-2.081355286E1
8.650855735E1,9.432491302E0,-2.487245178E1,-2.380782127E0
8.655855735E1,2.981784630E1,-2.486787987E1,-1.632746696E1
8.660855735E1,8.463447571E0,2.204029083E0,4.454451561E0
8.665855735E1,-4.540570259E0,1.616535568E1,1.792673683E1
8.670855735E1,3.439079285E0,7.913325787E0,4.028147221E0
8.675855735E1,1.604747772E-2,1.111372375E1,7.138639927E0
8.680855735E1,-1.480351090E0,8.682284355E0,3.465552807E0
8.685855735E1,1.270203209E1,-6.327096939E0,-2.007825613E0
8.690855735E1,6.042752266E0,-5.855061340E1,-1.013541889E1
8.695855735E1,-5.838854313E0,-1.056456184E1,-6.387327194E0
8.700855735E1,-3.698539019E0,9.408398628E0,-2.861169815E0
8.705855735E1,-6.906559467E0,7.885131359E0,-7.232412338E0
8.710855735E1,-8.115561485E0,1.167974186E1,-1.016369820E1
8.715855735E1,-4.700748920E0,1.142725754E1,-3.881857872E0
8.720855735E1,5.488700867E0,-2.083587170E0,3.653047085E-1
8.725855735E1,-7.201716423E0,8.609896660E0,-5.771829605E0
8.730855735E1,-1.320615959E1,-4.612868118E1,-1.446320534E1
8.735855735E1,4.335951805E0,-1.604061890E1,2.051912069E0
8.740855735E1,3.345549011E1,-1.700209808E1,-6.773423195E0
8.745855735E1,1.369150448E1,9.476704597E0,1.860302162E1
8.750855735E1,1.061133146E-1,9.789113998E0,3.577280998E0
8.755855735E1,4.318351269E0,8.255702972E0,5.421220303E0
8.760855735E1,3.070048332E0,1.665551376E1,6.166833878E0
8.765855735E1,7.971570492E-1,9.882211685E0,6.836622238E0
8.770855735E1,9.773445129E0,-8.664543152E0,3.998641014E0
8.775855735E1,9.874447823E0,-6.844900513E1,-5.919744968E0
8.780855735E1,-3.503791809E0,-1.006946182E1,-2.805401802E0
8.785855735E1,-4.493415833E0,9.899012566E0,-3.064353704E0
8.790855735E1,-5.844357491E0,7.991466999E0,-1.029931545E1
8.795855735E1,-8.743925095E0,1.357838440E1,-1.124884224E1
8.800855735E1,-5.798097610E0,1.215835953E1,-1.567620397E0
8.805855735E1,2.429705143E0,-1.822106838E0,1.758950615E1
8.810855735E1,-4.960456848E0,-7.073636055E-1,-7.516606808E0
8.815855735E1,-1.310783005E1,-3.645646286E1,-1.126296997E1
8.820855735E1,3.678175449E0,-1.211960983E1,6.804283857E-1
8.825855735E1,3.028967857E1,-1.634335327E1,-7.597391129E0
8.830855735E1,1.415071774E1,4.266357899E0,3.839530563E1
8.835855735E1,5.203053951E0,7.957202435E0,1.255526066E0
8.840855735E1,5.637499332E0,9.561151505E0,6.293337822E0
8.845855735E1,3.817735910E0,1.467770290E1,6.678050995E0
8.850855735E1,-4.603600502E-2,1.008288479E1,5.851947784E0
8.855855735E1,1.095690250E1,-1.492554474E1,1.872180939E1
8.860855735E1,8.499982834E0,-6.317089462E1,-5.421777368E-1
8.865855735E1,-4.416093826E0,-1.205222416E1,-7.087553024E0
8.870855735E1,-4.314503193E0,5.361387253E0,-9.395344734E0
8.875855735E1,-9.351184845E0,5.901586056E0,-1.087469769E1
8.880855735E1,-2.598106146E0,1.870628357E1,-1.668395615E1
8.885855735E1,2.558423281E0,1.769557953E1,1.238101578E1
8.890855735E1,-1.063382721E1,-2.857317924E0,1.571879959E1
8.895855735E1,-1.112339973E1,-3.542468262E1,-1.876267433E1
8.900855735E1,4.592065811E0,-1.818497849E1,7.170899868E0
8.905855735E1,3.194261742E1,-2.591529274E1,-5.351520061E0
8.910855735E1,1.372405148E1,7.004386902E0,2.361103630E1
8.915855735E1,5.921728015E-1,1.063283443E1,8.469453812E0
8.920855735E1,6.489533901E0,8.975621223E0,5.107894421E0
8.925855735E1,3.008793592E0,1.264155865E1,8.435480118E0
8.930855735E1,-1.232147932E0,9.661522865E0,5.588386536E0
8.935855735E1,1.574310589E1,-1.145603180E1,5.181204319E0
8.940855735E1,9.502153397E0,-6.319052887E1,-1.161006641E1
8.945855735E1,-4.516534328E0,-1.011755562E1,-5.680347443E0
8.950855735E1,-1.922086716E0,1.144285679E1,-7.117302895E0
8.955855735E1,-5.902305603E0,1.025090885E1,-1.089135361E1
8.960855735E1,-6.042410851E0,1.545532322E1,-8.530200005E0
8.965855735E1,-4.325068474E0,1.135850525E1,-5.547202110E0
8.970855735E1,-3.161300421E0,-2.516255856E0,7.942323685E-1
8.975855735E1,-8.290781975E0,3.403372765E-1,-1.260953903E1
8.980855735E1,-2.500382900E0,-2.628820801E1,-1.439936352E1
8.985855735E1,1.689991951E1,-2.449873734E1,-6.786376476E0
8.990855735E1,2.093190765E1,-2.394137383E0,5.916337967E1
8.995855735E1,-2.923691273E-2,1.098300934E0,3.670578003E-1
9.000855735E1,4.323513031E0,1.324676514E1,1.392961979E1
9.005855735E1,2.069771051E0,1.055999756E1,-2.704826832E0
9.010855735E1,5.900562286E0,1.654084969E1,7.936039448E0
9.015855735E1,1.095640302E0,6.580410957E0,3.420542479E0
9.020855735E1,1.520109367E1,-3.229295349E1,1.302679634E1
9.025855735E1,3.923899174E0,-2.884068871E1,3.025541306E-1
9.030855735E1,-3.112304926E0,4.601807594E0,-3.677665949E0
9.035855735E1,-6.556083202E0,5.702716827E0,-8.920145035E0
9.040855735E1,-9.364617348E0,9.209135056E0,-6.996176720E0
9.045855735E1,-4.099368095E0,1.513234425E1,-8.092861176E0
9.050855735E1,5.138872623E0,4.987918377E0,3.739468002E1
9.055855735E1,-5.310611248E0,6.484481812E0,-1.611286926E1
9.060855735E1,-1.248032188E1,-3.482504272E1,-1.399568081E1
9.065855735E1,5.135766506E0,-2.292845535E1,5.460618496E0
9.070855735E1,3.085958862E1,-2.150725937E1,-8.900215149E0
9.075855735E1,9.137482643E0,4.687979221E0,5.610736847E0
9.080855735E1,-4.917356014E0,1.242944527E1,8.803398132E0
9.085855735E1,5.140141964E0,8.577335358E0,3.777443409E0
9.090855735E1,1.107861996E0,1.141377449E1,5.913676739E0
9.095855735E1,-2.335841417E0,1.037817764E1,4.300233841E0
9.100855735E1,8.660820961E0,-7.790851593E-2,-3.249145746E0
9.105855735E1,1.673703194E1,-4.272278214E1,7.680403709E0
9.110855735E1,-7.188434601E-1,-2.522983551E1,-3.430292606E0
9.115855735E1,-4.796500683E0,4.522127151E0,-4.218488693E0
9.120855735E1,-8.545039177E0,8.194976807E0,-6.901188374E0
9.125855735E1,-9.435518265E0,1.067698288E1,-1.093315697E1
9.130855735E1,-6.019231796E0,1.452399731E1,-4.682007790E0
9.135855735E1,4.188134193E0,-3.276662827E-1,1.621962929E1
9.140855735E1,-5.543022633E0,9.069825172E0,-9.779898643E0
9.145855735E1,-1.171984291E1,-2.870114136E1,-1.223374939E1
9.150855735E1,1.125622749E1,-2.635620499E1,2.032973766E0
9.155855735E1,2.986263847E1,-1.723608398E1,-1.115336704E1
9.160855735E1,9.046036720E0,5.129003525E0,6.059836388E0
9.165855735E1,-3.063961983E0,1.163134384E1,5.927614212E0
9.170855735E1,5.890691757E0,6.976336002E0,2.990998268E0
9.175855735E1,1.642744184E0,1.141062927E1,-1.816461086E0
9.180855735E1,-3.699012399E-1,1.076584625E1,4.764006615E0
9.185855735E1,1.092388725E1,-2.760240555E0,3.544225693E-1
9.190855735E1,1.962271118E1,-4.344600677E1,-2.642574310E-1
9.195855735E1,-1.555946350E0,-1.990621567E1,-3.458368540E0
9.200855735E1,-3.201790094E0,7.466201782E0,-2.180978775E0
9.205855735E1,-8.061952591E0,7.309086323E0,-7.787798882E0
9.210855735E1,-9.770427704E0,1.216914940E1,-1.260798550E1
9.215855735E1,-6.270179749E0,1.318139648E1,-3.358077288E0
9.220855735E1,7.642034531E0,-6.040318489E0,8.730058670E0
9.225855735E1,-7.091023922E0,3.404550076E0,-7.565827370E0
9.230855735E1,-1.359365940E1,-2.834645844E1,-1.312728977E1
9.235855735E1,1.122109413E1,-2.244360161E1,-8.014391899E0
9.240855735E1,3.778278732E1,-1.847526360E1,6.822208405E1
9.245855735E1,3.934053421E0,3.207000732E0,7.045827866E0
9.250855735E1,-4.616690159E0,1.698697662E1,1.552045631E1
9.255855735E1,4.598391533E0,7.423396111E0,2.767468929E0
9.260855735E1,1.218599916E0,1.153009415E1,7.597712994E0
9.265855735E1,2.131678104E0,8.428620338E0,2.022556782E0
9.270855735E1,1.672915459E1,-1.346088409E1,3.699317455E0
9.275855735E1,4.398506641E0,-5.353471375E1,-7.715854645E0
9.280855735E1,-3.386030674E0,-8.471199036E0,-6.177170753E0
9.285855735E1,-2.640097141E0,1.063212681E1,-4.535479069E0
9.290855735E1,-9.428108215E0,6.657352924E0,-8.617367744E0
9.295855735E1,-8.344549179E0,1.281573582E1,-7.387661457E0
9.300855735E1,-6.631052494E-1,1.412687111E1,2.627848816E1
9.305855735E1,-1.113473177E0,1.314012527E0,-1.555481720E1
9.310855735E1,-9.233744621E0,5.538434982E-1,-6.024361134E0
9.315855735E1,-3.248962164E0,-3.112214851E1,-3.898520708E0
9.320855735E1,1.607749557E1,-2.139888573E1,-1.788526773E0
9.325855735E1,3.940464020E1,-4.024605751E0,6.781316376E1
9.330855735E1,1.072705865E0,5.044963360E0,7.548119545E0
9.335855735E1,-3.155213594E-2,1.565343285E1,1.435908508E1
9.340855735E1,3.319270134E0,8.304738045E0,2.948783398E0
9.345855735E1,1.840786219E0,1.372709179E1,6.809286118E0
9.350855735E1,4.713577271E0,8.355180740E0,4.631224155E0
9.355855735E1,1.729838753E1,-2.036787415E1,1.071991825E1
9.360855735E1,4.577893257E0,-4.646504211E1,2.100718975E0
9.365855735E1,-3.539269686E0,-1.547764301E0,-3.938715935E0
9.370855735E1,-3.731474638E0,1.061607170E1,-4.367881775E0
9.375855735E1,-8.246669769E0,7.768479824E0,-9.673513412E0
9.380855735E1,-7.855326653E0,1.301160049E1,-6.001474380E0
9.385855735E1,-4.452655792E0,1.179840851E1,-1.635250211E0
9.390855735E1,-6.119482994E0,5.139911652E0,-1.836143875E1
9.395855735E1,-9.058355331E0,-3.601610184E0,-8.801468849E0
9.400855735E1,-3.433017731E-1,-2.782995987E1,-4.403002739E0
9.405855735E1,2.251483154E1,-2.384017563E1,-1.439038277E1
9.410855735E1,2.371799278E1,4.490593910E0,3.096760368E1
9.415855735E1,4.062589407E-1,6.706340790E0,2.939158678E0
9.420855735E1,4.957730293E0,1.406081200E1,8.260866165E0
9.425855735E1,2.920347452E0,1.077103329E1,-6.274020672E-1
9.430855735E1,-1.942435384E0,1.073331928E1,5.905654430E0
9.435855735E1,7.421930313E0,-9.402847290E-2,-2.000785112E0
9.440855735E1,2.144318771E1,-3.885535431E1,4.444443703E0
9.445855735E1,-4.613089561E-1,-2.606413078E1,1.513364553E0
9.450855735E1,-4.268694878E0,3.952579021E0,-6.123945713E0
9.455855735E1,-5.862823486E0,9.614128113E0,-5.701406956E0
9.460855735E1,-1.090930843E1,9.015377045E0,-9.231563568E0
9.465855735E1,-5.340271473E0,1.192761803E1,-1.133861303E0
9.470855735E1,5.179099560E0,-2.332773209E-1,2.137556648E1
9.475855735E1,-4.335674763E0,8.662252426E0,-7.839548588E0
9.480855735E1,-1.530806541E1,-2.345320129E1,-1.992492676E1
9.485855735E1,7.725723267E0,-2.405297470E1,-2.305398464E0
9.490855735E1,1.920138550E1,-2.405363083E1,-1.102283382E1
9.495855735E1,5.604847908E0,-1.459822655E0,3.556814432E0
9.500855735E1,-5.580619812E0,1.340603352E1,1.901071167E1
9.505855735E1,5.856377602E0,7.093214989E0,3.706636190E0
9.510855735E1,2.082006931E0,1.220390034E1,5.461787224E0
9.515855735E1,-9.220032692E-1,1.174663544E1,4.565845013E0
9.520855735E1,1.216830826E1,-1.801653862E0,3.822519481E-1
9.525855735E1,1.851984215E1,-4.120245361E1,-7.931287289E-1
9.530855735E1,-5.294945717E0,-2.643989563E1,-1.441516161E0
9.535855735E1,-5.813268661E0,4.138237000E0,-7.028121948E0
9.540855735E1,-7.691300392E0,1.032683086E1,-7.381735802E0
9.545855735E1,-8.608569145E0,1.236257935E1,-9.793831825E0
9.550855735E1,-3.199768066E0,1.215312958E1,-4.086058617E0
9.555855735E1,2.613971233E-1,7.637486458E-1,-3.233735561E0
9.560855735E1,-7.764116287E0,3.266691685E0,-8.732984543E0
9.565855735E1,-7.109331131E0,-3.742004776E1,-1.463027191E1
9.570855735E1,1.092322445E1,-1.821719360E1,-1.205398679E0
9.575855735E1,3.686926651E1,-2.114546776E0,4.463179398E1
9.580855735E1,2.459327459E0,3.859748840E0,5.535303593E0
9.585855735E1,-1.938826084E0,1.559507847E1,1.332202244E1
9.590855735E1,5.046542168E0,7.037691116E0,2.233685732E0
9.595855735E1,6.917150021E-1,1.273117065E1,8.097432137E0
9.600855735E1,3.428896189E0,7.669754505E0,1.729154110E0
9.605855735E1,2.166028023E1,-1.776631927E1,4.320781231E0
9.610855735E1,8.319787979E0,-4.828415298E1,3.686991453E0
9.615855735E1,-3.558601856E0,-1.066829681E0,-4.096000671E0
9.620855735E1,-6.252069473E0,9.713965416E0,-6.637238503E0
9.625855735E1,-9.614816666E0,8.313883781E0,-1.005043411E1
9.630855735E1,-9.928449631E0,1.324327087E1,-4.905689240E0
9.635855735E1,2.268891335E-1,6.134653091E0,1.979400063E1
9.640855735E1,-5.032953262E0,6.219112396E0,-2.162588120E1
9.645855735E1,-9.891117096E0,-3.755826950E-1,-7.151754379E0
9.650855735E1,-2.252069712E0,-3.032377625E1,-6.800338745E0
9.655855735E1,2.410877228E1,-2.477364731E1,-6.997159958E0
9.660855735E1,1.765607071E1,9.393625259E-1,8.960710526E0
9.665855735E1,-4.489545822E0,5.537340641E0,5.792640686E0
9.670855735E1,6.290208817E0,1.276413155E1,1.349391365E1
9.675855735E1,3.095802784E0,9.241481781E0,-8.985092640E-1
9.680855735E1,-5.697414875E-1,1.296074867E1,8.307705879E0
9.685855735E1,2.366700649E0,9.383038521E0,1.381404757E0
9.690855735E1,2.185484695E1,-2.328630447E1,1.057306099E1
9.695855735E1,2.226511002E0,-4.399750900E1,-8.081960678E-1
9.700855735E1,-6.013045311E0,-3.017663002E0,-6.238524437E0
9.705855735E1,-5.317755699E0,1.019840050E1,-6.048106194E0
9.710855735E1,-9.768803596E0,8.507534027E0,-1.048733521E1
9.715855735E1,-9.668619156E0,1.195549393E1,-5.869918823E0
9.720855735E1,2.310852528E0,6.798993587E0,3.336095810E1
9.725855735E1,-4.538824081E0,6.458058357E0,-1.626820374E1
9.730855735E1,-1.264276314E1,-1.350409889E1,-9.849435806E0
9.735855735E1,2.246299267E0,-2.433212471E1,2.238090038E-1
9.740855735E1,2.714777565E1,-2.811853790E1,-1.184438610E1
9.745855735E1,2.120482063E1,5.962307453E0,1.318572426E1
9.750855735E1,-4.178818703E0,1.381589890E1,1.087979412E1
9.755855735E1,6.250989437E0,1.094682884E1,2.733114243E0
9.760855735E1,2.759380341E0,1.262850571E1,8.702993393E0
9.765855735E1,-2.349022388E0,1.000858974E1,4.462312222E0
9.770855735E1,8.586030006E0,-7.850389481E-1,-3.929558516E0
9.775855735E1,2.486063194E1,-4.816482544E1,9.875137329E0
9.780855735E1,-2.894762039E0,-1.735401154E1,-4.557795525E0
9.785855735E1,-3.774668694E0,1.002061844E1,-3.376056910E0
9.790855735E1,-6.588206768E0,7.959143639E0,-8.681347847E0
9.795855735E1,-8.620230675E0,1.256148815E1,-9.801439285E0
9.800855735E1,-6.330542564E0,1.166342545E1,-2.986057758E0
9.805855735E1,4.959755898E0,-4.732731819E0,8.841487885E0
9.810855735E1,-8.988361359E0,1.846027374E-1,-4.149749279E0
9.815855735E1,-1.079191971E1,-2.505115509E1,-1.023600769E1
9.820855735E1,1.329372406E1,-2.372380829E1,-3.221973896E0
9.825855735E1,3.307133865E1,-2.129043579E1,-5.344476700E0
9.830855735E1,5.982370377E0,2.320299149E0,8.825944901E0
9.835855735E1,-2.087662697E0,1.634679604E1,1.898013687E1
9.840855735E1,3.838159561E0,8.972540855E0,2.308372259E0
9.845855735E1,1.393743038E0,1.490086651E1,8.855644226E0
9.850855735E1,2.309534073E0,6.907306671E0,3.945732594E0
9.855855735E1,2.011004829E1,-2.487144470E1,6.619775772E0
9.860855735E1,4.663850784E0,-3.162143707E1,4.025219917E0
9.865855735E1,-3.200695992E0,4.234539032E0,-4.214736462E0
9.870855735E1,-7.138411045E0,5.989552975E0,-9.533464432E0
9.875855735E1,-1.048465157E1,9.673637390E0,-1.058329201E1
9.880855735E1,-9.331922531E0,1.174574375E1,-9.071694374E0
9.885855735E1,3.087993622E0,-4.518270493E-1,3.110062599E1
9.890855735E1,-4.490182400E0,8.083481789E0,-8.856681824E0
9.895855735E1,-1.517751694E1,-3.203938293E1,-1.537571526E1
9.900855735E1,8.548746109E0,-2.260113144E1,2.314348698E0
9.905855735E1,4.068929672E1,-2.763199234E1,-1.300405407E1
9.910855735E1,1.106402588E1,1.243402767E1,5.963080406E0
9.915855735E1,-4.373263836E0,1.286851692E1,8.192108154E0
9.920855735E1,3.183464527E0,1.021440315E1,3.470215321E0
9.925855735E1,-9.493064880E-2,1.201532650E1,5.072045326E0
9.930855735E1,3.321936131E-1,8.709608078E0,3.399570942E0
9.935855735E1,1.517612839E1,-8.173407555E0,1.903273225E0
9.940855735E1,1.643561935E1,-5.231378174E1,-3.705026150E0
9.945855735E1,-3.066742420E0,-1.607488632E1,-4.015381336E0
9.950855735E1,-6.074587822E0,8.880657196E0,-3.789263010E0
9.955855735E1,-9.372172356E0,7.274279118E0,-7.993493557E0
9.960855735E1,-7.838741302E0,1.379352379E1,-9.059078217E0
9.965855735E1,-4.817993164E0,1.384873009E1,-2.956180096E0
9.970855735E1,7.207494736E0,-3.045958996E0,9.085089684E0
9.975855735E1,-5.396056175E0,8.543698311E0,-6.759480000E0
9.980855735E1,-9.642574310E0,-3.890217590E1,-1.377175713E1
9.985855735E1,1.559673691E1,-2.554811859E1,-9.018244147E-1
9.990855735E1,3.809860992E1,-9.397060394E0,8.122589111E1
9.995855735E1,1.595907927E0,3.206538200E0,8.569262505E0
1.000085573E2,2.425778151E0,1.655627060E1,1.374220085E1
1.000585573E2,2.285128593E0,7.822072983E0,2.141627789E0
1.001085573E2,-2.323373795E0,1.220387650E1,5.497138977E0
1.001585573E2,2.032275200E0,9.121688843E0,2.924675465E0
1.002085573E2,2.344777107E1,-2.444078827E1,1.110189342E1
1.002585573E2,4.407193184E0,-4.489315033E1,8.087887764E-1
1.003085573E2,-6.603312492E0,-2.159904003E0,-5.360991478E0
1.003585573E2,-6.688085556E0,1.049906731E1,-5.451437950E0
1.004085573E2,-9.367774010E0,8.543068886E0,-9.791823387E0
1.004585573E2,-8.054512024E0,1.148798180E1,-4.625991344E0
1.005085573E2,3.053383827E-1,4.700559139E0,1.754632378E1
1.005585573E2,-5.742738724E0,9.803122520E0,-1.523536110E1
1.006085573E2,-9.843907356E0,-5.376754761E0,-7.247380257E0
1.006585573E2,1.093101120E1,-2.685905838E1,-6.288756371E0
1.007085573E2,2.112024498E1,-1.947204971E1,-1.254023361E1
1.007585573E2,8.139087677E0,6.595706940E-1,-5.255819321E0
1.008085573E2,-7.455945492E0,1.392974949E1,1.955448723E1
1.008585573E2,6.536230087E0,6.835269928E0,2.215807915E0
1.009085573E2,9.922797680E-1,1.154016495E1,2.470638752E-1
1.009585573E2,2.980082989E0,1.163273239E1,4.341617584E0
1.010085573E2,1.424135208E1,-7.569420815E0,-1.912680149E0
1.010585573E2,1.159869766E1,-5.858439255E1,-5.698277473E0
1.011085573E2,-5.744337082E0,-9.984847069E0,-3.613671780E0
1.011585573E2,-4.478788853E0,8.824927330E0,-4.921161652E0
1.012085573E2,-8.764996529E0,6.645929813E0,-9.557639122E0
1.012585573E2,-1.084786606E1,1.076973724E1,-6.239123344E0
1.013085573E2,-2.992636204E0,1.564341354E1,2.655476570E1
1.013585573E2,-2.433857441E0,-1.804011345E0,-1.561870193E1
1.014085573E2,-9.050992966E0,4.989261627E-1,-2.435307741E0
1.014585573E2,-3.257951498E0,-3.234806824E1,-7.873386383E0
1.015085573E2,1.177404976E1,-1.825348473E1,-5.913407803E-1
1.015585573E2,3.518420792E1,-1.437332821E1,2.118005276E0
1.016085573E2,5.734603405E0,5.525439739E0,1.420715618E1
1.016585573E2,4.646394253E0,1.088072205E1,1.034197235E1
1.017085573E2,4.399053574E0,1.114682388E1,2.706594944E0
1.017585573E2,1.730988145E0,1.523596954E1,4.583360672E0
1.018085573E2,3.777972460E-1,3.609705925E0,6.902786255E0
1.018585573E2,2.101689339E1,-3.796615601E1,4.780887127E0
1.019085573E2,2.348339558E0,-2.818327713E1,5.384552479E-1
1.019585573E2,-6.106244564E0,4.324852943E0,-4.112417221E0
1.020085573E2,-8.578446388E0,6.976118565E0,-8.504673004E0
1.020585573E2,-1.021999550E1,9.862414360E0,-7.875720024E0
1.021085573E2,-6.758611679E0,1.337101746E1,-5.607286930E0
1.021585573E2,5.621514320E0,1.711657047E0,2.062316132E1
1.022085573E2,-4.912841797E0,1.152422333E1,-9.636510849E0
1.022585573E2,-1.080826855E1,-2.374865341E1,-8.401352882E0
1.023085573E2,1.044279289E1,-2.675295448E1,4.942872524E0
1.023585573E2,2.947951889E1,-1.469050694E1,2.504181862E0
1.024085573E2,1.182812881E1,5.223985672E0,-1.348080635E0
1.024585573E2,-4.823142052E0,1.458753586E1,2.050732040E1
1.025085573E2,4.176252365E0,6.310680389E0,3.503556728E0
1.025585573E2,-4.212549925E-1,1.100918579E1,3.908950090E0
1.026085573E2,-2.077428818E0,1.058129501E1,3.020566940E0
1.026585573E2,7.898086548E0,1.075049400E0,-2.302330256E0
1.027085573E2,2.208496094E1,-5.072904205E1,6.288957596E0
1.027585573E2,-4.337177277E0,-1.780696297E1,-5.136645317E0
1.028085573E2,-5.960420609E0,8.865326881E0,-3.410545349E0
1.028585573E2,-7.577518463E0,1.059151936E1,-6.837621212E0
1.029085573E2,-7.775189400E0,1.136900139E1,-8.190069199E0
1.029585573E2,-5.057334423E0,1.163207722E1,-2.565686226E0
1.030085573E2,1.255022526E0,4.984140396E-1,5.216012955E0
1.030585573E2,-5.331474304E0,9.072597504E0,-4.000908852E0
1.031085573E2,-1.101062393E1,-2.738927460E1,-9.595601082E0
1.031585573E2,9.670152664E0,-2.195756531E1,3.288064480E0
1.032085573E2,2.478489685E1,-1.042741871E1,-1.052457619E1
1.032585573E2,5.342488289E0,2.503376007E0,2.847379208E0
1.033085573E2,-1.219755292E0,5.925411224E0,3.878314734E0
1.033585573E2,7.573307514E0,6.414569855E0,4.053166389E0
1.034085573E2,1.927368999E0,1.148788643E1,4.433920383E-1
1.034585573E2,1.715743661E0,1.142306709E1,4.575149536E0
1.035085573E2,1.317003632E1,-7.796395302E0,3.251264811E0
1.035585573E2,1.096657372E1,-4.574542618E1,-7.515979290E0
1.036085573E2,-2.936544418E0,-1.981344986E1,7.996242046E-1
1.036585573E2,-2.725161552E0,7.718205452E0,-3.216472387E0
1.037085573E2,-8.644185066E0,6.858050823E0,-7.919902802E0
1.037585573E2,-9.666538239E0,1.165956020E1,-7.442932129E0
1.038085573E2,-2.987155914E0,1.498018074E1,-6.191694736E-1
1.038585573E2,1.614525557E0,-5.821173668E0,1.917889214E1
1.039085573E2,-4.718164444E0,2.783886433E0,-1.337864399E1
1.039585573E2,-9.352622986E0,-2.810752106E1,-1.932236671E1
1.040085573E2,7.852924347E0,-1.992673111E1,4.169609070E0
