"Time (s)","Gyroscope x (rad/s)","Gyroscope y (rad/s)","Gyroscope z (rad/s)"
5.324229500E-2,2.015796006E-1,-3.649812341E-1,-7.146912813E-1
1.050108890E-1,1.142284349E-1,-5.624375939E-1,-4.417952895E-1
1.558110450E-1,1.230857223E-1,-4.611896873E-1,-2.559449971E-1
2.066120870E-1,4.459185153E-2,-1.489703774E0,-1.821851879E-1
2.574138580E-1,-6.154286116E-2,-2.340308666E0,-1.630962193E-1
3.082148470E-1,-4.046863019E-1,-1.595533013E0,5.482354015E-2
3.590150040E-1,-1.418692708E0,-7.925743461E-1,1.072036922E-1
4.098156240E-1,-2.158428907E0,6.879667044E-1,-1.020114943E-1
4.606173950E-1,-3.105700254E0,-1.193748236E0,-7.330167294E-1
5.114183850E-1,-1.907828689E0,-8.031114340E-1,-1.692046970E-1
5.622185410E-1,-1.333479524E0,1.221694518E-2,8.773293495E-1
6.130196350E-1,-2.860597610E0,-5.192201585E-3,1.257581830E0
6.638214050E-1,-2.855100155E0,-6.397097707E-1,1.685785770E0
7.146224470E-1,-2.697196007E0,7.774558663E-1,5.963396430E-1
7.654226030E-1,-2.237380743E0,-3.451287150E-1,1.057834744E0
8.162236970E-1,-1.425564766E0,-9.741486907E-1,8.156337738E-1
8.670255200E-1,-8.541171551E-1,-1.105022669E0,1.220167428E-1
9.178265620E-1,2.032594234E-1,-1.752215385E0,-5.344913527E-2
9.686267700E-1,1.522536725E-1,-1.209935665E0,-6.166502833E-1
1.019427812E0,8.383878320E-2,-7.354601026E-1,-9.555178285E-1
1.070229687E0,5.405998230E-2,-6.452074051E-1,-1.128845692E0
1.121030728E0,1.424801201E-1,-7.275190949E-1,-9.518527389E-1
1.171830937E0,-4.521796703E-1,1.702736765E-1,-8.892409205E-1
1.222632030E0,-1.085933685E0,7.870767117E-1,-1.093721986E0
1.273433853E0,-1.251931429E0,1.585148692E0,-4.903576374E-1
1.324234947E0,-3.225273490E-1,7.704311013E-1,-2.797680497E-1
1.375035155E0,3.225273490E-1,2.267770469E-1,5.528167635E-2
1.425836249E0,1.270562261E-1,-8.243383765E-1,1.432436854E-1
1.476638384E0,-3.535278440E-1,-3.871244490E-1,-3.368822634E-1
1.527439478E0,-7.333221436E-1,3.555130959E-1,2.716743052E-1
1.578239686E0,-1.811620235E0,8.912261724E-1,-5.589252338E-2
1.629040728E0,-2.268992186E0,1.827960461E-1,-2.023431510E-1
1.679842603E0,-1.948602796E0,-1.894084692E0,1.844758689E-1
1.730643697E0,-1.763516068E0,-1.522994876E0,1.010799527E0
1.781443905E0,-7.562289238E-1,-8.032641411E-1,2.499739647E0
1.832245103E0,-3.564293683E-1,1.945243120E0,3.599722862E0
1.883046978E0,-1.243532300E0,1.254985690E0,6.459710002E-1
1.933848072E0,-1.614011168E0,-5.570927262E-1,3.312319219E-1
1.984648332E0,-5.401417017E-1,-1.936080337E0,1.370588541E0
2.035449478E0,-2.085279942E0,-4.133756161E0,3.834288359E0
2.086251405E0,3.955236077E-2,-1.603474021E0,1.597518325E0
2.137052499E0,2.711703777E0,1.155570269E0,-4.581354558E-3
2.187852811E0,2.968564987E0,2.728043795E0,-1.430909634E-1
2.238653957E0,2.534099817E0,1.215433359E0,-7.243121266E-1
2.289455884E0,2.348707765E-1,1.429382563E0,-6.997255087E-1
2.340257030E0,1.517955422E0,4.023039818E0,-1.774511337E-1
2.391057291E0,1.566517830E0,6.059604883E-1,-6.597150117E-2
2.441858489E0,-4.123218954E-1,1.786728263E0,-1.194817185E0
2.492660416E0,-8.205205798E-1,1.578429341E0,-6.346703172E-1
2.543461561E0,-7.223268747E-1,2.288539171E0,-9.217684865E-1
2.594261874E0,-4.234698713E-1,1.748092175E0,-7.434011102E-1
2.645064114E0,3.817795515E-1,5.314370990E-2,-1.605764747E0
2.695866093E0,5.496098399E-1,1.364938259E0,-1.405712247E0
2.746667239E0,-1.239409089E0,6.015318632E-1,-3.657447994E-1
2.797467551E0,-1.393495321E0,1.031568289E0,2.713688910E-1
2.848268801E0,-1.139535546E0,4.004103839E-1,1.089598775E0
2.899070728E0,-3.097148418E0,2.809897438E-2,-5.430431962E-1
2.949871926E0,-2.511498451E0,1.319430023E-1,-6.963659078E-2
3.000672239E0,-7.986828089E-1,-2.942756653E0,7.443174124E-1
3.051473489E0,-5.925218463E-1,-2.391314268E0,5.812211633E-1
3.102275468E0,-7.192726731E-1,-2.396811962E0,7.956285775E-2
3.153076666E0,-1.141062737E0,-1.898818731E0,2.707580328E-1
3.203877031E0,-2.292051554E0,4.158801079E0,6.499415040E-1
3.254678281E0,2.574263096E0,2.146517277E0,1.085170150E0
3.305480260E0,4.792249680E0,-1.165954709E0,-5.772506446E-2
3.356281510E0,2.173699856E0,1.995179892E0,-3.830012381E-1
3.407081874E0,1.927528501E0,2.541429996E0,-4.889832437E-1
3.457883124E0,2.959096909E0,-2.467211962E0,-1.561783671E0
3.508685156E0,3.133646548E-1,-1.249793530E0,-1.976854444E0
3.559486353E0,-8.857285380E-1,-8.750387281E-2,-5.454866290E-1
3.610286770E0,-1.053864241E0,5.549547076E-1,1.149309158E0
3.661088072E0,-2.247917950E-1,5.523586273E-1,6.342121959E-1
3.711890051E0,-3.527642787E-2,-1.006370857E-1,-1.313474298E0
3.762691301E0,6.235223413E-1,2.529824018E0,-1.447708011E0
3.813491718E0,-2.840286970E0,-1.165496588E0,1.328745484E0
3.864293020E0,-8.484057426E0,1.754505992E0,1.420983434E0
3.915095103E0,-2.674594641E0,-3.878880143E-1,-4.781406820E-1
3.965896353E0,-2.070619583E0,-9.617789984E-1,-1.774511337E-1
4.016696770E0,1.714953631E-1,-1.761530757E0,9.888089895E-1
4.067498072E0,4.166589260E0,-2.831887960E0,1.017060652E-1
4.118300156E0,1.780314326E0,-8.128849864E-1,-1.105480790E0
4.169101406E0,2.881519318E0,2.703762770E0,-8.616000414E-1
4.219901874E0,2.160413980E0,4.431696892E0,-3.193509579E0
4.270703176E0,4.357326031E0,1.231162667E0,-2.010298252E0
4.321505260E0,2.377112150E0,-2.264716178E-1,-5.500679612E-1
4.372306562E0,-7.154548764E-1,2.591672182E0,-5.410579443E-1
4.423107031E0,-1.556438804E0,1.060583591E0,5.453338623E-1
4.473908385E0,-1.880798697E0,-1.243685007E0,1.670361876E0
4.524710468E0,-1.350277901E0,-2.173394442E0,4.691306949E-1
4.575511770E0,2.754462957E0,4.586088657E0,-8.098307252E-1
4.626312239E0,2.400629759E0,-5.559931755E0,-7.229377031E-1
4.677113593E0,-1.258345395E-1,-4.306473255E0,1.326912999E0
4.727915728E0,-7.362083912E0,6.160394549E-1,3.953708887E0
4.778717031E0,-3.975241184E0,-4.778505325E0,7.973083854E-1
4.829517551E0,-2.214015961E0,1.097539783E0,-2.249445021E-1
4.880318906E0,-1.182447553E0,1.122431830E-1,8.463288546E-1
4.931121041E0,2.936342716E0,1.147323847E0,-1.378987730E-1
4.981922395E0,1.338060975E0,4.001049697E-2,3.019112647E-1
5.032722864E0,3.056374311E0,2.969786644E0,-7.847860456E-1
5.083524270E0,1.889350533E0,3.516189575E0,-3.394325495E0
5.134326406E0,3.265436649E0,-3.617742956E-1,-2.117654800E0
5.185127760E0,1.779245377E0,-6.962131858E-1,-1.224901438E0
5.235928281E0,-1.240325332E0,1.226886749E0,6.936170459E-1
5.286729687E0,-1.399451017E0,1.634016484E-1,8.962656260E-1
5.337531874E0,-2.145142794E0,6.032116711E-2,1.318513751E0
5.388333228E0,2.516537905E0,5.544965863E-1,-1.043632507E0
5.439133749E0,5.121954083E-1,-8.420529366E-1,-3.434488773E-1
5.489935208E0,-1.651272893E0,-2.575637579E0,2.309308052E0
5.540737343E0,-3.560170650E0,8.373188972E-1,2.797222376E0
5.591538749E0,-4.911975384E0,1.754658818E-1,9.300149679E-1
5.642339270E0,-1.568655729E0,-1.702278614E0,4.613423944E-1
5.693140728E0,-2.681619525E-1,-7.353073955E-1,1.420525312E0
5.743942916E0,-5.862606764E-1,9.804098308E-2,4.104893506E-1
5.794744322E0,2.008924007E0,4.740174711E-1,-1.964637518E0
5.845544843E0,2.459729195E0,2.381540775E0,-2.635805905E-1
5.896346301E0,4.179874897E0,5.067741394E0,3.512371797E-3
5.947148541E0,3.241155624E0,-2.847464561E0,-1.312405348E0
5.997949947E0,2.756142855E0,1.027292371E0,-2.582204103E0
6.048750520E0,3.607053161E-1,3.512371797E-3,-2.644968629E-1
6.099551978E0,-1.698613524E0,-1.150988936E0,1.227192163E0
6.150354166E0,-2.691545725E0,-4.088095427E-1,2.012283564E0
6.201155624E0,2.336948872E0,-2.086348772E0,-2.024958730E-1
6.251956197E0,4.507289410E0,-1.395022392E0,-2.312362194E0
6.302757708E0,-2.780424118E0,-3.232450962E0,5.233433843E-1
6.353559895E0,-3.119902372E0,-4.227826595E0,5.157841682E0
6.404361353E0,-6.347619057E0,-1.325996637E0,2.653215170E0
6.455161978E0,-1.113421798E0,9.588775039E-1,3.506263196E-1
6.505963437E0,-2.089097738E0,2.052752256E0,8.926005363E-1
6.556765676E0,9.930849075E-1,-7.727217674E-2,1.162289619E0
6.607567135E0,2.241809368E0,6.783458591E-1,-5.399889946E-1
6.658367760E0,3.355689526E0,-1.647149682E0,-7.293516397E-1
6.709169270E0,3.375694752E0,1.827960372E0,-1.770082593E0
6.759971510E0,2.322135925E0,1.897444248E0,-3.576816082E0
6.810772968E0,2.462019920E0,-2.707580328E-1,-2.077338934E0
6.861573593E0,-9.315420873E-3,3.636068404E-1,-1.217876673E0
6.912375103E0,-1.621646762E0,-5.818320066E-2,4.239279926E-1
6.963177343E0,-1.779703498E0,-5.989357233E-1,2.339239597E0
7.013978853E0,-3.826957941E-1,-5.315898061E-1,1.541625738E0
7.064779478E0,6.247592926E0,2.147433519E0,-1.959445238E0
7.115580989E0,-2.693378210E0,-4.240348816E0,-9.739959836E-1
7.166383228E0,-4.726430774E-1,-3.375083923E0,2.408417940E0
7.217184739E0,-4.010517597E0,4.203545570E0,3.578648567E0
7.267985364E0,-5.636287689E0,-4.389090061E0,1.360051394E0
7.318786926E0,-1.809635043E0,1.232537031E0,2.550287247E-1
7.369589218E0,-6.384881139E-1,-8.733588457E-1,1.183974743E0
7.420390676E0,1.234522343E0,1.996248841E0,-3.335226178E-1
7.471191301E0,1.911493778E0,-1.808718681E0,-6.262711287E-1
7.521992864E0,3.885904789E0,2.730487347E0,-7.012526393E-1
7.572795156E0,2.169576645E0,3.933092833E0,-4.488200188E0
7.623596666E0,3.499391317E0,1.786728203E-2,-2.601140261E0
7.674397291E0,1.758323789E0,5.415160656E-1,-1.071426034E0
7.725198853E0,-3.988832533E-1,3.061871827E-1,-1.151447073E-1
7.776001145E0,-1.366923451E0,-6.178719997E-1,1.739998460E0
7.826802656E0,-1.036913276E0,-4.092676565E-2,2.194621563E0
7.877603333E0,5.575508475E-1,4.097257853E-1,2.594573796E-1
7.928404895E0,4.502097130E0,-2.074589968E0,-2.345042706E0
7.979207187E0,-1.557202339E0,-3.675162554E0,-1.258345395E-1
8.030008697E0,-8.493831158E-1,-3.312319219E-1,4.036631584E0
8.080809374E0,-9.238301277E0,8.938222528E-1,2.861972094E0
8.131610937E0,-5.464028716E-1,-3.883308649E0,-9.193251282E-2
8.182413228E0,-2.856016397E0,1.664711475E0,1.589424610E0
8.233214739E0,5.572454333E-1,-9.961391687E-1,1.139077425E0
8.284015416E0,1.609582543E0,2.170951128E0,-3.559712470E-1
8.334817031E0,2.288539171E0,-2.235090017E0,-2.901524492E-2
8.385619322E0,4.037089348E0,2.776300907E0,-1.438698053E0
8.436420833E0,2.311140537E0,3.361797810E0,-5.723944187E0
8.487221562E0,3.504888773E0,-1.271936655E0,-2.752783060E0
8.538023124E0,5.694623590E-1,7.081246972E-1,-8.667922616E-1
8.588825468E0,-1.349056125E0,2.474236727E0,3.016058207E-1
8.639626978E0,-1.966775417E0,1.330119967E-1,1.951962471E0
8.690427708E0,-2.216001034E0,-1.502684206E-1,1.694643021E0
8.741229270E0,3.218706846E0,2.571361542E0,-6.294780970E-1
8.792031614E0,2.588007212E0,-2.908091068E0,-1.868734479E0
8.842833176E0,-5.453338623E-1,-4.848752975E0,-6.215370819E-2
8.893633853E0,-1.770846248E0,-8.499939442E-1,4.514466763E0
8.944435468E0,-9.604198456E0,-3.264978528E-1,2.812340736E0
8.995237812E0,8.478559852E-1,-4.763844967E0,1.168245375E-1
9.046039374E0,-2.752783060E0,2.373752356E0,1.586064935E0
9.096840103E0,4.524851143E-1,9.736905098E-1,7.548545003E-1
9.147641718E0,1.604695797E0,5.615213513E-1,-3.145863488E-2
9.198444062E0,3.961191654E0,-1.188097894E-1,-7.192726731E-1
9.249245624E0,3.489617586E0,2.340919495E0,-2.739039183E0
9.300046353E0,2.891598225E0,4.580743790E0,-5.353465557E0
9.350847968E0,3.563988447E0,-2.190498352E0,-2.275864124E0
9.401650312E0,-5.627430081E-1,1.029430389E0,-5.115845799E-1
9.452451874E0,-1.901109338E0,1.529561520E0,1.119377613E0
9.503252656E0,-2.395590305E0,-1.469851255E0,2.539292097E0
9.554054270E0,-8.254073858E-1,-2.013047218E0,1.499019146E0
9.604856614E0,4.038616657E0,3.046906233E0,-1.337908268E0
9.655658176E0,9.663603902E-1,-5.019179344E0,-9.570449591E-1
9.706458958E0,6.459710002E-2,-5.346593380E0,1.484358907E-1
9.757260572E0,-2.442014694E0,-9.181034565E-1,4.900216579E0
9.808062968E0,-8.002404213E0,3.863608837E-2,4.052513599E0
9.858864531E0,-4.472928941E-1,-1.338213682E0,-2.153236605E-2
9.909665312E0,-2.090319395E0,2.110935450E0,1.450456858E0
9.960466926E0,8.351809382E-1,1.214364409E0,-1.718007922E-1
1.001126932E1,1.786422849E0,3.382566571E-1,-1.826433241E-1
1.006207088E1,4.141086102E0,4.503471553E-1,2.516690791E-1
1.011287167E1,3.916752577E0,2.340003252E0,-2.802261829E0
1.016367328E1,3.031482220E0,2.775231838E0,-4.888916016E0
1.021447474E1,3.254136086E0,-2.250208616E0,-1.912562728E0
1.026527635E1,-1.057682037E0,2.204089642E0,1.611109674E-1
1.031607708E1,-2.071535826E0,3.008728266E0,1.131747246E0
1.036687875E1,-2.413915634E0,-4.715740979E-1,2.247917891E0
1.041768114E1,-1.368755937E0,-5.456393361E-1,1.351346850E0
1.046848276E1,4.207363129E0,1.586370349E0,-1.597976446E0
1.051928348E1,1.137550354E0,-5.562069893E0,-1.710219622E0
1.057008515E1,1.112963676E0,-2.937106371E0,1.333784938E0
1.062088755E1,-4.522713184E0,-1.296981454E0,5.989662647E0
1.067168916E1,-5.748989105E0,-5.557488441E0,3.275821209E0
1.072248994E1,-1.128692985E0,1.488634825E0,2.655658424E-1
1.077329161E1,-2.817227602E0,2.471029758E0,1.674485087E0
1.082409401E1,9.507837296E-1,1.844453335E0,-2.195995897E-1
1.087489557E1,2.171714783E0,-5.082249045E-1,-1.104869962E0
1.092569635E1,4.042434216E0,2.353594542E0,-7.351546884E-1
1.097649802E1,3.093636036E0,3.330339193E0,-3.303614616E0
1.102730041E1,3.566737175E0,2.828986406E0,-4.502097130E0
1.107810203E1,3.202366829E0,-2.241962194E0,-2.224400282E0
1.112890281E1,-1.526965380E0,2.457896709E0,3.689517379E-1
1.117970448E1,-1.902178407E0,2.086654186E0,1.573695302E0
1.123050687E1,-1.775122166E0,-1.913784504E0,2.098565817E0
1.128130848E1,-8.660287261E-1,-2.592130423E0,7.595885396E-1
1.133210932E1,3.478622437E0,4.145209312E0,-1.493521571E0
1.138291098E1,2.253110170E0,-6.374343872E0,-4.844018817E-1
1.143371338E1,-1.225970507E0,-2.334047318E0,6.927008033E-1
1.148451500E1,-7.165696621E0,2.547233105E-1,5.057357311E0
1.153531578E1,-2.994220495E0,-5.276193142E0,2.145448208E0
1.158611750E1,-2.318318129E0,1.337602735E0,1.614469290E0
1.163691989E1,-2.796153426E-1,-1.406475753E-1,1.423732281E0
1.168772151E1,1.009883285E0,2.562351465E0,-7.918107510E-1
1.173852234E1,2.257996798E0,-9.605573416E-1,-4.072824121E-1
1.178932401E1,4.231949806E0,3.279333591E0,-1.045923233E0
1.184012645E1,2.562809706E0,2.445221663E0,-5.933617592E0
1.189092807E1,4.787668228E0,-1.824753523E0,-3.942102671E0
1.194172885E1,5.551074743E-1,2.345958948E0,-5.372401476E-1
1.199253057E1,-2.087570429E0,5.765176296E0,8.842014074E-1
1.204333302E1,-2.016559601E0,1.938676476E0,1.469698548E0
1.209413463E1,-2.820129156E0,-3.255052328E0,2.667875290E-1
1.214493547E1,1.690825224E0,-2.565558553E-1,-1.332868695E0
1.219573718E1,1.727628708E0,-7.559234649E-2,-6.409314871E-1
1.224653963E1,1.621341348E0,-6.183301449E0,-1.761683464E0
1.229734130E1,-1.731141090E0,-5.070948601E0,3.620186329E0
1.234814213E1,-8.232541084E0,1.568350345E-1,6.567677021E0
1.239894380E1,3.035911024E-1,-2.687880754E0,1.003316641E0
1.244974630E1,-1.528950691E0,6.517740488E-1,1.693879485E0
1.250054796E1,1.814216375E-1,1.075702071E0,6.928535104E-1
1.255134875E1,1.833763480E0,-4.637857676E-1,-8.466343284E-1
1.260215052E1,3.594988823E0,1.102121115E0,-2.593046725E-1
1.265295296E1,3.953098059E0,1.837428570E0,-2.090166569E0
1.270375463E1,3.125858068E0,3.899343491E0,-6.111068726E0
1.275455547E1,3.938132286E0,-2.748507261E0,-3.249402046E0
1.280535718E1,-8.298360109E-1,2.831124306E0,-8.664868474E-1
1.285615968E1,-2.425979853E0,3.354467630E0,1.076160192E0
1.290696135E1,-2.493631124E0,-1.980061412E0,1.898055196E0
1.295776218E1,-2.291135311E0,-3.402419329E0,9.329164624E-1
1.300856395E1,2.699792147E0,7.446380615E0,-1.265217423E0
1.305936645E1,7.882983685E-1,-6.604633331E0,1.018587798E-1
1.311016812E1,1.579803705E0,-3.930496693E0,-2.133689404E0
1.316096901E1,-1.502531528E0,-2.230814219E0,4.517673492E0
1.321177073E1,-8.515058517E0,-7.556180358E-1,5.308109760E0
1.326257322E1,-1.265980899E-1,-1.646386027E0,1.006065488E0
1.331337494E1,-2.078102350E0,1.253153205E0,2.386274815E0
1.336417578E1,7.589777559E-2,-4.941754341E-1,8.289197087E-1
1.341497755E1,9.755230546E-1,3.562003136E0,-7.243121266E-1
1.346578005E1,2.165911674E0,-1.835595965E0,1.055238619E-1
1.351658172E1,4.436278343E0,2.624352455E0,-1.252694964E0
1.356738260E1,2.278460264E0,4.447578907E0,-5.252217293E0
1.361818437E1,5.149289608E0,-8.411366940E-1,-2.766069174E0
1.366898687E1,1.557355046E0,5.117372870E-1,-1.321109891E0
1.371978859E1,-1.821393847E0,3.767553091E0,3.695625812E-2
1.377058948E1,-1.866291046E0,1.922641695E-1,1.022558331E0
1.382139125E1,-2.780424118E0,-2.703915358E0,5.790832043E-1
1.387219375E1,3.840702176E-1,8.383878320E-2,-1.216655016E0
1.392299547E1,2.399713516E0,2.962151051E0,-8.394568563E-1
1.397379635E1,2.371461868E0,-4.995050907E0,-7.133168578E-1
1.402459812E1,-1.592631459E0,-3.518480301E0,1.105175376E0
1.407540062E1,-4.614492893E0,-1.432894945E0,5.811295509E0
1.412620239E1,-5.670342445E0,-1.824295282E0,2.924736738E0
1.417700328E1,-1.760614514E0,-1.986780763E0,6.070294380E-1
1.422780505E1,-1.275754452E0,5.964923501E-1,1.982962966E0
1.427860755E1,9.747595191E-1,7.733326554E-1,-7.771504521E-1
1.432940927E1,1.938371062E0,-7.944068313E-1,-6.881194115E-1
1.438021015E1,4.438721657E0,1.734500766E0,-7.884510756E-1
1.443101198E1,3.305752754E0,4.088858604E0,-4.366947174E0
1.448181448E1,5.342775345E0,-1.298050396E-2,-3.559254169E0
1.453261625E1,2.693531036E0,-1.343863964E0,-1.738776684E0
1.458341713E1,-1.566212416E0,3.475262880E0,5.683933496E-1
1.463421890E1,-1.962652206E0,3.686157703E0,1.360356808E0
1.468502145E1,-2.085432529E0,-6.668924689E-1,1.191304922E0
1.473582317E1,-1.499935389E0,-4.125814915E0,-9.405520558E-1
1.478662411E1,2.913283348E0,7.802199364E0,-2.059166193E0
1.483742588E1,1.762599707E0,-7.647807598E0,-7.870767117E-1
1.488822843E1,1.872399569E0,-5.462654114E0,1.639666796E0
1.493903020E1,-5.316509247E0,3.104325771E0,6.081137180E0
1.498983109E1,-5.244734764E0,-6.810794353E0,1.903400064E0
1.504063291E1,-2.280750990E0,5.175403357E-1,9.300149679E-1
1.509143541E1,-1.418387294E0,5.192201734E-1,2.041146040E0
1.514223718E1,9.811733961E-1,1.316681266E0,-5.302154422E-1
1.519303812E1,2.019919157E0,-8.451071978E-1,-9.588775039E-1
1.524383989E1,4.113140106E0,1.951656938E0,1.241547018E-1
1.529464244E1,3.679132938E0,2.143768549E0,-2.222720385E0
1.534544422E1,3.689212084E0,3.749533176E0,-4.906477928E0
1.539624515E1,3.820696831E0,-3.262535095E0,-2.737053871E0
1.544704698E1,-1.332105160E0,4.568831921E0,2.124221325E-1
1.549784948E1,-1.622410297E0,5.755555630E0,1.473058224E0
1.554865125E1,-2.100551128E0,6.270347238E-1,1.099525020E-2
1.559945218E1,-3.336753130E0,-3.380581379E0,-1.553689957E0
1.565025401E1,2.401546001E0,1.633710980E0,-2.296174765E0
1.570105656E1,2.004037142E0,-3.438917398E0,-1.487413049E-1
1.575185833E1,5.888567567E-1,-4.889832497E0,5.654918551E-1
1.580265927E1,-1.439614296E0,-6.325781345E0,5.353465557E0
1.585346109E1,-8.887827873E0,2.616411448E0,4.731775761E0
1.590426364E1,6.458182931E-1,-5.618725777E0,7.064448595E-1
1.595506541E1,-2.346264362E0,2.511345863E0,2.485384703E0
1.600586635E1,1.476723194E0,2.206685692E-1,-4.793623984E-1
1.605666817E1,7.890619636E-1,-2.341072112E-1,-7.227849960E-1
1.610747073E1,3.356605768E0,5.322006941E-1,-5.850389600E-1
1.615827250E1,4.604872227E0,1.606528282E0,-9.680401683E-1
1.620907343E1,3.197021723E0,2.186069727E0,-6.592416286E0
1.625987531E1,3.476942539E0,-1.985253533E-3,-4.392449856E0
1.631067786E1,6.587987542E-1,1.566975951E0,-8.246437907E-1
1.636147963E1,-1.726254344E0,5.678588867E0,5.050179958E-1
1.641228057E1,-2.177670479E0,2.244558334E0,1.726101637E0
1.646308239E1,-3.113793850E0,-3.225273609E0,-1.557660550E-1
1.651388500E1,-1.075396657E0,-3.458464384E0,-1.135565042E0
1.656468677E1,2.595337391E0,8.922951221E-1,-1.387539506E0
1.661548770E1,2.629239321E0,-6.299820423E0,-1.185043693E0
1.666628953E1,-8.231166750E-2,-6.651362896E0,3.862234592E0
1.671709213E1,-5.995465755E0,4.715588093E0,6.291115761E0
1.676789390E1,-1.835901380E0,-5.732648849E0,2.774010181E0
1.681869489E1,-2.914046764E0,4.306931496E0,1.835901380E0
1.686949672E1,2.043284029E-1,-5.292991400E-1,6.468872428E-1
1.692029927E1,4.410317242E-1,1.951656938E0,-1.057834744E0
1.697110109E1,2.702693701E0,-1.847812980E-1,-9.086353183E-1
1.702190203E1,4.021818161E0,1.880493283E0,-5.741963983E-1
1.707270390E1,2.739191771E0,2.219513416E0,-4.296088696E0
1.712350645E1,4.151623249E0,7.959339619E-1,-5.220606327E0
1.717430828E1,1.509250879E0,-9.746068120E-1,-1.806428075E0
1.722510922E1,-1.775427580E0,4.854097843E0,4.482091665E-1
1.727591109E1,-1.311641812E0,3.393561840E0,1.720756769E0
1.732671364E1,-1.561020136E0,1.792836636E-1,1.599656224E0
1.737751547E1,-1.487871170E0,-4.632359982E0,-9.590301663E-2
1.742831640E1,1.701515079E0,2.768665314E0,-1.392273664E0
1.747911828E1,2.892819881E0,-5.767467022E0,-7.893673778E-1
1.752992088E1,1.072342396E0,-7.265417099E0,2.192483425E0
1.758072270E1,-3.618506432E0,2.759349823E0,5.346898556E0
1.763152364E1,-6.462000370E0,-5.749752522E0,3.970659971E0
1.768232552E1,-1.377766013E0,2.011978149E0,1.417471051E0
1.773312812E1,-1.151141644E0,1.514901221E-1,1.731446505E0
1.778392994E1,7.379034758E-1,2.452399015E0,-1.227192163E0
1.783473088E1,1.514595747E0,-6.116108298E-1,-1.102273822E0
1.788553276E1,3.416316032E0,1.321568012E0,-3.147390485E-1
1.793633536E1,3.581397533E0,8.448017836E-1,-1.839719176E0
1.798713718E1,3.217943430E0,2.625268698E0,-7.014969826E0
1.803793817E1,2.546316862E0,-1.780925155E0,-2.969022989E0
1.808874005E1,-1.199398637E0,4.420396328E0,-2.712161839E-1
1.813954265E1,-1.327981949E0,4.593724251E0,1.052795291E0
1.819034448E1,-2.492562294E0,4.566083103E-2,9.265025854E-1
1.824114547E1,-2.598544121E0,-1.775122166E0,-7.501204610E-1
1.829194734E1,2.963220119E0,3.690128326E0,-1.732362866E0
1.834274994E1,1.906454325E0,-6.487656116E0,1.214058921E-1
1.839355177E1,7.571451664E-1,-3.794583082E0,-2.310529798E-1
1.844435281E1,-3.330644608E0,-6.904406548E0,6.382437706E0
1.849515468E1,-3.894456625E0,-2.280598164E0,5.546798706E0
1.854595729E1,-9.213103652E-1,1.021642014E-1,6.644490957E-1
1.859675911E1,-9.915578365E-1,4.966188073E-1,2.287470341E0
1.864756015E1,1.127929449E0,8.919897079E-1,-4.770717025E-1
1.869836203E1,8.393041492E-1,-9.141329527E-1,-6.358919740E-1
1.874916463E1,2.102383614E0,2.255400896E0,-1.527118087E-1
1.879996651E1,3.487785101E0,2.534252644E0,-1.462826490E0
1.885076750E1,2.717812061E0,3.916294575E0,-6.787429333E0
1.890156942E1,3.653782845E0,-6.412369013E-1,-2.945505381E0
1.895237203E1,1.105633527E-1,1.765959382E0,1.994416267E-1
1.900317390E1,-1.543152928E0,6.469177723E0,1.026070714E0
1.905397489E1,-2.107117653E0,1.461299300E0,3.968980014E-1
1.910477682E1,-2.221498728E0,-1.575985998E-1,-1.102579311E-1
1.915557948E1,2.037328243E0,-8.733588457E-1,-1.537197113E0
1.920638135E1,1.989682198E0,-1.510930657E0,-8.999307156E-1
1.925718239E1,1.244295835E0,-1.258039951E0,-2.987042964E-1
1.930798432E1,-3.903924942E0,-6.314480782E0,4.531875610E0
1.935878698E1,-9.073983192E0,-3.713798523E0,4.527294636E0
1.940958885E1,2.489202656E-2,-3.499543905E0,8.469397426E-1
1.946038989E1,-2.020377398E0,2.144990206E0,2.790808439E0
1.951119182E1,1.370741248E0,-3.031329513E-1,-1.018435121E0
1.956199453E1,9.727742672E-1,4.262186885E-1,-1.845674992E0
1.961279640E1,3.462740421E0,8.809944391E-1,-7.530219555E-1
1.966359744E1,4.426352024E0,1.922183633E0,-1.108076930E0
1.971439942E1,3.459991693E0,3.446247578E0,-5.734481335E0
1.976520213E1,3.780839205E0,-1.687618256E0,-3.369586229E0
1.981600401E1,-5.344913527E-2,9.129112363E-1,-6.575770974E-1
1.986680510E1,-2.063136578E0,4.953818321E0,1.112200141E0
1.991760708E1,-2.164079189E0,1.222916245E0,2.214168549E0
1.996840979E1,-3.137616873E0,3.023693897E-2,5.598415136E-1
2.001921172E1,9.987352490E-1,-8.052493930E-1,-1.546665311E0
2.007001281E1,2.307170153E0,-4.880822182E0,-1.770235300E0
2.012081479E1,2.122083426E0,1.494895935E0,-7.618792653E-1
2.017161750E1,-2.286706686E0,-6.923037529E0,3.795652151E0
2.022241942E1,-6.687555790E0,-2.745453119E0,5.821985245E0
2.027322057E1,2.596100792E-3,-5.854054928E0,2.698112249E0
2.032402255E1,-2.609081268E0,4.580896378E0,2.165148020E0
2.037482526E1,2.773246467E-1,3.862081766E-1,1.910424829E-1
2.042562724E1,9.115368128E-1,1.453969240E0,-1.306449533E0
2.047642833E1,2.866706133E0,6.856760383E-1,-8.157865405E-1
2.052723036E1,3.934467077E0,2.845326424E0,-7.009471953E-2
2.057803307E1,3.996926308E0,4.419479966E-1,-4.875782967E0
2.062883505E1,2.787754059E0,5.250232220E-1,-5.630637169E0
2.067963619E1,-2.345653474E-1,1.527118124E-2,-8.677085042E-1
2.073043822E1,-2.058707952E0,6.557139874E0,7.540909648E-1
2.078124098E1,-2.232646704E0,1.971204162E0,1.665169597E0
2.083204291E1,-1.947686434E0,-7.424848676E-1,7.496622801E-1
2.088284406E1,-7.852441669E-1,-1.689450860E0,-1.268729806E0
2.093364609E1,3.880407095E0,1.291483760E0,-1.980214119E0
2.098444885E1,2.573346853E0,-5.242596626E0,-7.589777559E-2
2.103525083E1,-1.133579850E0,-4.307389259E0,3.770454645E0
2.108605203E1,-9.208522797E0,8.480086923E-1,5.282454491E0
2.113685406E1,-7.623373866E-1,-7.754400730E0,1.447860718E0
2.118765682E1,-2.896332264E0,3.784198761E0,2.411166906E0
2.123845880E1,8.858812451E-1,-5.654918551E-1,2.502946556E-1
2.128926000E1,1.516428292E-1,1.435185671E0,-8.637380004E-1
2.134006203E1,3.175794840E0,-4.133908749E-1,-4.714213610E-1
2.139086479E1,4.330601692E0,1.807038903E0,-1.421747059E-1
2.144166682E1,3.623698711E0,1.273921967E0,-5.260769367E0
2.149246797E1,4.431086063E0,-9.761339426E-1,-5.829162598E0
2.154327000E1,8.131904006E-1,1.180462316E-1,-1.575375080E0
2.159407281E1,-1.823989868E0,6.529499054E0,2.936648130E-1
2.164487484E1,-1.549108624E0,3.698680162E0,1.577971220E0
2.169567598E1,-2.842577696E0,-1.768097401E0,7.656970620E-1
2.174647802E1,-2.071535826E0,-3.665694475E0,-1.274990916E0
2.179728083E1,3.527337551E0,1.951198816E0,-2.236006498E0
2.184808286E1,2.448581219E0,-5.324144840E0,-4.472928941E-1
2.189888401E1,-8.110524416E-1,-9.161182046E-1,3.277195454E0
2.194968609E1,-9.106511116E0,2.445374250E0,4.342513084E0
2.200048890E1,-2.672456741E0,-8.821092606E0,9.918632507E-1
2.205129093E1,-2.938938856E0,1.646080613E0,2.534099817E0
2.210209213E1,1.160457134E0,-1.321262598E0,3.541387022E-1
2.215289416E1,3.837648034E-1,2.259218693E0,-7.945595980E-1
2.220369698E1,1.986780763E0,-1.746870399E0,3.324536085E-1
2.225449901E1,4.400238037E0,1.703652978E0,3.723114133E-1
2.230530020E1,3.459686279E0,-2.283041626E-1,-4.671607018E0
2.235610229E1,4.010365009E0,9.999569654E-1,-6.536523819E0
2.240690510E1,1.277892470E0,9.683456421E-1,-1.924779654E0
2.245770713E1,-1.152974248E0,6.415270805E0,3.214583695E-1
2.250850833E1,-1.579192877E0,4.809505939E0,1.592784286E0
2.255931041E1,-2.981545448E0,-2.639165640E0,3.884988427E-1
2.261011328E1,-1.112200141E0,-2.646190405E0,-1.584537745E0
2.266091531E1,2.774010181E0,1.346001983E0,-1.788560748E0
2.271171651E1,1.471378326E0,-3.294299364E0,5.428904891E-1
2.276251859E1,-9.599464536E-1,-5.210680008E0,1.354706526E0
2.281332145E1,-6.614101410E0,-2.471793413E0,6.444591522E0
2.286412348E1,-1.297897696E0,-5.480674267E0,2.741177082E0
2.291492468E1,-2.763167620E0,3.339196444E0,2.118876457E0
2.296572682E1,6.572716236E-1,-3.281776905E-1,4.876088202E-1
2.301652963E1,5.370874405E-1,1.011104941E0,-8.669449687E-1
2.306733172E1,2.960318565E0,-3.341334462E-1,-8.270871639E-1
2.311813291E1,3.952639818E0,2.529060364E0,-8.063183725E-2
2.316893505E1,3.221913815E0,8.254073858E-1,-4.795608997E0
2.321973786E1,3.989443541E0,1.252847672E0,-5.370416164E0
2.327053994E1,1.287055135E0,7.423321605E-1,-1.091278672E0
2.332134114E1,-1.639666796E0,6.350978851E0,6.004628539E-1
2.337214328E1,-1.590798974E0,4.455061913E0,1.371962905E0
2.342294614E1,-2.905189514E0,-9.480349422E-1,-5.424323678E-1
2.347374822E1,-1.902178407E0,-5.546187878E0,-1.622563004E0
2.352454942E1,3.900565147E0,2.580677032E0,-2.047865391E0
2.357535156E1,1.514290333E0,-3.768469334E0,1.693574041E-1
2.362615442E1,-1.590798974E0,-7.205401421E0,2.130482435E0
2.367695651E1,-5.030021667E0,-2.310224295E0,6.446729183E0
2.372775776E1,-2.883657217E0,-2.314652920E0,2.947948933E0
2.377855989E1,-2.704526186E0,2.723920584E0,1.591409802E0
2.382936276E1,-5.864133686E-2,-1.004691005E0,8.568660021E-1
2.388016484E1,1.096623540E0,1.130525589E0,-1.117697716E0
2.393096609E1,2.396659136E0,-9.662076235E-1,-6.303943992E-1
2.398176823E1,3.748616934E0,1.057529330E0,-3.093941510E-1
2.403257114E1,3.776410580E0,4.524851143E-1,-3.925304413E0
2.408337323E1,3.803440571E0,1.743052602E0,-7.034975052E0
2.413417448E1,1.212837219E0,-9.773556143E-2,-2.250972033E0
2.418497666E1,-1.754047871E0,7.223421574E0,7.203416228E-1
2.423577953E1,-1.644553542E0,5.210680008E0,1.575375080E0
2.428658166E1,-3.029802322E0,-1.787186384E0,-7.217160463E-1
2.433738291E1,-1.913020849E0,-5.068199635E0,-1.584537745E0
2.438818510E1,2.776911736E0,3.041561127E0,-1.513984919E0
2.443898797E1,1.627755284E0,-6.723748684E0,6.287145615E-1
2.448979010E1,1.449845910E0,-5.039489746E0,9.223793745E-1
2.454059140E1,-5.382022381E0,2.738122940E-1,6.355254650E0
2.459139359E1,-3.704635859E0,-6.219493866E0,4.092370987E0
2.464219645E1,-3.072408915E0,3.641260624E0,2.358175755E0
2.469299859E1,5.635066032E-1,-1.266439080E0,8.214368224E-1
2.474379989E1,-7.773031294E-2,2.001593828E0,-1.352110386E0
2.479460208E1,2.869607687E0,5.575508475E-1,-1.492910743E0
2.484540500E1,4.080765247E0,8.628217876E-2,-3.161134422E-1
2.489620713E1,3.648743391E0,1.335922956E0,-4.642897129E0
2.494700843E1,3.986541986E0,1.680898905E0,-5.982332706E0
2.499781062E1,1.532921195E0,-8.211314082E-1,-2.229897976E0
2.504861359E1,-2.145295620E0,7.356128216E0,5.106683373E-1
2.509941572E1,-2.034579515E0,4.779421806E0,1.602710485E0
2.515021703E1,-2.768817902E0,-2.699181318E0,8.532009125E-1
2.520101922E1,-1.324927688E0,-3.510081053E0,-1.019809484E0
2.525182213E1,3.708453655E0,3.883156061E0,-2.037022829E0
2.530262427E1,1.547581553E0,-5.659652710E0,-2.469350100E-1
2.535342562E1,3.880407214E-1,-6.640673161E0,2.512872934E0
2.540422781E1,-6.031352997E0,-5.176930502E-2,6.824385643E0
2.545503078E1,-2.699944973E0,-6.811099529E0,3.108296394E0
2.550583291E1,-2.717201233E0,2.955737114E0,2.004953384E0
2.555663422E1,7.533273697E-1,-6.291726828E-1,2.574721277E-1
2.560743645E1,4.807367921E-1,1.002247691E0,-9.414683580E-1
2.565823937E1,3.008422852E0,5.627430081E-1,-3.520007432E-1
2.570904156E1,4.258216381E0,2.584647417E0,-4.764608741E-1
2.575984286E1,3.421660900E0,-8.962656260E-1,-5.635371208E0
2.581064510E1,3.290023327E0,-7.453863621E-1,-6.683890820E0
2.586144807E1,1.281252056E-1,2.401851416E0,-1.231620789E0
2.591225020E1,-2.191414595E0,8.084105492E0,6.178719997E-1
2.596305156E1,-1.776801944E0,3.921792030E0,1.671583533E0
2.601385380E1,-2.923362255E0,-4.021054745E0,7.551599145E-1
2.606465672E1,3.429907262E-1,-2.359244823E0,-1.212684512E0
2.611545890E1,3.107532740E0,4.885250926E-1,-7.078192830E-1
2.616626020E1,1.188861489E0,-4.231338978E0,2.756448388E-1
2.621706244E1,-2.639471054E0,-3.280707836E0,4.822028160E0
2.626786541E1,-1.033752060E1,-2.971008301E0,4.823249817E0
2.631866760E1,-6.090146899E-1,-1.255596519E0,1.564990640E0
2.636946895E1,-1.386317849E0,9.451334476E-1,2.673067570E0
2.642027114E1,5.460974574E-1,1.313627005E0,-1.051878929E0
2.647107411E1,1.392884493E0,4.239279926E-1,-9.985825419E-1
2.652187630E1,3.740370512E0,1.693574041E-1,-5.059342384E-1
2.657267765E1,3.759001255E0,1.134801507E0,-2.626643181E0
2.662347989E1,4.240959644E0,3.177016497E0,-7.273969173E0
2.667428286E1,3.233672619E0,-9.217684865E-1,-3.045684338E0
2.672508505E1,-6.873558760E-1,6.296002865E0,3.403946459E-1
2.677588635E1,-1.602099657E0,5.582838535E0,6.097782850E-1
2.682668859E1,-2.981850863E0,-5.755708218E-1,-2.377723008E-1
2.687749156E1,-3.199465275E0,-6.756886959E0,-8.118160367E-1
2.692829375E1,3.781755447E0,3.412956238E0,-1.748550296E0
2.697909510E1,1.092194915E0,-6.979693413E0,8.052493930E-1
2.702989734E1,1.528492570E0,-4.570359230E0,1.339740753E0
2.708070031E1,-5.960189342E0,1.503447771E0,5.605439663E0
2.713150250E1,-3.502598286E0,-7.270456791E0,3.867426634E0
2.718230385E1,-3.180987120E0,3.659127712E0,2.180419207E0
2.723310609E1,6.650599241E-1,-1.836665034E0,5.314370990E-1
2.728390906E1,-1.800472289E-1,1.683800459E0,-1.014770031E0
2.733471125E1,2.185764313E0,3.565820754E-1,-1.114185452E0
2.738551260E1,3.525199413E0,1.656006932E0,-2.336490713E-2
2.743631484E1,3.524283171E0,1.480388284E0,-2.828070164E0
2.748711781E1,3.751823902E0,3.719907045E0,-6.722527027E0
2.753792000E1,2.877548695E0,-3.734261990E0,-2.660239697E0
2.758872135E1,-1.501157165E0,3.919806957E0,-2.044811249E-1
2.763952359E1,-2.099634647E0,4.100617886E0,7.831062078E-1
2.769032656E1,-1.575222373E0,-8.826743066E-2,2.130635262E0
2.774112875E1,-1.186723471E0,-2.480192661E0,3.723114133E-1
2.779193010E1,2.220277071E0,3.802066088E0,-2.079018593E0
2.784273234E1,2.357870340E0,-5.919262886E0,-4.672981426E-2
2.789353531E1,3.800997138E-1,-5.916972160E0,1.443737507E0
2.794433755E1,-3.421660900E0,5.421269536E-1,6.100225925E0
2.799513890E1,-6.705728531E0,-7.179898739E0,4.859900951E0
2.804594114E1,-1.006523609E0,2.354205370E0,1.012632012E0
2.809674411E1,-3.252761811E-2,2.336490713E-2,1.024085402E0
2.814754630E1,1.910424829E-1,2.283041716E0,-1.513984919E0
2.819834765E1,2.358328581E0,-5.772506595E-1,-1.593700528E0
2.824914989E1,3.663403749E0,2.020835400E0,-7.956285775E-2
2.829995286E1,3.883766890E0,1.017671585E0,-2.270366669E0
2.835075505E1,3.575136185E0,-6.129852533E-1,-7.913220882E0
2.840155645E1,1.405712247E0,1.334854007E0,-2.583273172E0
2.845236051E1,-1.714495540E0,6.464749336E0,1.659977436E-1
2.850316348E1,-1.718618751E0,5.557335854E0,1.543611050E0
2.855396442E1,-3.057595968E0,-1.733889937E0,1.995943487E-1
2.860476577E1,-3.111503124E0,-5.022080898E0,-8.243383765E-1
2.865556801E1,2.658865452E0,3.315831661E0,-1.986322522E0
2.870637103E1,1.341420531E0,-6.252632618E0,5.283828974E-1
2.875717322E1,1.507570982E0,-1.159388065E0,2.434226274E-1
2.880797457E1,-4.539206028E0,-3.575136185E0,5.472275257E0
2.885877686E1,-4.776672840E0,-6.364417553E0,4.666872978E0
2.890957983E1,-2.717506647E0,3.228938580E0,1.308892965E0
2.896038207E1,4.611896873E-1,-1.353637576E0,1.352263093E0
2.901118343E1,4.672981426E-2,1.511083364E0,-7.585195899E-1
2.906198567E1,2.081920147E0,8.383878469E-1,-1.157860994E0
2.911278864E1,3.714867592E0,1.439614296E0,-4.422534108E-1
2.916359087E1,4.355035305E0,-1.769929975E-1,-3.935688972E0
2.921439223E1,3.545662880E0,1.850867152E0,-7.574811459E0
2.926519452E1,1.560714722E0,7.847860456E-1,-1.728086948E0
2.931599749E1,-1.653868914E0,5.704397202E0,5.236487985E-1
2.936679968E1,-2.115516663E0,5.081790924E0,1.660893679E0
2.941760108E1,-2.805010557E0,-3.649812341E-1,5.914528370E-1
2.946840332E1,-2.316179991E0,-5.620405674E0,-4.692834020E-1
2.951920634E1,4.235920429E0,2.368560314E0,-1.918365836E0
2.957000853E1,8.295305967E-1,-3.894304037E0,3.162661791E-1
2.962080989E1,4.101839364E-1,-6.002796173E0,1.978076100E0
2.967161218E1,-6.376023769E0,-1.514748454E0,5.881695747E0
2.972241520E1,-2.647412062E0,-5.135240078E0,3.421508312E0
2.977321739E1,-3.129675865E0,3.823140383E0,2.534252644E0
2.982401879E1,4.865398407E-1,-1.241088867E0,4.427115619E-1
2.987482103E1,-1.747023165E-1,2.201493502E0,-9.355126023E-1
2.992562400E1,3.152277231E0,1.007439852E0,-1.302479029E0
2.997642624E1,4.299906731E0,5.940489769E-1,-9.768974781E-1
3.002722759E1,3.722197771E0,2.379860878E0,-5.509078503E0
3.007802989E1,4.624877453E0,-2.945810854E-1,-5.914375782E0
3.012883291E1,6.546755433E-1,2.376959324E0,-1.498866439E0
3.017963509E1,-1.658297539E0,7.581988811E0,7.533273697E-1
3.023043645E1,-2.006022453E0,3.441360712E0,1.194053650E0
3.028123874E1,-3.403640985E0,-4.121997356E0,-3.950654566E-1
3.033204171E1,-1.380667567E0,-5.414550304E0,-7.643226385E-1
3.038284395E1,2.900150061E0,1.413958669E0,-7.284353375E-1
3.043364530E1,2.015948772E0,-3.915836334E0,1.206423342E-2
3.048444759E1,-6.082511544E-1,-3.611176252E0,3.414788961E0
3.053525061E1,-9.484472275E0,-3.614688516E-1,5.947819710E0
3.058605280E1,-4.271349311E-1,-6.175207615E0,1.579956412E0
3.063685421E1,-2.675969124E0,2.851740360E0,3.266658545E0
3.068765645E1,1.483595252E0,-1.527270913E0,-7.857022882E-1
3.073845947E1,-5.741964281E-2,1.596449256E0,-8.351809382E-1
3.078926171E1,3.017280102E0,1.202300072E0,-1.094332814E0
3.084006306E1,4.213929653E0,8.774821162E-1,-1.342642307E0
3.089086535E1,3.563835621E0,2.877090693E0,-6.623722076E0
3.094166837E1,4.145667553E0,-1.953336835E0,-4.618921757E0
3.099247056E1,1.472141892E-1,4.344498634E0,-2.113531530E-1
3.104327197E1,-2.170645714E0,6.132906437E0,1.288124204E0
3.109407421E1,-2.076727867E0,7.511894107E-1,6.279509664E-1
3.114487723E1,-3.413567305E0,-7.414158583E-1,-3.997995257E-1
3.119567947E1,9.443698525E-1,-1.740456581E0,-1.986169815E0
3.124648082E1,2.228828907E0,-3.316595078E0,-1.190693974E0
3.129728311E1,1.547581553E0,-2.001593828E0,2.257080674E-1
3.134808614E1,-3.855973184E-1,-7.941014290E0,4.250580788E0
3.139888837E1,-8.747485161E0,1.218182087E0,6.947165966E0
3.144968978E1,3.677300513E-1,-3.166937590E0,1.568350315E0
3.150049202E1,-2.346264362E0,2.661156178E0,3.171213627E0
3.155129504E1,7.432484031E-1,8.941276670E-1,-5.187620521E-1
3.160209728E1,8.736643195E-1,5.961869359E-1,-8.779402375E-1
3.165289869E1,3.205879211E0,1.596602082E0,-6.778877378E-1
3.170370098E1,4.310901642E0,2.191872597E0,-2.181793690E0
3.175450400E1,3.831233978E0,1.939898133E0,-7.488529205E0
3.180530624E1,4.031286716E0,-2.433920860E0,-3.484578133E0
3.185610764E1,-8.579349518E-1,3.321481943E0,2.793098986E-1
3.190690988E1,-2.000372171E0,6.226671696E0,1.732210159E0
3.195771291E1,-2.387649298E0,-4.219427407E-1,1.330272675E0
3.200851515E1,-2.872814655E0,-2.912977934E0,-8.539644480E-1
3.205931655E1,2.475764036E0,4.016015530E0,-2.594268322E0
3.211011884E1,1.234064221E0,-7.809834957E0,-2.672456764E-2
3.216092186E1,1.694948435E0,-2.351303816E0,-8.150229454E-1
3.221172410E1,-2.274947882E0,-4.498889923E0,6.693817139E0
3.226252551E1,-6.154133320E0,-3.963482380E0,6.026924610E0
3.231332785E1,-8.681666851E-1,-3.362714052E-1,2.925958335E-1
3.236413087E1,-2.077338934E0,2.276474953E0,1.839108348E0
3.241493311E1,6.891884208E-1,1.718618751E0,-8.115105629E-1
3.246573452E1,3.100813389E0,-5.570927262E-1,-1.198940516E0
3.251653681E1,3.997995377E0,7.867712975E-1,-4.158342779E-1
3.256733983E1,3.906979084E0,1.220930934E0,-3.467016220E0
3.261814207E1,3.921334028E0,-1.928750277E-1,-7.003516674E0
3.266894348E1,1.275449038E0,-1.032331824E0,-2.486453772E0
3.271974577E1,-2.172631025E0,7.217007637E0,7.863131166E-1
3.277054879E1,-1.671583533E0,5.373012543E0,2.064205647E0
3.282135103E1,-2.862735748E0,-1.530019641E0,6.664343476E-1
3.287215244E1,-2.691087484E0,-3.107838154E0,-1.637070656E0
3.292295473E1,2.894346952E0,4.717726231E0,-1.727017879E0
3.297375775E1,1.572473526E0,-7.745543480E0,1.123806238E0
3.302455999E1,1.216655016E0,-6.392516613E0,7.649334669E-1
3.307536140E1,-4.410775185E0,1.071120620E0,6.693358898E0
3.312616369E1,-3.869106531E0,-5.731732368E0,4.384661674E0
3.317696671E1,-3.212751150E0,3.564599276E0,1.753742456E0
3.322776890E1,1.374406274E-3,5.331169367E-1,7.693621516E-1
3.327857030E1,7.279772162E-1,1.442210436E0,-7.441646457E-1
3.332937259E1,3.354773045E0,1.193442822E0,-1.245670319E0
3.338017561E1,4.115125179E0,2.271893740E0,-1.544374585E0
3.343097780E1,3.138380527E0,2.853420258E0,-5.284134388E0
3.348177921E1,4.693444729E0,-7.262973785E-1,-4.538136959E0
3.353258145E1,3.877353072E-1,1.669750929E0,-1.039356589E0
3.358338447E1,-2.099787474E0,7.350477695E0,9.321529269E-1
3.363418671E1,-2.309002638E0,2.136896372E0,1.640124917E0
3.368498806E1,-3.041866541E0,-2.062831163E0,-4.289674759E-1
3.373579030E1,1.177866220E0,-1.637223363E0,-1.877897143E0
3.378659332E1,2.434379101E0,-2.360161066E0,-2.374668717E-1
3.383739551E1,1.065470338E0,-2.384442329E0,4.819584787E-1
3.388819686E1,-3.164341450E0,-3.248638391E0,3.786642075E0
3.393899916E1,-1.085048008E1,-4.359005928E0,4.348621845E0
3.398980212E1,-3.709369898E-1,-1.720909476E0,7.253811359E-1
3.404060431E1,-1.651120186E0,1.490467310E0,2.327480793E0
3.409140567E1,1.117392302E0,3.248180151E-1,-9.533798695E-1
3.414220791E1,2.656727552E0,-9.694145918E-1,-1.654021621E0
3.419301087E1,3.958901167E0,6.545228362E-1,-1.268424392E0
3.424381306E1,3.370960712E0,2.343821049E0,-2.933899403E0
3.429461436E1,4.715740681E0,3.049196720E0,-5.341859341E0
3.434541660E1,2.853267431E0,-1.504669547E0,-2.759807825E0
3.439621957E1,-1.802152157E0,6.756428719E0,1.093721986E0
3.444702171E1,-1.494743228E0,5.376066685E0,1.394258857E0
3.449782306E1,-3.206184626E0,-1.165649295E0,-1.035386100E-1
3.454862525E1,-2.082530975E0,-3.867274046E0,-1.334854007E0
3.459942822E1,3.396157980E0,1.372115612E0,-1.858960867E0
3.465023035E1,7.369872332E-1,-4.012655735E0,5.887040496E-1
3.470103166E1,8.932114244E-1,-3.076226711E0,1.174353838E0
3.475183390E1,-6.555459976E0,-1.129609346E0,5.015972137E0
3.480263681E1,-6.028451443E0,-7.124769688E0,3.447010994E0
3.485343895E1,-2.181182861E0,9.466605186E-1,1.706249118E0
3.490424025E1,8.571714163E-1,-1.143047929E0,5.925218388E-2
3.495504244E1,7.739434838E-1,1.164580345E0,-1.420983434E0
3.500584535E1,3.362866879E0,4.020902216E-1,-1.064248681E0
3.505664749E1,4.321744442E0,2.653520584E0,-5.648810267E-1
3.510744879E1,2.407501698E0,4.803092003E0,-4.928621292E0
3.515825098E1,6.156576633E0,-2.901524544E0,-4.175140858E0
3.520905390E1,1.036913276E0,1.984795451E0,-5.581616759E-1
3.525985598E1,-1.916380525E0,6.315702438E0,1.210241079E0
3.531065728E1,-1.689145327E0,1.004691005E0,1.911951900E-1
3.536145942E1,-3.130286694E0,-1.235285878E0,-9.287932515E-1
3.541226233E1,1.727323294E0,3.149833918E0,-2.025722265E0
3.546306442E1,1.423732281E0,-7.051467896E0,-1.236965694E-2
3.551386567E1,7.033905983E-1,4.092676565E-2,-9.439117312E-1
3.556466785E1,-2.275406010E-2,-7.210441113E0,5.353159904E0
3.561547072E1,-9.332983017E0,-1.513679504E0,6.428098202E0
3.566627280E1,1.236202121E0,-5.996382236E0,1.628518820E0
3.571707405E1,-2.919544458E0,3.513135195E0,2.386427641E0
3.576787619E1,4.442386627E-1,6.441384554E-1,-2.806843221E-1
3.581867905E1,9.249754548E-1,2.102841735E-1,-7.876875401E-1
3.586948114E1,3.278875351E0,9.739959836E-1,-1.401283622E0
3.592028238E1,4.103213787E0,2.904731512E0,-1.768097401E0
3.597108452E1,2.966427088E0,2.174158096E0,-6.077777386E0
3.602188733E1,4.382676601E0,-2.593352079E0,-4.874103069E0
3.607268942E1,-1.829487532E-1,2.049087048E0,-7.589777112E-1
3.612349067E1,-1.974869132E0,6.184981346E0,1.053864241E0
3.617429275E1,-1.702278614E0,3.133646548E-1,1.363869190E0
3.622509561E1,-3.603082657E0,-2.029998064E0,6.403206587E-1
3.627589764E1,2.415595531E0,4.367099762E0,-1.732973695E0
3.632669884E1,1.329509020E0,-7.224032402E0,1.368297935E-1
3.637750098E1,1.565907001E0,-4.711312294E0,-1.391662717E0
3.642830379E1,-1.287055135E0,-1.159540772E0,6.195212841E0
3.647910582E1,-9.986130714E0,-2.854031086E0,5.592764854E0
3.652990702E1,5.453338623E-1,-2.662683249E0,5.192201734E-1
3.658070910E1,-2.086501598E0,1.934553266E0,2.026638508E0
3.663151192E1,1.470156670E0,1.073411345E0,-7.838697433E-1
3.668231395E1,2.057028055E0,-1.122279167E0,-1.288735032E0
3.673311514E1,3.802829504E0,1.487260342E0,-1.142284393E0
3.678391723E1,2.576095581E0,2.926416397E0,-3.105089426E0
3.683472004E1,4.288758755E0,5.427377820E-1,-5.867951393E0
3.688552207E1,2.695058107E0,-1.864305854E0,-2.224094868E0
3.693632322E1,-2.194010735E0,5.281385422E0,1.517802715E0
3.698712530E1,-7.870767117E-1,3.382261276E0,1.205507040E0
3.703792806E1,-2.275711536E0,-1.079672500E-1,7.853968740E-1
3.708873009E1,-1.128387570E0,-8.011261821E-1,-9.190196991E-1
3.713953124E1,3.007964611E0,1.193900943E0,-1.900803924E0
3.719033327E1,4.633276463E-1,-5.078889370E0,-1.143506050E0
3.724113608E1,1.231926203E0,-2.989944696E0,9.341381788E-1
3.729193806E1,-6.334027767E0,1.883852959E0,5.499152660E0
3.734273921E1,-6.068309307E0,-3.662334681E0,3.191676855E0
3.739354129E1,-2.234479189E0,-4.245388508E-1,1.831625462E0
3.744434405E1,2.739650011E-1,-8.680139780E-1,1.085780978E0
3.749514603E1,1.109909415E0,2.664821148E0,-1.306602240E0
3.754594712E1,1.497644782E0,-1.490161896E0,1.931804419E-1
3.759674916E1,4.789500713E0,1.333937645E0,7.857022882E-1
3.764755192E1,2.836774588E0,2.487370014E0,-3.075005054E0
3.769835390E1,5.391643524E0,1.942036152E0,-4.799121380E0
3.774915504E1,2.844563007E0,2.014268786E-1,-1.903705478E0
3.779995707E1,-1.133427143E0,6.840420246E0,5.001311898E-1
3.785075983E1,-1.692199588E0,3.729069710E0,-6.459710002E-2
3.790156176E1,-3.422882557E0,-8.826743066E-2,-9.323056340E-1
3.795236291E1,-7.634063363E-1,-4.848142147E0,-1.386775970E0
3.800316489E1,3.780991793E0,-1.657839417E0,-1.712968469E0
3.805396764E1,2.044047594E0,-4.685809135E0,4.417952895E-1
3.810476957E1,1.873010397E0,-7.435843468E0,2.960471153E0
3.815557072E1,-7.596190929E0,2.795389652E0,6.651362896E0
3.820637270E1,-1.867512822E0,-8.266748428E0,2.395895720E0
3.825717546E1,-3.527184725E0,4.344040394E0,1.984031916E0
3.830797738E1,1.043021679E-1,4.013266563E-1,8.585458398E-1
3.835877848E1,1.117850468E-1,1.384638071E0,-7.753179073E-1
3.840958046E1,3.007506371E0,6.775823236E-1,-1.621494055E0
3.846038317E1,3.681729078E0,1.519940734E0,-1.031262875E0
3.851118509E1,3.250929117E0,2.009840250E0,-3.752434731E0
3.856198619E1,4.540427685E0,1.528034449E0,-5.445703506E0
3.861278817E1,1.652189136E0,-8.962656260E-1,-2.095053434E0
3.866359087E1,-2.239518881E0,5.598109722E0,9.042066336E-1
3.871439280E1,-1.906148911E0,2.098412991E0,1.066539288E0
3.876519384E1,-2.535016060E0,-1.061194420E0,1.544527292E0
3.881599582E1,2.935121059E-1,6.001574174E-2,4.734066129E-2
3.886679853E1,2.984141588E0,2.689255178E-1,-1.317597508E0
3.891760046E1,9.633061290E-1,-3.640954971E0,-1.519177079E0
3.896840150E1,3.697153032E-1,-4.626709938E0,4.029453754E0
3.901920348E1,-7.995685101E0,6.849125028E-1,5.139516354E0
3.907000619E1,-2.795847893E0,-7.453558445E0,1.792836666E0
3.912080806E1,-3.694404125E0,2.822419643E0,2.169118643E0
3.917160910E1,-3.487937748E-1,8.648070097E-1,5.812211633E-1
3.922241103E1,1.378834963E0,8.420529366E-1,-7.508839965E-1
3.927321374E1,3.519549131E0,3.613161445E-1,-5.294518471E-1
3.932401561E1,3.884224892E0,3.086611271E0,-7.044596076E-1
3.937481666E1,3.467627287E0,2.388412714E0,-6.016998291E0
3.942561864E1,4.986346245E0,-3.117459059E0,-4.056025982E0
3.947642129E1,-2.328855246E-1,3.891097069E0,-1.175880954E-1
3.952722317E1,-1.413500547E0,4.461933613E0,6.992673874E-1
3.957802421E1,-2.049087048E0,9.662076235E-1,7.937960029E-1
3.962882614E1,-3.065078735E0,-7.214106321E-1,-3.817795217E-2
3.967962879E1,3.033620119E0,1.988307834E0,-1.750230074E0
3.973043067E1,1.414874911E0,-6.643422127E0,-2.553341687E-1
3.978123166E1,1.668529272E0,-2.188054800E0,-1.142284393E0
3.983203358E1,-3.119749546E0,-5.584060192E0,6.261795044E0
3.988283624E1,-8.608822823E0,-1.525743723E0,5.544813156E0
3.993363811E1,-7.266027927E-1,-1.624242902E0,8.388460279E-1
3.998443916E1,-1.891641259E0,1.207797766E0,2.662072420E0
4.003524103E1,9.591829181E-1,1.908897638E0,-4.569137394E-1
4.008604369E1,1.731141090E0,-1.133579850E0,-7.134696245E-1
4.013684556E1,4.105809689E0,1.075702071E0,-9.552124143E-1
4.018764655E1,3.462129593E0,2.597475290E0,-3.253830671E0
4.023844843E1,4.866161823E0,3.427005768E0,-5.190674782E0
4.028925108E1,3.784962416E0,-9.462023973E-1,-2.349165916E0
4.034005291E1,-1.563921690E0,5.845197201E0,8.774821162E-1
4.039085395E1,-1.413500547E0,4.023345470E0,6.264238358E-1
4.044165582E1,-3.059733868E0,-5.456393361E-1,-1.572931744E-2
4.049245843E1,-7.287407517E-1,-4.194382668E0,-9.651386738E-1
4.054326025E1,2.883046389E0,8.299887180E-1,-1.223832488E0
4.059406124E1,1.504516840E0,-5.197546482E0,-2.599155009E-1
4.064486317E1,6.236750484E-1,-5.263670921E0,3.031940460E0
4.069566577E1,-7.841751575E0,3.015294790E0,5.207625389E0
4.074646759E1,-2.744231224E0,-8.257585526E0,1.969676971E0
4.079726858E1,-3.069813013E0,2.266854286E0,2.481566906E0
4.084807046E1,6.154286265E-1,-5.401417017E-1,8.093725890E-3
4.089887306E1,4.118637741E-1,1.932262540E0,-7.559235096E-1
4.094967488E1,3.598959446E0,5.057815313E-1,-6.562026739E-1
4.100047582E1,4.605483055E0,2.443847179E0,-8.287670016E-1
4.105127770E1,2.602667570E0,3.823598385E0,-5.609410286E0
4.110208030E1,5.141195774E0,-2.278154850E0,-4.285246372E0
4.115288212E1,6.062658876E-2,3.607205868E0,-2.081461996E-1
4.120368306E1,-1.787644506E0,6.557139874E0,5.387672782E-1
4.125448494E1,-2.096885920E0,-3.710897267E-2,-2.551814318E-1
4.130528749E1,-3.592545509E0,-2.454078913E0,-2.255553454E-1
4.135608931E1,2.450719118E0,1.725948930E0,-1.666849494E0
4.140689025E1,1.388761282E0,-5.341248512E0,-1.985253580E-2
4.145769212E1,2.290982723E0,-4.083971977E0,-1.280488610E0
4.150849468E1,-1.587897420E0,-2.411624908E0,5.823970318E0
4.155929650E1,-1.012494564E1,-2.095816851E0,4.525156498E0
4.161009744E1,9.643751383E-1,-3.810770512E0,5.934380889E-1
4.166089926E1,-2.127886534E0,8.771766424E-1,2.893736124E0
4.171170181E1,5.157077909E-1,1.317139387E0,-3.037438095E-1
4.176250364E1,1.397465825E0,-3.578037918E-1,-4.785988331E-1
4.181330457E1,4.382218361E0,7.334748507E-1,-3.571929336E-1
4.186410640E1,3.400586605E0,3.007811785E0,-2.791877508E0
4.191490895E1,4.458421230E0,2.898164749E0,-5.777545929E0
4.196571072E1,3.456326485E0,-2.917406559E0,-2.882588148E0
4.201651166E1,-1.632336617E0,4.563945293E0,4.425588250E-1
4.206731348E1,-1.425412059E0,4.391991615E0,3.619270027E-1
4.211811603E1,-2.538375854E0,-8.428165317E-1,3.410054743E-1
4.216891780E1,-2.510735035E0,-1.794974685E0,-8.640434742E-1
4.221971869E1,2.517759800E0,5.130506039E0,-2.165300846E0
4.227052051E1,2.063900232E0,-5.890858173E0,4.465293586E-1
4.232132306E1,9.558232427E-1,-3.920723200E0,2.377723008E-1
4.237212483E1,-4.251802444E0,-9.987352788E-2,5.152801991E0
4.242292577E1,-7.284964561E0,-8.186117172E0,4.252413273E0
4.247372754E1,-8.649597168E-1,-4.384356141E-1,4.271349311E-1
4.252453009E1,-6.322268844E-1,1.111742020E0,1.194817185E0
4.257533181E1,5.202891231E-1,9.272661209E-1,-8.735115528E-1
4.262613275E1,3.283609390E0,8.756495714E-1,-1.696475506E0
4.267693452E1,3.991428614E0,2.241503954E0,-1.493216157E0
4.272773707E1,2.992235184E0,3.962871552E0,-4.351217747E0
4.277853879E1,5.046667576E0,-1.112810969E0,-3.419370174E0
4.282933973E1,1.612636745E-1,4.064730167E0,3.103103936E-1
4.288014150E1,-1.713579297E0,5.473496914E0,1.399451017E0
4.293094405E1,-2.132315159E0,-1.756185889E-1,-3.878880143E-1
4.298174577E1,-2.982461691E0,-1.860029936E0,-8.803836107E-1
4.303254666E1,2.212946892E0,2.942756712E-1,-1.438698053E0
4.308334843E1,1.161831498E0,-5.759220600E0,-7.017107606E-1
4.313415093E1,2.126206636E0,-4.682144225E-1,-1.504211426E0
4.318495270E1,7.391251624E-2,-8.737254143E0,4.950306416E0
4.323575358E1,-9.192487717E0,3.223288298E0,6.002948761E0
4.328655535E1,-4.234698713E-1,-4.001812935E0,1.784132123E0
4.333735785E1,-2.216764688E0,1.705943704E0,2.396659136E0
4.338815957E1,6.094728708E-1,6.452074051E-1,1.111742035E-1
4.343896046E1,1.183058381E0,-3.843756318E-1,-1.005149126E0
4.348976223E1,3.740065098E0,1.180767775E0,-1.065164924E0
4.354056473E1,2.960623980E0,1.728545070E0,-2.822725296E0
4.359136645E1,3.731971264E0,6.201015949E0,-5.128368378E0
4.364216733E1,4.335640907E0,-1.824295282E0,-3.173962355E0
4.369296910E1,-9.436063170E-1,4.348316193E0,-7.559234649E-2
4.374377155E1,-1.603626728E0,3.527032137E0,5.528167486E-1
4.379457327E1,-3.354925871E0,-1.646080613E0,9.365815520E-1
4.384537416E1,-6.481089592E-1,-1.405712247E0,-2.594573796E-1
4.389617593E1,2.591519594E0,8.104416132E-1,-1.050046444E0
4.394697837E1,2.257385969E0,-4.942517757E0,-3.231382072E-1
4.399778009E1,-2.189887464E-1,-5.985234261E0,1.649440289E0
4.404858098E1,-4.288147926E0,-9.362761378E-1,6.599746704E0
4.409938275E1,-4.544550896E0,-6.256145000E0,4.705356598E0
4.415018520E1,-2.295716763E0,1.611262321E0,7.010999322E-1
4.420098692E1,-4.172086716E-1,7.878402472E-1,6.308525205E-1
4.425178775E1,6.255075932E-1,1.444806457E0,-5.210527182E-1
4.430258952E1,3.669206858E0,3.197785318E-1,-1.079519868E0
4.435339197E1,3.915836334E0,3.915225506E0,-1.824906230E0
4.440419369E1,3.147085190E0,4.225994110E0,-5.417146206E0
4.445499452E1,5.559320927E0,-2.918322802E0,-3.965314865E0
4.450579629E1,-5.619794726E-1,4.075725555E0,-2.107422985E-2
4.455659874E1,-1.496881247E0,6.036850929E0,1.237118363E0
4.460740041E1,-2.675663710E0,4.553866386E-1,-1.084253844E-2
4.465820129E1,-3.562461138E0,-8.263236284E-1,-6.461237073E-1
4.470900301E1,2.956653357E0,1.149919987E0,-1.046534061E0
4.475980546E1,1.639666796E0,-5.871769428E0,-6.125270724E-1
4.481060718E1,2.920613527E0,-2.704220772E0,-9.610154629E-1
4.486140801E1,-3.447316408E0,-3.015600204E0,6.326697826E0
4.491220973E1,-9.670781136E0,-3.201297760E0,4.971685886E0
4.496301218E1,8.098307252E-1,-3.485799789E0,6.163448691E-1
4.501381384E1,-2.395590305E0,1.896222591E0,2.318012714E0
4.506461473E1,1.922641695E-1,1.672957897E0,-6.528429985E-1
4.511541640E1,2.547538519E0,1.308740228E-1,-1.702431321E0
4.516621890E1,3.968216419E0,1.138466597E0,-1.358371615E0
4.521702056E1,3.584299088E0,2.061609507E0,-4.021665573E0
4.526782140E1,5.546187878E0,-4.062134326E-1,-6.791094303E0
4.531862311E1,1.776038408E0,3.080197275E-1,-2.620229244E0
4.536942556E1,-2.450108290E0,8.083189011E0,8.338065147E-1
4.542022723E1,-2.242878437E0,1.652341843E0,7.847860456E-1
4.547102801E1,-2.518217802E0,-9.205468297E-1,-1.853921413E-1
4.552182973E1,5.131116882E-2,1.276212692E0,-1.869803429E0
4.557263218E1,1.114948988E0,-2.757059097E0,-3.011476994E-1
4.562343384E1,2.727891207E0,-7.826633453E0,-1.213295341E0
4.567423468E1,1.609887958E0,-3.986541986E0,5.897577763E0
4.572503640E1,-1.104793644E1,2.601445675E0,6.132143021E0
4.577583884E1,6.206207871E-1,-6.445965767E0,7.966975570E-1
4.582664051E1,-2.651382446E0,1.486038685E0,2.498976231E0
4.587744129E1,-3.857500553E-1,2.024653196E0,-9.193251282E-2
4.592824301E1,2.416511774E0,3.717005551E-1,-9.350544214E-1
4.597904546E1,4.284024715E0,-1.181836724E0,1.476723254E-1
4.602984712E1,3.842381954E0,2.722240925E0,-2.202562571E0
4.608064791E1,4.474914074E0,2.743620396E0,-6.607840061E0
4.613144962E1,3.645536423E0,-2.882282734E0,-3.566278934E0
4.618225207E1,-1.800014138E0,5.897882938E0,6.413896382E-2
4.623305369E1,-2.118265629E0,5.141654015E0,3.471139669E-1
4.628385452E1,-3.690586329E0,-1.049130201E0,1.331647038E-1
4.633465619E1,-2.358328581E0,1.246128380E-1,-5.748072863E-1
4.638545864E1,3.975546598E0,2.082683802E0,-1.054933190E0
4.643626025E1,2.778133392E0,-6.326392174E0,2.432699203E-1
4.648706108E1,6.384881139E-1,-3.995246410E0,5.265503526E-1
4.653786275E1,-4.261423111E0,1.594311297E-1,6.953121662E0
4.658866520E1,-7.155159473E0,-9.983687401E0,4.137268543E0
4.663946686E1,-1.047297597E0,1.224596024E0,9.210049510E-1
4.669026765E1,-5.329642296E-1,9.498675168E-2,1.827196836E0
4.674106931E1,4.153761268E-2,1.919587493E0,-6.236750484E-1
4.679187176E1,2.677343607E0,5.592306852E-1,-1.514443040E0
4.684267337E1,3.697305679E0,1.928444743E0,-1.161984205E0
4.689347416E1,2.816311359E0,2.656421900E0,-4.778963566E0
4.694427587E1,4.551880836E0,1.257734537E0,-5.192507267E0
4.699507827E1,2.091082811E0,-5.120427012E-1,-2.300145388E0
4.704587989E1,-2.147280931E0,6.003101349E0,7.217160463E-1
4.709668072E1,-1.626991630E0,2.226538181E0,8.742751479E-1
4.714748238E1,-3.422577143E0,2.121167034E-1,6.922426820E-1
4.719828478E1,8.217422962E-1,1.310420036E0,-1.136175871E0
4.724908640E1,2.217070103E0,-3.115626335E0,-8.470924497E-1
4.729988723E1,3.203893900E0,-3.049960375E0,-1.150530815E0
4.735068890E1,-2.622061968E-1,-6.647392750E0,3.575899839E0
4.740149129E1,-7.207081318E0,1.867360115E0,6.578366756E0
4.745229291E1,-2.633362532E0,-7.830603600E0,2.687117100E0
4.750309369E1,-2.919086456E0,2.368560314E0,1.555522561E0
4.755389535E1,-5.558710098E-1,7.881456614E-1,1.107466102E0
4.760469780E1,1.227650285E0,1.430451512E0,-6.557445526E-1
4.765549942E1,3.944851637E0,-9.336800575E-1,-8.296833038E-1
4.770630020E1,4.021054745E0,2.909923553E0,-1.872246861E0
4.775710186E1,2.748659849E0,3.983335018E0,-5.863369942E0
4.780790426E1,4.828136921E0,-1.402199864E0,-4.396420479E0
4.785870587E1,6.455128193E-1,2.004495382E0,-9.981244206E-1
4.790950666E1,-2.371309042E0,5.617198467E0,7.765395641E-1
4.796030832E1,-2.905342340E0,-1.078145385E0,5.558710098E-1
4.801111072E1,-3.831233978E0,1.328592747E-1,5.450284481E-1
4.806191233E1,3.999980450E0,2.516079903E0,-1.671125412E0
4.811271311E1,8.880192041E-1,-6.936170578E0,3.162661791E-1
4.816351478E1,2.231119633E0,-1.202300072E0,-1.393800735E0
4.821431723E1,-1.922947168E0,-3.394325495E0,5.440511227E0
4.826511884E1,-9.937263489E0,-3.939353943E0,5.242749214E0
4.831591962E1,1.459161401E0,-3.767553091E0,9.976662993E-1
4.836672134E1,-2.628475666E0,2.068786860E0,2.551508904E0
4.841752374E1,7.090409398E-1,1.546665311E0,-4.727957845E-1
4.846832535E1,1.613705754E0,3.100049868E-2,-7.255338430E-1
4.851912619E1,3.986541986E0,1.930430055E0,-9.596410394E-1
4.856992785E1,3.031024218E0,2.090319395E0,-4.042892456E0
4.862073003E1,4.389395714E0,1.931193590E0,-6.729856968E0
4.867153170E1,2.621603727E0,-1.181073189E0,-2.466295719E0
4.872233248E1,-2.386733055E0,6.127714157E0,1.093263865E0
4.877313420E1,-1.277128935E0,3.115320921E0,8.086090684E-1
4.882393665E1,-2.928249121E0,-1.573389769E0,1.156639338E0
4.887473832E1,-1.078145429E-1,3.054236295E-3,-3.695625961E-1
4.892553915E1,2.427659750E0,-2.736595869E-1,-1.034317136E0
4.897634087E1,2.232188702E0,-5.263365269E0,-6.584933400E-1
4.902714332E1,-2.443388999E-1,-3.234283447E0,3.751365662E0
4.907794498E1,-8.940971375E0,-4.106420577E-1,5.485866547E0
4.912874587E1,-9.049702287E-1,-8.108080864E0,2.280140162E0
4.917954764E1,-2.944894552E0,2.472709656E0,2.273267984E0
4.923034977E1,5.868715048E-1,-1.656923145E-1,1.835595965E-1
4.928115144E1,1.278961420E0,4.547757804E-1,-8.287670016E-1
4.933195232E1,3.544135809E0,7.130114436E-1,-1.115865231E0
4.938275404E1,3.819169760E0,1.848271132E0,-2.239213228E0
4.943355654E1,3.066453218E0,3.822071314E0,-6.539577961E0
4.948435826E1,3.600181103E0,-1.367076159E0,-3.981807947E0
4.953515915E1,-1.200009465E0,5.423101902E0,4.871506989E-2
4.958596128E1,-2.300297976E0,4.669316292E0,5.996993184E-1
4.963676378E1,-3.202977657E0,-2.070161343E0,5.444176197E-1
4.968756535E1,-1.009577751E0,-4.949389994E-1,-5.606050491E-1
4.973836628E1,2.987043142E0,1.528187156E0,-7.811209559E-1
4.978916805E1,2.792946339E0,-5.578409672E0,-1.728850484E0
4.983997061E1,-1.471378326E0,-3.619422674E0,4.220343590E0
4.989077238E1,-6.655486107E0,3.000787199E-1,5.444634438E0
4.994157332E1,-2.913894176E0,-8.803378105E0,2.893888950E0
4.999237519E1,-2.518065214E0,1.814063668E0,1.406628489E0
5.004317774E1,5.602996349E-1,9.779664874E-1,5.039489828E-3
5.009397957E1,1.033095479E0,9.605573118E-2,-8.165500760E-1
5.014478050E1,3.359965324E0,1.580414534E0,-1.228566527E0
5.019558238E1,3.847879648E0,3.165868521E0,-1.920809150E0
5.024638555E1,3.301476717E0,2.477901936E0,-6.841183662E0
5.029718738E1,4.073893070E0,-1.993652701E0,-4.098327160E0
5.034798837E1,-1.269187927E0,5.482354164E0,3.031329513E-1
5.039879024E1,-1.919434786E0,5.793122768E0,9.597937465E-1
5.044959290E1,-3.018196344E0,-1.619814277E0,8.246437646E-3
5.050039472E1,-2.936342716E0,-1.826127887E0,-1.317902952E-1
5.055119576E1,3.715020418E0,2.636264086E0,-1.359745979E0
5.060199769E1,2.387801886E0,-6.417103291E0,1.061347127E-1
5.065280034E1,1.582705259E0,-1.003774762E0,1.754658818E-1
5.070360222E1,-5.933922768E0,-2.097649574E0,6.078846455E0
5.075440326E1,-5.702564716E0,-7.893215656E0,3.645383835E0
5.080520524E1,-2.683604717E0,1.237423778E0,1.362647533E0
5.085600790E1,-9.144383669E-1,3.909422457E-1,1.634169102E0
5.090680982E1,4.103366435E-1,1.967386365E0,-6.224533319E-1
5.095761092E1,3.289259672E0,-4.488200247E-1,-1.411515355E0
5.100841290E1,4.094661713E0,1.205354333E0,-1.299577594E0
5.105921561E1,2.873730898E0,2.960471153E0,-3.561086893E0
5.111001753E1,4.794387341E0,5.639647245E-1,-6.003559589E0
5.116081863E1,1.625464559E0,2.286095917E-1,-2.219818830E0
5.121162066E1,-2.663294077E0,6.204986572E0,5.867187977E-1
5.126242337E1,-2.190345526E0,1.693115830E0,5.725166202E-1
5.131322535E1,-3.734567404E0,-2.038397312E0,1.445875406E0
5.136402649E1,2.462936163E0,1.873773932E0,-7.566870451E-1
5.141482852E1,1.380667567E0,-4.927704811E0,-1.724116355E-1
5.146563128E1,3.227564096E0,-3.582771778E0,-1.262773991E0
5.151643331E1,-2.073521137E0,-4.124746025E-1,5.836950779E0
5.156723446E1,-1.101693535E1,-3.706926584E0,4.594793320E0
5.161803654E1,1.020878434E0,-5.017499447E0,9.364288449E-1
5.166883930E1,-3.473277569E0,3.148001432E0,2.573804855E0
5.171964134E1,1.077381849E0,-1.207950488E-1,-3.290939629E-1
5.177044253E1,7.287407517E-1,2.961082160E-1,-3.997995257E-1
5.182124462E1,3.521534443E0,1.359898686E0,-8.916842937E-1
5.187204743E1,3.992497683E0,2.362604380E0,-2.606332541E0
5.192284946E1,3.861776352E0,2.225469351E0,-8.031114578E0
5.197365066E1,3.346374035E0,-1.927681208E0,-3.594377995E0
5.202445279E1,-1.152057886E0,5.760900497E0,5.969504714E-1
5.207525561E1,-1.824295282E0,6.068614960E0,1.014464617E0
5.212605769E1,-2.293578863E0,-9.532271624E-1,7.817317843E-1
5.217685889E1,-2.086501598E0,-2.973909855E0,-8.945857882E-1
5.222766102E1,3.549022675E0,1.640583038E0,-1.875606537E0
5.227846389E1,1.143811464E0,-4.610827923E0,1.860029936E0
5.232926597E1,4.932591617E-1,-3.101118803E0,-4.358395338E-1
5.238006722E1,-4.648089409E0,-4.682449818E0,6.665718079E0
5.243086936E1,-5.026509285E0,-3.572998285E0,4.387104988E0
5.248167222E1,-2.256622553E0,-1.123958975E-1,1.784742951E0
5.253247436E1,2.977880463E-2,1.734806150E-1,8.883246183E-1
5.258327561E1,1.292247415E0,2.730487287E-1,-5.448757410E-1
5.263407774E1,3.436932087E0,5.060869455E-1,-1.029583097E0
5.268488066E1,3.922555685E0,2.813256979E0,-1.460688472E0
5.273568274E1,2.947948933E0,3.247264147E0,-6.173375130E0
5.278648404E1,4.425282955E0,-2.954515457E0,-4.638468742E0
5.283728618E1,-6.864396334E-1,4.441623211E0,-2.896943092E-1
5.288808910E1,-1.922183633E0,7.190894127E0,1.113879919E0
5.293889123E1,-2.279223919E0,3.017585576E-1,4.671454430E-1
5.298969253E1,-2.661156178E0,-1.928902984E0,-2.831276953E-1
5.304049467E1,3.336142302E0,3.209086180E0,-1.920503736E0
5.309129764E1,2.108186483E0,-5.508315086E0,5.987830162E-1
5.314209977E1,1.584385037E0,-2.799513102E0,-6.236750484E-1
5.319290107E1,-4.058621883E0,-6.325476170E0,7.153326988E0
5.324370326E1,-7.630703926E0,-3.749838591E0,5.459753036E0
5.329450618E1,-1.510930657E0,1.473668963E-1,9.458969831E-1
5.334530831E1,-6.563553810E-1,1.196191669E0,1.138619304E0
5.339610967E1,8.391514421E-1,4.155288339E-1,-9.422318935E-1
5.344691186E1,3.624156713E0,9.620844573E-2,-1.403879762E0
5.349771482E1,3.843298197E0,2.063441992E0,-1.356691718E0
5.354851696E1,3.053014517E0,2.065121889E0,-5.003755093E0
5.359931831E1,3.853682756E0,1.445111871E0,-5.705924034E0
5.365012050E1,1.206117868E0,6.084038615E-1,-1.953184128E0
5.370092347E1,-2.584189415E0,7.207539558E0,8.565605879E-1
5.375172566E1,-2.834025860E0,2.699944973E-1,5.491516590E-1
5.380252701E1,-3.611481667E0,2.195995897E-1,1.272242069E0
5.385332925E1,2.512720108E0,1.446180940E0,-6.905628443E-1
5.390413222E1,1.455343604E0,-6.786360264E0,-3.883461356E-1
5.395493441E1,1.908286810E0,-9.793408513E-1,-9.600991607E-1
5.400573576E1,-2.114753246E0,-4.328005314E0,4.779574394E0
5.405653805E1,-9.324430466E0,-3.640496969E0,6.049678326E0
5.410734102E1,-3.023693897E-2,-3.585673332E0,1.580414534E0
5.415814321E1,-2.148808002E0,1.498561025E0,1.840177417E0
5.420894462E1,1.026223376E-1,1.877286315E0,-5.425850749E-1
5.425974686E1,2.297854662E0,5.525113344E-1,-1.406628489E0
5.431054988E1,3.732734919E0,1.026070714E0,-1.289956689E0
5.436135212E1,2.974368095E0,4.709479809E0,-4.091607571E0
5.441215352E1,6.033185482E0,6.629219651E-1,-5.178152084E0
5.446295581E1,3.289565086E0,-5.117372870E-1,-2.167286158E0
5.451375884E1,-2.591825008E0,5.699357510E0,2.128649950E0
5.456456107E1,-1.454885483E0,9.170344472E-1,1.244448543E0
5.461536248E1,-3.401197433E0,-1.494590521E0,4.483618736E-1
5.466616477E1,7.116370797E-1,2.469350100E-1,-1.378682256E0
5.471696785E1,1.253458619E0,-2.715521574E0,-7.070556879E-1
5.476777008E1,3.090581656E0,-4.852417946E0,-7.531746626E-1
5.481857149E1,-6.814001203E-1,-1.607749939E0,3.283303976E0
5.486937384E1,-1.029094410E1,1.156792045E0,5.740284443E0
5.492017691E1,-6.416950226E-1,-5.302917957E0,1.419150949E0
5.497097915E1,-3.158538580E0,1.638139606E0,2.208976507E0
5.502178061E1,7.631009221E-1,8.732061386E-1,-2.014268786E-1
5.507258295E1,1.383263588E0,-8.414421082E-1,-2.347180545E-1
5.512338602E1,4.006241798E0,8.689302206E-1,-5.734328628E-1
5.517418831E1,3.411276579E0,2.205616713E0,-3.707079411E0
5.522498977E1,4.861580849E0,2.469350100E-1,-5.381869793E0
5.527579212E1,2.406890869E0,1.808260560E0,-1.141520858E0
5.532659519E1,-6.215370819E-2,5.834354877E0,1.105022669E0
5.537739748E1,-2.319081545E0,3.214736462E0,6.484143734E-1
5.542819899E1,-4.499958992E0,-3.109059811E0,-2.622061968E-1
5.547900134E1,-2.398949862E0,-9.880454540E-1,-1.707776189E0
5.552980446E1,5.422491074E0,8.580877304E0,-5.309789777E-1
5.558060675E1,2.727433145E-1,-2.971924543E0,3.324688911E0
5.563140826E1,-5.031548977E0,-1.118858337E1,3.318122387E0
5.568221061E1,-4.488658428E0,9.035194397E0,2.081156492E0
5.573301373E1,-5.868103981E0,-8.947079659E0,1.034317136E0
5.578381607E1,-1.378529549E0,1.430909634E-1,-9.407047927E-2
5.583461753E1,-8.240329623E-1,3.436015919E-2,6.328377724E-1
5.588541993E1,2.123763323E0,2.994678736E0,-6.687250137E-1
5.593622305E1,4.407415867E0,-6.320741773E-1,-4.868452549E-1
5.598702540E1,4.959927082E0,2.709107697E-1,-2.199661016E0
5.603782691E1,3.605067730E0,-1.032789946E0,-5.396988392E0
5.608862930E1,2.347180605E0,8.182299137E-1,-1.751299143E0
5.613943243E1,-3.115320951E-2,4.529890537E0,-4.466820657E-1
5.619023482E1,-1.379751205E0,4.205072403E0,1.707012653E0
5.624103634E1,-2.824710369E0,-1.994110823E0,1.331647038E0
5.629183873E1,-9.161182046E-1,-4.493086815E0,-1.743968964E0
5.634264186E1,5.548172951E0,6.742074013E0,-1.546970725E0
5.639344425E1,-1.275449038E0,-8.178328514E0,3.558185399E-1
5.644424576E1,-3.156553268E0,-3.025984526E0,4.199880123E0
5.649504821E1,-1.013548279E1,2.497296333E0,2.543873310E0
5.654585139E1,-2.290371895E0,-1.563463569E0,1.017824292E0
5.659665373E1,-1.590188146E0,-1.847202063E0,1.990751266E0
5.664745529E1,3.750602305E-1,5.787777901E-1,-5.688515306E-1
5.669825774E1,2.636264086E0,-7.508839965E-1,-1.552621007E0
5.674906087E1,5.155398369E0,1.450609565E0,-6.496360302E-1
5.679986326E1,3.037132502E0,5.747920036E0,-3.795499325E0
5.685066482E1,5.774033546E0,1.453663707E0,-2.349471331E0
5.690146727E1,3.467627287E0,-4.645493329E-1,-4.039227366E-1
5.695227045E1,-9.080244303E-1,4.801412106E0,1.206423342E-2
5.700307285E1,-2.097496748E0,1.680898905E0,9.255862832E-1
5.705387441E1,-2.708649397E0,2.021904439E-1,-1.989834905E-1
5.710467686E1,-6.366555691E-1,-4.464071751E0,-2.547385693E0
5.715548008E1,4.650838375E0,3.069965601E0,-1.396702290E0
5.720628248E1,1.513068676E0,-6.882110596E0,8.428165317E-1
5.725708404E1,-3.549480677E0,-1.327829242E0,5.131880760E0
5.730788654E1,-1.137382317E1,-2.317707300E0,2.633057117E0
5.735868972E1,-7.237012982E-1,-3.650575876E0,9.819369912E-1
5.740949212E1,-1.816506982E0,-6.160394549E-1,2.731250763E0
5.746029373E1,1.135565042E0,6.705575585E-1,-2.254026383E-1
5.751109618E1,6.981984377E-1,1.166260123E0,-7.870767117E-1
5.756189941E1,3.927289724E0,-1.210088372E0,-3.017585576E-1
5.761270180E1,4.783545017E0,2.696738005E0,-3.176863909E0
5.766350342E1,4.040601730E0,2.390092611E0,-5.743338585E0
5.771430592E1,4.081070423E0,-1.460230350E0,-2.436822414E0
5.776510915E1,-8.570187092E-1,5.228699684E0,-8.964183182E-2
5.781591160E1,-1.737555027E0,4.458268642E0,1.509861708E0
5.786671316E1,-2.001441002E0,-3.215347290E0,6.577298045E-1
5.791751566E1,-1.603474021E0,-2.869454920E-1,-2.342599154E0
5.796831889E1,4.612202168E0,-7.704311013E-1,-3.143419981E0
5.801912134E1,4.271349311E-1,8.362498879E-1,1.204590797E0
5.806992295E1,-7.855495811E-1,-2.186833143E0,5.044071198E0
5.812072550E1,-1.213753510E1,-4.672676086E0,2.980018377E0
5.817152873E1,1.789782494E-1,-3.694862366E0,1.050962687E0
5.822233118E1,-2.925958395E0,2.249445021E-1,3.335531473E0
5.827313279E1,7.177454978E-2,8.542698622E-1,2.822114229E-1
5.832393529E1,1.623632073E0,3.512371704E-2,-8.950439692E-1
5.837473857E1,4.225535870E0,-4.123218954E-1,-3.327590525E-1
5.842554102E1,4.241723537E0,1.619508743E0,-2.717201233E0
5.847634264E1,3.401350260E0,2.697806835E0,-7.494790554E0
5.852714519E1,3.235505104E0,-1.628824234E0,-3.349275589E0
5.857794847E1,-9.562813640E-1,4.167047501E0,-2.165453583E-1
5.862875092E1,-1.971814990E0,5.195103168E0,1.265217423E0
5.867955253E1,-2.813715219E0,4.703523815E-1,1.245975733E0
5.873035509E1,-2.764694691E0,-3.880407095E0,-5.143333673E-1
5.878115837E1,4.459948540E0,3.628585339E0,-1.854532242E0
5.883196081E1,1.641193867E0,-8.355168343E0,2.156290859E-1
5.888276248E1,2.954973578E-1,-4.516757488E0,2.295563936E0
5.893356503E1,-6.964880466E0,1.419914484E0,6.159631252E0
5.898436831E1,-1.796959877E0,-6.929451466E0,2.672914982E0
5.903517076E1,-2.738275528E0,1.489092946E0,1.862015128E0
5.908597243E1,-1.846285820E0,2.089708567E0,1.436254621E0
5.913677498E1,1.347987175E0,1.688534498E0,-7.676823139E-1
5.918757826E1,3.903619289E0,-1.269035220E0,-8.412894011E-1
5.923838071E1,4.031744480E0,2.950239658E0,-2.377417564E0
5.928918238E1,3.144336224E0,2.688033342E0,-6.223159313E0
5.933998493E1,3.827569008E0,-1.195733547E0,-3.484883547E0
5.939078821E1,1.908897758E-1,2.040535212E0,-2.814478874E-1
5.944159071E1,-1.829182148E0,5.094771385E0,1.607902646E0
5.949239238E1,-1.975327373E0,1.331036210E0,1.524369359E0
5.954319493E1,-2.606179714E0,-4.672981426E-2,-4.020902216E-1
5.959399821E1,3.857805967E0,1.612025857E0,-2.490729809E0
5.964480071E1,1.390593767E0,-5.875892639E0,3.266505599E-1
5.969560238E1,-7.162184268E-2,-6.590278149E0,7.062921524E-1
5.974640498E1,-3.800386190E0,-2.287164927E0,6.718098164E0
5.979720826E1,-4.847989082E0,-3.979364395E0,5.456545830E0
5.984801076E1,-1.054169655E0,2.481566966E-1,7.256865501E-1
5.989881243E1,-2.567085505E0,2.285637617E0,2.090013981E0
5.994961503E1,1.243226886E0,3.389286041E0,-2.142546773E-1
6.000041831E1,2.152320385E0,-2.321219683E0,-4.558447599E-1
6.005122081E1,4.467278481E0,3.449759781E-1,-5.793886185E-1
6.010202253E1,3.721434116E0,1.182447553E0,-5.082554817E0
6.015282508E1,3.902397633E0,5.001311898E-1,-6.688624859E0
6.020362842E1,1.501157165E0,2.583884001E-1,-1.815438032E0
6.025443092E1,-1.448929667E0,6.489030361E0,8.107470274E-1
6.030523259E1,-1.717091680E0,3.855362415E0,1.511236072E0
6.035603519E1,-2.956500769E0,-2.195384979E0,1.201841980E-1
6.040683852E1,9.541434050E-1,1.642415524E0,-2.341224909E0
6.045764102E1,2.471335411E0,-2.695210934E0,-2.160872221E-1
6.050844274E1,6.795675755E-1,-5.657972813E0,2.840439677E-1
6.055924534E1,-1.220778227E0,1.001942158E0,4.844171524E0
6.061004868E1,-1.167436028E1,-3.841312885E0,2.965510845E0
6.066085118E1,1.050351858E0,-3.304836273E0,3.426853120E-1
6.071165290E1,-2.553952456E0,8.783983588E-1,2.451788187E0
6.076245550E1,8.924478292E-1,2.228065491E0,6.658235192E-2
6.081325884E1,1.658755779E0,-9.894198179E-1,-6.612421572E-2
6.086406139E1,4.328921795E0,1.472905397E0,-3.814741075E-1
6.091486305E1,3.864219666E0,1.322026134E0,-4.881280422E0
6.096566571E1,3.633013964E0,1.981588483E0,-6.416034222E0
6.101646904E1,2.241045952E0,-2.881672084E-1,-1.736638784E0
6.106727160E1,-1.651883721E0,4.618005276E0,9.371923804E-1
6.111807331E1,-2.152778387E0,2.404294729E0,1.843231559E0
6.116887587E1,-2.926263809E0,2.719797492E-1,8.637380004E-1
6.121967925E1,1.902331114E0,4.566083252E-1,-1.821851969E0
6.127048180E1,2.608470440E0,-2.733846903E0,-8.176190853E-1
6.132128352E1,-7.238540053E-2,-5.497777939E0,-6.992673874E-1
6.137208613E1,-4.078932703E-1,-4.640606403E0,4.821112156E0
6.142288951E1,-9.139344215E0,7.673768401E-1,6.177192688E0
6.147369206E1,7.233958840E-1,-6.446424007E0,1.826586008E0
6.152449378E1,-2.552883387E0,2.587701797E0,2.566780090E0
6.157529639E1,3.355078697E-1,6.062659025E-1,2.912214398E-1
6.162609977E1,-1.404948682E-1,2.309460878E0,-6.022953987E-1
6.167690232E1,2.646190405E0,-1.259872466E-1,-1.692046970E-1
6.172770404E1,4.414440632E0,3.634693861E0,-2.504473686E0
6.177850670E1,3.742202997E0,1.691741467E0,-6.851568222E0
6.182931008E1,4.900522232E0,-2.957417011E0,-3.126010895E0
6.188011264E1,2.764083818E-2,3.506110668E0,1.803526580E-1
6.193091441E1,-6.668924689E-1,4.909532070E0,1.686091185E0
6.198171701E1,-4.987567961E-1,2.625116110E-1,1.392120957E0
6.203252040E1,-2.002204657E0,-5.225798130E0,-1.189014196E0
6.208332300E1,1.648524046E0,7.986064434E0,-3.019418001E0
6.213412477E1,3.134257317E0,-8.663951874E0,-2.475458533E-1
6.218492743E1,1.011715770E0,-2.724989653E0,3.531766176E0
6.223573081E1,-9.618247986E0,4.531112194E0,4.709784985E0
6.228653342E1,-2.990860939E0,-9.687731743E0,7.658497691E-1
6.233733519E1,-4.037089348E0,2.836927414E0,2.396201134E0
6.238813784E1,7.166765332E-1,-3.938437700E-1,8.964183331E-1
6.243894123E1,8.933641315E-1,1.326607585E0,-3.129065037E-1
6.248974384E1,3.625836611E0,-1.033248186E0,-2.596100867E-1
6.254054566E1,4.395503998E0,2.475000381E0,-1.278197885E0
6.259134831E1,3.392951012E0,9.897252917E-1,-6.105113029E0
6.264215175E1,3.817031860E0,-6.862868667E-1,-5.324603081E0
6.269295436E1,1.679829881E-2,3.183430433E0,-6.920899153E-1
6.274375613E1,-2.083447218E0,6.096866608E0,1.103648305E0
6.279455884E1,-2.549523830E0,2.272199154E0,9.101623893E-1
6.284536227E1,-3.686768532E0,-3.437695742E0,-8.226585388E-1
6.289616488E1,3.645383835E0,1.847354770E0,-2.223942041E0
6.294696670E1,4.511106908E-1,-6.351589680E0,6.366555691E-1
6.299776941E1,9.481876493E-1,-3.871091843E0,7.330167107E-3
6.304857284E1,-3.310792208E0,1.437476277E0,4.743228912E0
6.309937550E1,-7.994005203E0,-9.977884293E0,3.472208500E0
6.315017727E1,-5.690042377E-1,1.839872003E0,1.041800022E0
6.320097998E1,-1.202758312E0,2.250972092E-1,2.458660126E0
6.325178342E1,7.800519466E-1,2.006175041E0,-7.560762167E-1
6.330258607E1,2.540055513E0,-7.059867382E-1,-1.161831498E0
6.335338790E1,4.047779560E0,1.647913218E0,-7.953231335E-1
6.340419061E1,3.641718626E0,1.622868419E0,-5.287951946E0
6.345499410E1,4.133145332E0,3.258870244E-1,-6.496207714E0
6.350579675E1,1.257734537E0,9.611681700E-1,-1.442515850E0
6.355659857E1,-1.766417503E0,5.747003555E0,1.331188917E0
6.360740128E1,-2.442472696E0,2.289913654E0,1.834221601E0
6.365820472E1,-2.840439796E0,-8.606837988E-1,9.231429100E-1
6.370900743E1,2.708343983E0,7.041541934E-1,-2.120250940E0
6.375980925E1,1.680898905E0,-3.601708174E0,-5.176930428E-1
6.381061196E1,1.142131686E0,-2.371919870E0,-3.222219348E-1
6.386141545E1,-2.610303164E0,-4.674508572E0,3.726320982E0
6.391221811E1,-9.362302780E0,-3.197938204E0,5.778309822E0
6.396301993E1,9.148964882E-1,-3.692113638E0,1.003469348E0
6.401382269E1,-3.165105104E0,3.663556337E0,2.849297047E0
6.406462618E1,8.852704167E-1,1.281710267E0,6.139015034E-2
6.411542884E1,2.340461254E0,-9.701781869E-1,-8.561024070E-1
6.416623071E1,4.141696930E0,1.046534061E0,-9.698727131E-1
6.421703342E1,3.738690615E0,2.419871330E0,-4.045183182E0
6.426783691E1,3.665999889E0,2.020224571E0,-6.322727203E0
6.431863962E1,2.698570490E0,-3.997995257E-1,-2.209281921E0
6.436944144E1,-1.743663549E0,4.720780373E0,7.939487100E-1
6.442024420E1,-1.831167340E0,3.427158594E0,1.636765242E0
6.447104769E1,-3.197174549E0,-1.111742020E0,1.683800459E0
6.452185040E1,-8.191461563E-1,-2.140714169E0,-2.835858464E-1
6.457265227E1,3.855515242E0,-1.174201131E0,-1.577360392E0
6.462345498E1,3.506263196E-1,-3.832303047E0,-6.360446811E-1
6.467425852E1,-8.777875304E-1,-2.524937153E0,3.470376015E0
6.472506123E1,-9.865182877E0,-9.206995368E-1,5.188384056E0
6.477586311E1,2.121167034E-1,-5.305972099E0,1.473669052E0
6.482666587E1,-2.815853119E0,2.596864462E0,2.303504944E0
6.487746936E1,1.212684512E0,8.502993584E-1,-1.948602796E-1
6.492827206E1,8.078454733E-1,-7.511894107E-1,-5.732801557E-1
6.497907394E1,3.571624041E0,6.682668924E-1,-7.850914598E-1
6.502987670E1,3.537569284E0,8.425110579E-1,-3.313693762E0
6.508068019E1,3.252456188E0,2.963220119E0,-7.631467342E0
6.513148290E1,2.225927353E0,-6.190937161E-1,-2.712467194E0
6.518228477E1,-1.034317136E0,5.399736881E0,6.033644080E-1
6.523308753E1,-1.665933132E0,4.742159843E0,1.480999231E0
6.528389107E1,-2.609692097E0,-9.326110482E-1,1.207797766E0
6.533469378E1,-1.145644069E0,-3.440444469E0,-7.001836896E-1
6.538549566E1,3.908506155E0,4.582881629E-1,-1.532768488E0
6.543629842E1,1.523300409E0,-4.964813709E0,-4.161396921E-1
6.548710191E1,-6.951441765E-1,-7.470662117E0,3.724946499E0
6.553790467E1,-5.520837307E0,1.577207565E0,6.889441013E0
6.558870654E1,-1.479319334E0,-6.196892738E0,3.120818615E0
6.563950930E1,-2.650466204E0,3.941491842E0,1.638445020E0
6.569031285E1,-5.254813433E-1,1.222763538E0,1.019809484E0
6.574111555E1,6.381826997E-1,1.428771734E0,-4.763081372E-1
6.579191743E1,3.712118864E0,-3.596363366E-1,-6.021426916E-1
6.584272019E1,4.416883945E0,1.628671527E0,-2.118112803E0
6.589352373E1,3.726626396E0,2.404600143E0,-7.856259346E0
6.594432644E1,3.605983973E0,-1.735417008E0,-3.680202007E0
6.599512831E1,-7.137750387E-1,4.274861813E0,-2.748812735E-2
6.604593107E1,-1.809940457E0,6.162685394E0,1.757102132E0
6.609673462E1,-2.812798977E0,2.365964174E0,9.764393568E-1
6.614753732E1,-2.968259573E0,-4.011128426E0,-1.660588264E0
6.619833920E1,4.458268642E0,2.526006222E0,-2.142699480E0
6.624914196E1,8.745805621E-1,-7.166307449E0,4.081986845E-1
6.629994550E1,1.019198656E0,-3.326063395E0,4.030064642E-1
6.635074821E1,-5.215260983E0,-4.621059597E-1,5.893148899E0
6.640155009E1,-3.372029543E0,-8.781082153E0,3.668748617E0
6.645235290E1,-2.817685604E0,3.085084200E0,1.999761224E0
6.650315639E1,-9.903361201E-1,1.875301152E-1,2.090777397E0
6.655395910E1,3.553603888E-1,2.892361879E0,-9.422318935E-1
6.660476097E1,3.470986843E0,-5.433486104E-1,-1.104717255E0
6.665556378E1,4.529279709E0,1.064706802E0,-2.373752356E0
6.670636727E1,3.329881191E0,3.566278934E0,-6.771699905E0
6.675717003E1,3.709369898E0,-9.017632604E-1,-3.987916231E0
6.680797191E1,-1.130067408E-1,2.712925434E0,-7.740961909E-1
6.685877467E1,-1.563768983E0,6.263628006E0,1.347529054E0
6.690957821E1,-2.205158710E0,3.178085566E0,1.020114899E0
6.696038092E1,-2.870676756E0,-1.852547050E0,-1.379903913E0
6.701118285E1,3.879643679E0,8.064711094E-1,-2.600224018E0
6.706198561E1,8.021951914E-1,-6.599899292E0,6.322269142E-2
6.711278915E1,9.335273504E-1,-7.643531799E0,2.758738995E0
6.716359186E1,-5.125008583E0,2.850213289E0,5.519615650E0
6.721439378E1,-4.203392506E0,-1.034439278E1,4.258063316E0
6.726519660E1,-3.191676855E0,4.321591854E0,1.260025144E0
6.731600008E1,-1.931804419E-1,1.096470803E-1,9.167290330E-1
6.736680285E1,1.492452621E0,1.178018928E0,-1.106244445E0
6.741760477E1,3.992344856E0,-5.102101564E-1,-1.467407823E0
6.746840759E1,4.107184410E0,1.764279604E0,-3.076074123E0
6.751921113E1,3.441208124E0,3.299949646E0,-6.764675140E0
6.757001384E1,3.339960098E0,-1.672041655E0,-3.511150122E0
6.762081576E1,-1.032637239E0,5.411190510E0,3.084778786E-1
6.767161857E1,-2.122541428E0,5.434860706E0,1.284917235E0
6.772242212E1,-2.959096909E0,-4.570664763E-1,8.510629535E-1
6.777322488E1,-2.177059650E0,-2.782256603E0,1.710372418E-2
6.782402680E1,4.762470722E0,2.277391195E0,-1.929513812E0
6.787482962E1,1.358829737E0,-6.036545277E0,-3.574983478E-1
6.792563316E1,-7.773031294E-2,-5.858788967E0,2.270519257E0
6.797643592E1,-5.580242634E0,3.978142738E-1,6.899366856E0
6.802723784E1,-4.184608936E0,-5.537024975E0,3.811839581E0
6.807804066E1,-2.615189791E0,2.355427027E0,9.720106721E-1
6.812884420E1,-1.020573020E0,2.918322682E-1,1.678150177E0
6.817964696E1,5.934380889E-1,2.119945526E0,-8.089144826E-1
6.823044889E1,3.218096018E0,-1.745343328E0,-1.458245158E0
6.828125170E1,4.181096554E0,1.700598717E0,-1.560867429E0
6.833205524E1,3.486410618E0,1.628671527E0,-5.868409634E0
6.838285805E1,3.719449043E0,1.021489382E0,-4.922665119E0
6.843365993E1,8.956547976E-1,1.624548316E0,-1.340962410E0
6.848446279E1,-1.994416356E0,6.581879139E0,1.090667725E0
6.853526634E1,-2.611524820E0,5.905365944E-1,1.110978484E0
6.858606910E1,-3.799011707E0,3.171824515E-1,3.884988427E-1
6.863687102E1,4.128869534E0,1.256207347E0,-1.856822968E0
6.868767378E1,1.367076159E0,-6.331279278E0,-2.458660305E-2
6.873847738E1,1.057834744E0,1.147018433E0,3.028275371E-1
6.878928008E1,-2.541735411E0,-5.991342545E0,3.943629980E0
6.884008201E1,-8.047454834E0,-2.578386307E0,4.790111542E0
6.889088482E1,1.846285909E-1,-6.073043346E0,2.030303478E0
6.894168837E1,-3.052861929E0,3.816268206E0,2.345195293E0
6.899249113E1,4.902049303E-1,4.950917065E-1,1.356080920E-1
6.904329300E1,1.366923451E0,6.342121959E-1,-6.734591126E-1
6.909409581E1,3.627211094E0,-5.459447503E-1,-7.621846795E-1
6.914489936E1,3.959053755E0,1.488634825E0,-3.262077093E0
6.919570206E1,3.380275965E0,2.334352732E0,-7.737143993E0
6.924650399E1,2.956958771E0,-1.903247356E0,-2.861514091E0
6.929730675E1,-1.406781197E0,6.097019196E0,9.608627558E-1
6.934811029E1,-1.591257095E0,4.719100475E0,1.910119414E0
6.939891300E1,-3.404251814E0,-2.773246467E-1,5.883986354E-1
6.944971488E1,-1.089904189E0,-1.617676258E0,-2.063900232E0
6.950051769E1,3.900412560E0,9.434536099E-1,-1.480693698E0
6.955132118E1,1.551246643E0,-5.951790333E0,-2.950392365E-1
6.960212389E1,1.641651988E-1,-4.493545055E0,2.874036312E0
6.965292576E1,-6.840572834E0,2.194010735E0,5.711880207E0
6.970372852E1,-2.401087761E0,-7.753789902E0,3.452203274E0
6.975453201E1,-3.627821922E0,3.348359346E0,1.575985909E0
6.980533472E1,4.680617154E-1,-2.290677279E-3,7.282826304E-1
6.985613654E1,1.330272675E0,1.948602796E-1,-1.190541267E0
6.990693930E1,3.398448706E0,2.221956849E-1,-1.259108901E0
6.995774279E1,3.547189951E0,2.073368311E0,-2.156290770E0
7.000854545E1,3.090429068E0,4.059385300E0,-6.832632065E0
7.005934732E1,4.060454369E0,-3.240391970E0,-3.357674599E0
7.011015003E1,-9.379559755E-1,4.825235367E0,6.853706241E-1
7.016095347E1,-1.100746751E0,5.688209534E0,1.330272675E0
7.021175613E1,-1.899734974E0,1.658450365E-1,3.796415627E-1
7.026255795E1,-2.452093601E0,-4.300670147E0,-1.220014691E0
7.031336071E1,2.492714882E0,6.694885731E0,-1.656617761E0
7.036416410E1,2.580066204E0,-8.236512184E0,1.262926757E-1
7.041496680E1,9.252808690E-1,-7.860076904E0,2.513789177E0
7.046576857E1,-5.554434299E0,4.808589458E0,6.376176357E0
7.051657128E1,-3.073477983E0,-8.453209877E0,3.021861315E0
7.056737472E1,-2.245169163E0,1.443737507E0,1.287818789E0
7.061817738E1,5.601469278E-1,3.634541333E-1,6.291726828E-1
7.066897915E1,7.559234649E-2,1.571709991E0,-3.217637837E-1
7.071978180E1,2.922751427E0,1.707928896E0,-1.119377613E-1
7.077058524E1,4.678173542E0,2.261356592E0,-1.844147921E0
7.082138784E1,3.171824455E0,1.778329134E0,-8.529565811E0
7.087218962E1,3.223135471E0,-1.557965875E0,-2.839218140E0
7.092299227E1,-1.073258638E0,4.486520290E0,4.433223903E-1
7.097379571E1,-1.954253078E0,6.301042080E0,2.159497738E0
7.102459831E1,-2.680092335E0,2.090013981E0,7.065975666E-1
7.107540003E1,-2.049087048E0,-5.621779919E0,-2.401240587E0
7.112620269E1,4.873797417E0,2.095206082E-1,-2.427354336E0
7.117700607E1,1.231620789E0,-5.503275871E0,1.287360638E-1
7.122780868E1,1.574153423E0,-4.079848766E0,3.303309202E0
7.127861040E1,-7.433705807E0,2.755990028E0,5.643006802E0
7.132941305E1,-2.804247141E0,-9.619469643E0,2.872203827E0
7.138021639E1,-3.481829405E0,3.840396643E0,1.625006437E0
7.143101899E1,1.655396074E-1,-8.918370306E-2,9.420791864E-1
7.148182071E1,1.299577594E0,1.063485026E0,-1.039662004E0
7.153262331E1,3.387606144E0,3.054236174E-1,-7.785248160E-1
7.158342665E1,3.697763920E0,3.043088436E0,-1.862473249E0
7.163422920E1,3.088290930E0,2.837538242E0,-7.129809380E0
7.168503092E1,3.922708273E0,-2.307170153E0,-3.929275036E0
7.173583352E1,-9.546015263E-1,3.914309263E0,3.067980409E-1
7.178663686E1,-1.936080337E0,4.788279057E0,1.635390878E0
7.183743941E1,-2.882435560E0,-1.568350345E-1,1.221541762E0
7.188824107E1,-1.949366331E0,-1.411973476E0,-1.084406614E0
7.193904368E1,3.972950459E0,3.568875074E0,-2.122236013E0
7.198984696E1,2.922140598E0,-7.038334846E0,8.878664970E-1
7.204064951E1,-1.640124917E-1,-5.067436218E0,2.018392086E0
7.209145118E1,-4.886625290E0,5.070032179E-2,6.087092876E0
7.214225378E1,-3.904230356E0,-7.349866867E0,4.538289547E0
7.219305706E1,-2.451482773E0,2.618702173E0,1.122889996E0
7.224385956E1,-5.748072863E-1,1.647760421E-1,1.413042426E0
7.229466123E1,7.817317843E-1,2.778591394E0,-2.313583940E-1
7.234546378E1,3.078059435E0,-6.351284385E-1,-5.774033666E-1
7.239626706E1,4.613576412E0,2.312973261E0,-1.853005171E0
7.244706956E1,2.968870401E0,1.059209108E0,-7.464095592E0
7.249787123E1,3.481829405E0,-1.663489819E0,-4.431696892E0
7.254867378E1,-1.918060333E-1,3.212292910E0,-8.551861346E-2
7.259947706E1,-1.957765460E0,5.763649464E0,1.774205923E0
7.265027951E1,-2.408417940E0,2.831276953E-1,1.284153700E0
7.270108118E1,-3.196563721E0,-1.237576604E0,-1.123500824E0
7.275188368E1,4.149485588E0,4.129785538E0,-1.815743446E0
7.280268696E1,1.909814000E0,-6.621737003E0,2.773246467E-1
7.285348941E1,2.408265322E-1,-4.880517006E0,-3.022166789E-1
7.290429102E1,-3.137006044E0,-2.825015783E0,6.908682346E0
7.295509357E1,-6.606771469E0,-5.670342445E0,5.617045879E0
7.300589680E1,-9.445225596E-1,2.154763699E0,7.004891038E-1
7.305669925E1,-9.397885203E-1,-2.290677279E-3,1.752978921E0
7.310750087E1,3.909422457E-1,2.374363184E0,-1.058903694E0
7.315830337E1,2.759044409E0,-3.190149665E-1,-1.414416790E0
7.320910660E1,4.050528049E0,1.628366113E0,-1.139688253E0
7.325990904E1,3.613008738E0,3.078670204E-1,-5.827024937E0
7.331071066E1,3.504736185E0,6.646018028E-1,-6.248661995E0
7.336151316E1,1.085781008E-1,2.084974289E0,-6.647545099E-1
7.341231634E1,-2.202715158E0,6.732605934E0,1.740456581E0
7.346311878E1,-2.236464500E0,1.230551839E0,1.078603506E0
7.351392034E1,-2.899691820E0,-1.561936498E0,-8.457180262E-1
7.356472284E1,2.421245813E0,3.824362040E0,-2.366422176E0
7.361552602E1,2.051225185E0,-6.843780041E0,2.417428046E-1
7.366632847E1,2.205769539E0,-2.087875843E0,-7.776085734E-1
7.371713003E1,-1.741678238E0,-2.653825998E0,5.658583641E0
7.376793253E1,-9.527842522E0,-2.098565817E0,5.049874306E0
7.381873571E1,1.105022669E0,-6.916165352E0,1.718313336E0
7.386953811E1,-3.068438530E0,3.184652090E0,2.957722425E0
7.392033967E1,9.865183234E-1,4.039227366E-1,-5.245651007E-1
7.397114212E1,1.760614514E0,5.018110275E-1,-1.203369141E0
7.402194529E1,3.287427187E0,1.243990421E0,-9.480349422E-1
7.407274769E1,3.961802721E0,1.763821393E-1,-3.871855259E0
7.412354925E1,3.177169323E0,2.351609230E0,-8.162446022E0
7.417435170E1,1.650814772E0,1.658450365E-1,-2.696279764E0
7.422515488E1,-2.066190958E0,6.500636578E0,8.405258060E-1
7.427595727E1,-1.757560253E0,4.825846195E0,1.661046386E0
7.432675878E1,-3.262229681E0,3.471139669E-1,6.109999418E-1
7.437756123E1,-2.783936262E-1,-2.203784227E0,-1.575069666E0
7.442836441E1,3.507179499E0,-8.312104344E-1,-1.652494550E0
7.447916675E1,1.504058719E0,-3.991123199E0,6.650599241E-1
7.452996831E1,-9.433009028E-1,-5.823665142E0,3.918127060E0
7.458077071E1,-8.814831734E0,1.384332657E0,4.937325478E0
7.463157389E1,-5.410579443E-1,-9.228528023E0,2.588007212E0
7.468237623E1,-3.127537966E0,3.091956139E0,2.254026413E0
7.473317774E1,5.479300022E-1,6.345176101E-1,2.522799075E-1
7.478398019E1,1.134343386E0,1.078603506E0,-5.073086619E-1
7.483478331E1,3.915989161E0,1.733279079E-1,-8.594620824E-1
7.488558566E1,4.401612759E0,4.828747511E-1,-3.904535770E0
7.493638717E1,3.766636848E0,2.519897699E0,-7.942846775E0
7.498718956E1,2.767901659E0,-1.333937645E0,-2.635653257E0
7.503799274E1,-1.698308110E0,5.894828796E0,6.603258848E-1
7.508879503E1,-1.270256877E0,4.850432873E0,2.100703716E0
7.513959654E1,-2.988875628E0,7.722636461E-1,7.618792653E-1
7.519039894E1,-3.162661791E-1,-3.502292871E0,-2.216764688E0
7.524120206E1,3.812603235E0,-1.768555522E0,-1.332563281E0
7.529200441E1,7.635591030E-1,-5.150511265E0,9.697200358E-2
7.534280592E1,-8.881719112E-1,-2.384747744E0,4.709326744E0
7.539360826E1,-1.066371346E1,-6.096255779E-1,5.058731556E0
7.544441139E1,6.937697530E-1,-3.179765463E0,1.338519096E0
7.549521373E1,-2.601598501E0,7.304205894E-1,2.943062067E0
7.554601519E1,1.007897973E0,1.760156393E0,2.266243398E-1
7.559681759E1,1.211157441E0,-1.023169160E0,-2.069245130E-1
7.564762066E1,4.375651836E0,3.185568452E-1,-6.812474132E-1
7.569842300E1,4.123371601E0,-2.948864996E-1,-4.252565861E0
7.574922446E1,3.729375124E0,2.112462521E0,-8.195279121E0
7.580002680E1,1.741678238E0,-5.825955868E-1,-2.606027126E0
7.585082993E1,-1.916685939E0,6.162074566E0,1.021642089E0
7.590163222E1,-1.901262045E0,5.399584293E0,1.596143842E0
7.595243368E1,-3.295979023E0,4.327852726E-1,2.406738251E-1
7.600323602E1,1.022863746E0,-1.533684731E0,-2.204547644E0
7.605403910E1,3.133951902E0,-2.464005232E0,-5.812211633E-1
7.610484139E1,1.629129648E0,-7.275038242E0,-6.755970716E-1
7.615564284E1,-1.658450365E-1,-2.143004894E0,5.923538685E0
7.620644519E1,-1.083444500E1,-1.132205367E0,5.634607792E0
7.625724826E1,1.881714940E0,-4.214387894E0,1.071884274E0
7.630805055E1,-3.077906609E0,2.044353008E0,2.620229244E0
7.635885201E1,5.083776116E-1,2.497601748E0,-5.008947477E-2
7.640965436E1,1.530172348E0,-6.444438547E-2,-8.446490765E-1
7.646045743E1,4.355340958E0,2.661767006E-1,-1.269035220E0
7.651125967E1,3.642329454E0,3.512371704E-2,-4.077099800E0
7.656206113E1,3.288954258E0,1.692352295E0,-7.984231949E0
7.661286347E1,1.649134874E0,-7.426375747E-1,-2.547385693E0
7.666366649E1,-2.139950752E0,8.021799088E0,9.052756429E-1
7.671446878E1,-1.158319116E0,5.507246017E0,1.859113574E0
7.676527019E1,-3.497406006E0,-4.443913698E-1,2.704526186E-1
7.681607253E1,-6.281036735E-1,-2.379402876E0,-1.855448604E0
7.686687555E1,3.947905779E0,-1.569724798E0,-1.699224353E0
7.691767784E1,1.209630251E0,-2.436364174E0,4.944808483E-1
7.696847925E1,-1.120751977E0,-6.835227966E0,3.122040272E0
7.701928154E1,-6.969614506E0,-9.405520558E-1,6.350826263E0
7.707008462E1,-1.299730301E0,-6.661442280E0,2.957111597E0
7.712088686E1,-3.548106194E0,3.671802759E0,2.265479803E0
7.717168826E1,4.585935771E-1,1.113269091E0,2.382304333E-2
7.722249055E1,2.338475943E0,5.375456065E-2,-1.256360054E0
7.727329363E1,3.969438314E0,-8.414421231E-2,-8.648070097E-1
7.732409587E1,4.027468681E0,1.955932975E0,-2.800734758E0
7.737489727E1,3.572845697E0,1.634169102E0,-7.502120495E0
7.742569956E1,2.536390543E0,-2.083600044E0,-4.133145332E0
7.747650258E1,-1.933484316E0,5.531832695E0,3.855973184E-1
7.752730482E1,-2.134911060E0,5.512590885E0,1.947686434E0
7.757810623E1,-3.153040886E0,2.122694254E-2,1.862167835E0
7.762890852E1,-1.567739487E0,-1.749313831E0,-1.063026905E0
7.767971149E1,3.490839481E0,5.835118294E-1,-1.697544575E0
7.773051373E1,1.315154195E0,-6.683585167E0,2.721324563E-1
7.778131514E1,1.389677543E-2,-1.941578031E0,3.016974688E0
7.783211743E1,-8.732061386E0,2.817533016E-1,5.775255203E0
7.788292045E1,-3.713951409E-1,-9.310533524E0,2.062525749E0
7.793372269E1,-3.294757366E0,3.261466265E0,2.171561956E0
7.798452404E1,5.048652887E-1,3.316900730E-1,3.060344756E-1
7.803532634E1,7.214106321E-1,1.099066973E0,-5.853443742E-1
7.808612930E1,3.300102234E0,1.592020631E0,-4.834856093E-1
7.813693154E1,3.900565147E0,2.683604717E0,-2.471640825E0
7.818773268E1,4.157578945E0,1.319735527E0,-8.432745934E0
7.823853617E1,2.756448269E0,-2.644968629E-1,-3.353398800E0
7.828933914E1,-1.034469843E0,4.978710651E0,3.707842827E-1
7.834014138E1,-2.274031639E0,4.947557449E0,6.865923405E-1
7.839094273E1,-3.817489862E0,-7.238540053E-2,5.566345453E-1
7.844174497E1,-9.862129092E-1,-8.796200156E-2,1.404948719E-2
7.849254622E1,4.002423763E0,-1.566823244E0,-9.917105436E-1
7.854334841E1,4.796678126E-1,-3.688601255E0,9.684983492E-1
7.859414976E1,4.682144225E-1,-3.268185616E0,7.565343380E-1
7.864495205E1,-5.456698418E0,-3.225731611E0,5.485866547E0
7.869575502E1,-4.226757526E0,-8.465426445E0,3.704635859E0
7.874655721E1,-2.794015408E0,2.804247141E0,1.497339368E0
7.879735856E1,2.455606014E-1,-1.170077920E0,1.352568507E0
7.884816080E1,5.002838969E-1,1.755880475E0,-5.737382770E-1
7.889896377E1,2.935579300E0,1.983726472E-1,-9.875873327E-1
7.894976596E1,4.636330605E0,1.906148911E0,-1.413805962E0
7.900056731E1,4.058621883E0,-1.876828223E-1,-7.940556049E0
7.905136955E1,3.175336838E0,-9.575030804E-1,-5.743491173E0
7.910217252E1,-5.361711979E-1,4.768579006E0,4.248442650E-1
7.915297471E1,-1.836206913E0,7.098045349E0,2.104826927E0
7.920377606E1,-2.670471430E0,1.507570982E0,1.072342396E0
7.925457882E1,-3.556352854E0,-3.269865274E0,-1.283084631E0
7.930538179E1,4.954123974E0,1.514137626E0,-2.603583813E0
7.935618398E1,7.143858671E-1,-6.790483475E0,1.152057886E0
7.940698528E1,1.341267824E0,-1.768097401E0,-2.521272004E-1
7.945778752E1,-3.397227049E0,-5.245039940E0,6.531178951E0
7.950859049E1,-5.370416164E0,-5.292075157E0,5.811753750E0
7.955939268E1,-1.311336398E0,2.088334084E0,1.174048424E0
7.961019398E1,-2.951919436E-1,-6.985038519E-1,1.648218632E0
7.966099622E1,2.860292196E-1,2.972077370E0,-4.714213610E-1
7.971179914E1,2.132162333E0,-6.723901033E-1,-6.420004964E-1
7.976260132E1,3.903161287E0,2.741787910E0,-6.975875497E-1
7.981340263E1,3.886668444E0,-2.241962194E0,-5.451200962E0
7.986420487E1,2.513636589E0,7.956285775E-2,-8.368912697E0
7.991500778E1,1.934858710E-1,2.844410181E0,-1.342031479E0
7.996580997E1,-2.117043972E0,8.243994713E0,9.623898268E-1
8.001661127E1,-2.166675329E0,2.914810419E0,5.709894896E-1
8.006741346E1,-4.076794624E0,-1.918060422E0,-5.169295073E-1
8.011821643E1,2.630002975E0,2.584647417E0,-2.503404856E0
8.016901856E1,2.211877823E0,-4.991080284E0,5.670189857E-1
8.021981987E1,8.843541145E-1,-6.044028282E0,-7.773031294E-2
8.027062210E1,-2.154458284E0,2.089861155E0,5.594749928E0
8.032142502E1,-1.051909542E1,-7.261446953E0,4.227368355E0
8.037222716E1,1.095096469E0,-2.874952555E0,1.220014691E0
8.042302846E1,-1.991667509E0,1.096470833E0,2.421398640E0
8.047383065E1,7.360709310E-1,2.798749447E0,-5.656445622E-1
8.052463356E1,1.534600973E0,-1.388913989E0,-3.715478480E-1
8.057543570E1,3.947600365E0,9.155073166E-1,-1.075854778E0
8.062623700E1,3.872160673E0,3.338280320E-1,-5.782127380E0
8.067703919E1,4.024872780E0,-5.207473040E-2,-7.938418388E0
8.072784216E1,7.452336550E-1,2.860750437E0,-2.096733332E0
8.077864424E1,-1.227650285E0,8.324932098E0,9.323056340E-1
8.082944554E1,-2.427354336E0,3.599570274E0,1.472141862E0
8.088024773E1,-3.936757803E0,-1.570793748E0,-2.648022771E-1
8.093105065E1,3.890944242E0,9.607100487E-1,-2.497907162E0
8.098185278E1,1.363563776E0,-7.363305569E0,4.799732268E-1
8.103265408E1,1.522994876E0,-5.150053024E0,8.171609044E-1
8.108345622E1,-3.426700354E0,4.126273096E-1,5.697219849E0
8.113425914E1,-7.280230522E0,-7.224032402E0,4.494308472E0
8.118506127E1,-1.431520581E0,7.198835015E-1,9.739959836E-1
8.123586257E1,-1.945701241E0,1.249029875E0,2.065274477E0
8.128666471E1,7.902836204E-1,2.968564987E0,-5.070032477E-1
8.133746763E1,2.989486456E0,-1.487565756E0,-8.315158486E-1
8.138826976E1,4.333350658E0,2.189582109E0,-1.785659194E0
8.143907101E1,2.848991632E0,3.796721220E0,-6.112596035E0
8.148987320E1,5.166546345E0,-2.979865551E0,-4.964661121E0
8.154067606E1,-1.459924877E-1,3.399670362E0,-4.769189954E-1
8.159147820E1,-1.838650227E0,6.626471043E0,1.792378545E0
8.164227945E1,-2.252804756E0,2.510735035E0,1.034927964E0
8.169308158E1,-2.976505995E0,-7.669187188E-1,-5.505260825E-1
8.174388450E1,4.805840969E0,1.324164152E0,-1.874384761E0
8.179468659E1,1.363105655E0,-5.620100021E0,-5.784723759E-1
8.184548789E1,-3.811686933E-1,-4.161549568E0,2.151404142E0
8.189629002E1,-6.624485970E0,-8.405258060E-1,6.137182236E0
8.194709294E1,-3.500307560E0,-9.900154114E0,3.216263533E0
8.199789502E1,-3.197785378E0,3.100813389E0,1.841399074E0
8.204869627E1,6.218425035E-1,-1.283237338E0,1.008356094E0
8.209949841E1,9.410101771E-1,1.138772011E0,-8.286142945E-1
8.215030132E1,2.834025860E0,-4.489727318E-1,-9.648332596E-1
8.220110341E1,3.799164534E0,2.437891483E0,-1.196038961E0
8.225190466E1,3.276890039E0,1.693574041E-1,-8.261097908E0
8.230270679E1,2.670929670E0,-2.834942102E0,-6.679461956E0
8.235350966E1,-1.066233873E0,4.441623211E0,-9.113841057E-1
8.240431174E1,-2.211572409E0,8.344632149E0,8.107470274E-1
8.245511299E1,-3.279486179E0,9.994988441E-1,1.757102132E0
8.250591513E1,-1.918671250E0,9.008470178E-1,-5.010474920E-1
8.255671799E1,3.480149508E0,2.348860502E0,-2.181030035E0
8.260752007E1,2.407654524E0,-7.808307648E0,1.165802002E0
8.265832132E1,1.514901221E-1,-4.481328011E0,7.846332788E-1
8.270912346E1,-4.063661575E0,-1.996401548E0,6.839046001E0
8.275992632E1,-4.583492279E0,-7.503495216E0,4.929079056E0
8.281072841E1,-1.818797708E0,2.281208992E0,9.370396733E-1
8.286152966E1,-1.691741467E0,8.423583508E-1,2.311140537E0
8.291233174E1,7.211052179E-1,1.815438032E0,-5.384618640E-1
8.296313461E1,2.829291821E0,-1.126096964E0,-1.215127945E0
8.301393669E1,3.778701067E0,1.926306844E0,-1.588813663E0
8.306473794E1,3.261160851E0,9.535325766E-1,-6.138862133E0
8.311554007E1,3.920417786E0,-1.098914266E0,-6.209568024E0
8.316634289E1,5.993938446E-1,1.757102132E0,-1.570182920E0
8.321714497E1,-2.219055414E0,6.143901825E0,1.545443535E0
8.326794617E1,-2.170798540E0,2.074437380E0,1.826280594E0
8.331874830E1,-3.376763582E0,7.081246972E-1,5.746545792E-1
8.336955117E1,3.833219290E0,1.980061412E0,-2.104521513E0
8.342035320E1,1.090515018E0,-6.186050415E0,7.812736630E-1
8.347115445E1,5.117372870E-1,-2.675205469E0,-9.807152748E-1
8.352195653E1,-1.131289124E0,-5.661943436E0,5.337125301E0
8.357275940E1,-9.339549065E0,-2.623436213E0,6.897381783E0
8.362356143E1,1.084253863E-1,-1.137702987E-1,5.830537081E-1
8.367436268E1,-2.550745487E0,2.016101360E0,2.322288513E0
8.372516476E1,9.448279738E-1,2.192788839E0,-7.760814428E-1
8.377596757E1,2.675205469E0,-1.469851255E0,-1.426786542E0
8.382676966E1,3.807563782E0,1.024390817E0,-1.465422630E0
8.387757086E1,3.147543192E0,2.334658146E0,-3.430060148E0
8.392837294E1,4.591891766E0,2.675816536E0,-5.954386234E0
8.397917575E1,2.818296432E0,-1.894084692E0,-2.568918228E0
8.402997784E1,-2.425674438E0,5.258020401E0,1.486344099E0
8.408077903E1,-2.122541428E0,2.729112864E0,1.512152433E0
8.413158112E1,-3.258870125E0,1.246128440E0,1.357302666E0
8.418238393E1,8.658760190E-1,-1.328898191E0,-8.134958148E-1
8.423318596E1,2.525242567E0,-1.968608022E0,-1.136786699E0
8.428398716E1,2.644052267E0,-3.860401869E0,-1.422205091E0
8.433478924E1,-2.040229887E-1,-7.102779388E0,4.599679947E0
8.438559210E1,-8.101819992E0,3.014989376E0,6.023259163E0
8.443639414E1,-1.466338873E0,-5.635829449E0,2.071841240E0
8.448719534E1,-3.435405016E0,2.446901321E0,2.301825285E0
8.453799737E1,7.640172243E-1,5.577035546E-1,1.760767251E-1
8.458880018E1,1.188097954E0,3.420744538E-1,-7.386670709E-1
8.463960221E1,4.179264069E0,5.558710173E-2,-8.393041492E-1
8.469040341E1,3.559864998E0,1.963568568E0,-3.052098274E0
8.474120549E1,4.210875511E0,2.571514130E0,-6.904253960E0
8.479200830E1,2.894805193E0,-9.946120381E-1,-2.924278498E0
8.484281034E1,-1.694795728E0,6.369151592E0,7.902836204E-1
8.489361153E1,-1.828876734E0,4.595556736E0,1.540556788E0
8.494441356E1,-3.782213449E0,8.377770185E-1,6.149705052E-1
8.499521638E1,2.472404242E-1,-1.327218413E0,-1.718771458E0
8.504601841E1,2.848227978E0,-1.328745484E0,-8.739697337E-1
8.509681961E1,1.125638843E0,-3.930038452E0,-7.177454978E-2
8.514762164E1,7.601994276E-1,-5.582075119E0,1.961430550E0
8.519842445E1,-6.535912991E0,1.640735745E0,6.022190571E0
8.524922648E1,-4.303876877E0,-7.632536411E0,2.604041815E0
8.530002763E1,-3.463045835E0,2.796000719E0,1.984490037E0
8.535082971E1,1.149003744E0,-1.669140100E0,1.154501319E0
8.540163247E1,9.784246087E-1,9.051229358E-1,-5.416688323E-1
8.545243450E1,3.352482557E0,-1.031262875E0,-1.185959935E0
8.550323565E1,4.729026794E0,4.596625566E-1,-2.514094591E0
8.555403773E1,3.746326208E0,7.056813240E-1,-8.773752213E0
8.560484049E1,3.129828691E0,-2.822877884E0,-4.607468128E0
8.565564252E1,-1.439156175E0,6.666328907E0,-1.756185889E-1
8.570644367E1,-2.119487286E0,9.261666298E0,1.633405566E0
8.575724575E1,-2.997732878E0,2.533488989E0,1.882936656E-1
8.580804851E1,-2.947490692E0,-4.443608284E0,-1.869650722E0
8.585885049E1,3.209697008E0,3.871397257E0,-2.022209883E0
8.590965169E1,2.383067846E0,-5.996229172E0,7.621846795E-1
8.596045372E1,1.355470061E0,-6.584169865E0,2.721324563E-1
8.601125648E1,-4.674661160E0,-3.933856487E-1,7.382241726E0
8.606205851E1,-6.887302876E0,-6.893869400E0,4.187357903E0
8.611285966E1,-2.269297600E0,1.406017661E0,9.286405444E-1
8.616366169E1,-1.466033421E-2,-5.192201734E-1,1.719840407E0
8.621446445E1,1.758171082E0,2.739650011E0,-2.753393948E-1
8.626526643E1,1.585301399E0,-2.846700907E0,-2.076880634E-1
8.631606757E1,3.858263969E0,3.497100592E0,-7.301151752E-1
8.636686960E1,3.397379637E0,-9.361234307E-2,-5.808241367E0
8.641767242E1,4.025025368E0,-1.876828194E0,-7.744321346E0
8.646847440E1,5.070032179E-2,3.698680162E0,-1.153279662E0
8.651927554E1,-2.031525373E0,8.953799248E0,7.522584200E-1
8.657007757E1,-2.813409805E0,2.259982109E0,9.310839176E-1
8.662088034E1,-4.575398445E0,-7.995990515E-1,-9.203941226E-1
8.667168231E1,4.586546421E0,1.665322304E0,-2.565863848E0
8.672248346E1,2.158734322E0,-7.588860989E0,1.673110604E0
8.677328549E1,8.816053271E-1,-2.274795294E0,-5.454866290E-1
8.682408825E1,-1.988155127E0,-3.468848944E0,6.289283276E0
8.687489023E1,-1.033125973E1,-2.900608301E0,3.877505779E0
8.692569138E1,2.516690791E-1,-1.819561243E0,9.822424054E-1
8.697649336E1,-7.007945180E-1,-6.632274389E-1,1.669445515E0
8.702729612E1,6.123743951E-2,3.269712687E0,-3.573456407E-1
8.707809810E1,2.082072973E0,5.436540768E-2,-4.674508572E-1
8.712889924E1,5.009100437E0,1.768402815E0,-7.403468490E-1
8.717970127E1,3.779922724E0,5.572454333E-1,-5.897424698E0
8.723050403E1,4.811949253E0,-2.828222811E-1,-6.807740211E0
8.728130596E1,8.881719112E-1,2.142699480E0,-1.362342119E0
8.733210710E1,-2.724989653E0,6.387476921E0,1.006065488E0
8.738290914E1,-2.046643734E0,1.601794243E0,1.203521848E0
8.743371184E1,-3.139296770E0,-1.574306130E0,-3.542914242E-2
8.748451382E1,2.143615723E0,3.291397810E0,-1.130831003E0
8.753531497E1,1.362494826E0,-7.960866928E0,6.306998134E-1
8.758611695E1,1.836512327E0,-2.109713793E0,-1.411515355E0
8.763691971E1,3.332171738E-1,-7.069335461E0,4.680464268E0
8.768772169E1,-8.414878845E0,2.435142517E0,6.507355690E0
8.773852278E1,-9.834641218E-2,-5.467693806E0,1.707470775E0
8.778932481E1,-3.268949032E0,2.534710646E0,3.111045122E0
8.784012757E1,8.440381885E-1,1.192221165E0,-4.611896724E-2
8.789092950E1,7.893673778E-1,3.231382072E-1,-5.302154422E-1
8.794173060E1,3.702803373E0,7.971556485E-2,-9.523108602E-1
8.799253263E1,4.095578194E0,1.809787750E0,-1.894542813E0
8.804333539E1,3.608732939E0,1.635238171E0,-7.779597759E0
8.809413731E1,3.013920307E0,-1.653410792E0,-4.995814323E0
8.814493846E1,-1.257734537E0,6.134738922E0,-3.620797098E-1
8.819574044E1,-1.896680713E0,6.841947556E0,1.129609346E0
8.824654320E1,-3.538180113E0,1.323706031E0,6.702521443E-1
8.829734513E1,-3.276279211E0,-2.911145210E0,-7.794411182E-1
8.834814622E1,3.838411570E0,4.947862923E-1,-2.301214218E0
8.839894825E1,1.539793253E0,-6.475591660E0,2.721324563E-1
8.844975096E1,2.179502964E0,-4.659237385E0,-3.610107303E-1
8.850055294E1,-1.947686434E0,-1.679066420E0,7.001225948E0
8.855135403E1,-9.000834465E0,-4.548979759E0,5.244581699E0
8.860215606E1,2.073826492E-1,-9.888089895E-1,7.461498976E-1
8.865295877E1,-1.563463569E0,1.426328421E-1,2.547385693E0
8.870376070E1,1.218182087E0,2.624047041E0,-7.727217674E-1
8.875456185E1,1.037524104E0,-1.012479305E0,-4.016320705E-1
8.880536382E1,3.873229742E0,2.277238607E0,-9.892671108E-1
8.885616653E1,3.616063118E0,6.844543815E-1,-5.519157887E0
8.890696851E1,4.460711956E0,7.058340311E-1,-6.905017376E0
8.895776961E1,1.431978703E0,2.035648525E-1,-2.032594204E0
8.900857158E1,-2.526617050E0,7.386823177E0,9.269607067E-1
8.905937429E1,-1.404490590E0,3.243598938E0,7.215633392E-1
8.911017627E1,-4.018916607E0,-9.674293399E-1,-1.927223057E-1
8.916097737E1,1.523605824E0,3.541387081E0,-1.684716702E0
8.921177935E1,2.487522840E0,-6.429931164E0,-1.068982668E-2
8.926258210E1,2.306253910E0,-3.593919754E0,-6.667397618E-1
8.931338403E1,-3.500154912E-1,-4.020138741E0,4.922818184E0
8.936418513E1,-8.438549042E0,2.228981733E0,5.445550442E0
8.941498716E1,-1.265980959E0,-9.179049492E0,1.697849989E0
8.946578987E1,-2.223484039E0,1.672499776E0,2.086196184E0
8.951659179E1,7.979192138E-1,6.389462352E-1,4.011739492E-1
8.956739289E1,9.820896983E-1,2.177212238E0,-6.733064055E-1
8.961819487E1,3.536500216E0,1.532921195E0,-1.105480790E0
8.966899763E1,3.529322863E0,4.770717025E-1,-4.210417271E0
8.971979955E1,3.406389713E0,4.421923161E0,-6.291268826E0
8.977060065E1,3.675467968E0,-2.463852406E0,-2.976658583E0
8.982140263E1,-1.989682198E0,5.688362598E0,1.211920977E0
8.987220539E1,-1.656465054E0,3.535278559E0,1.227039456E0
8.992300731E1,-3.330339193E0,2.615953386E-1,1.215891480E0
8.997380841E1,6.152759194E-1,-3.547495604E-1,-5.916055441E-1
9.002461039E1,2.705900669E0,-3.207558870E0,-1.073564053E0
9.007541310E1,1.597671032E0,-9.827005267E-1,-6.679614782E-1
9.012621507E1,-3.741439432E-2,-6.799340725E0,3.482592821E0
9.017701617E1,-6.370831490E0,1.004080176E0,5.546034813E0
9.022781815E1,-3.992803097E0,-6.153675079E0,3.833066463E0
9.027862091E1,-3.150902987E0,1.769166350E0,1.402505279E0
9.032942284E1,6.250494719E-1,1.374406274E-3,7.261446714E-1
9.038022393E1,8.935168386E-1,9.840749502E-1,-5.987830162E-1
9.043102591E1,3.836731672E0,-5.796940327E-1,-1.300493836E0
9.048182862E1,3.193509579E0,2.367949486E0,-3.116695404E0
9.053263060E1,4.119095802E0,3.007200956E0,-6.526292324E0
9.058343169E1,4.123219013E0,-3.393867254E0,-3.203283072E0
9.063423367E1,-1.292247415E0,4.270586014E0,6.281036735E-1
9.068503638E1,-1.082726717E0,3.289412498E0,1.110062122E0
9.073583830E1,-3.221150398E0,-5.018110275E-1,1.631267548E0
9.078663940E1,-5.932853818E-1,8.365553021E-1,5.222744122E-2
9.083744143E1,2.117960215E0,1.580109119E0,-1.111283898E0
9.088824414E1,2.172325611E0,-2.658101797E0,-4.459185004E-1
9.093904606E1,-9.313893318E-1,-2.041909695E0,2.996664047E0
9.098984721E1,-9.490734100E0,2.739650011E-1,4.680769920E0
9.104064919E1,-1.247960925E0,-1.001178646E1,1.042410851E0
9.109145190E1,-2.624657869E0,2.943367481E0,1.631114841E0
9.114225382E1,7.186617851E-1,-9.290986657E-1,1.479777455E0
9.119305497E1,-3.161134571E-2,3.665847063E0,1.467560530E-1
9.124385695E1,2.772483110E0,-5.854970813E-1,-1.234064221E0
9.129465966E1,5.439136505E0,3.987305462E-1,-3.443498611E0
9.134546159E1,4.118943214E0,-3.027206421E0,-3.255357742E0
9.139626273E1,1.151141644E0,-8.325847983E-1,-4.216984272E0
9.144706471E1,2.672456764E-2,1.986780763E0,-2.096580505E0
9.149786742E1,-1.248113632E0,4.610369682E0,8.394568563E-1
9.154866935E1,-3.232298374E0,3.063551664E0,2.234326601E0
9.159947044E1,-1.170841455E0,-5.087135792E0,4.781406820E-1
9.165027247E1,5.986303329E0,5.876656055E0,-2.963525534E0
9.170107518E1,-2.010909081E0,-7.963921428E-1,-1.015228152E0
9.175187716E1,-1.963721275E0,-9.665894508E0,2.561893463E0
9.180267825E1,-2.985363245E0,3.736399889E0,5.631706238E0
9.185348023E1,-4.359616756E0,-6.308372498E0,1.585148692E0
9.190428299E1,-2.232341290E0,2.057944298E0,1.217418551E0
9.195508492E1,-1.855601311E0,6.693359017E-1,2.028623819E0
9.200588601E1,7.572978735E-1,4.094203949E0,6.200099736E-2
9.205668799E1,4.015099049E0,-1.144269586E0,-6.600204706E-1
9.210749075E1,4.619990349E0,-2.503252029E0,-1.946617484E0
9.215829268E1,2.903357029E0,-2.376195908E0,-7.920093060E0
9.220909382E1,1.046686769E0,-1.016449809E0,-3.589949369E0
9.225989580E1,-5.885513425E-1,4.414745808E0,-1.198176861E0
9.231069851E1,-1.773900390E0,4.901133060E0,1.347987175E0
9.236150049E1,-2.037175655E0,1.949824452E0,2.786685228E0
9.241230159E1,-7.165238261E-1,-2.729570866E0,9.081771374E-1
9.246310356E1,5.192659855E0,7.350325108E0,-1.106091619E0
9.251390632E1,-1.584995866E0,-7.484253407E0,-1.455343664E-1
9.256470825E1,-2.090166569E0,-7.657581329E0,9.739959836E-1
9.261550940E1,-4.126425743E0,2.139950752E0,4.563639641E0
9.266631138E1,-4.940380096E0,-2.135980129E0,3.346832037E0
9.271711414E1,-2.152472973E0,-5.409052372E-1,8.234221339E-1
9.276791606E1,-1.253764033E0,8.583931327E-1,1.827654958E0
9.281871716E1,1.219251156E0,3.223899126E0,-4.167505503E-1
9.286951919E1,2.909465551E0,-3.033009291E0,-4.141544402E-1
9.292032190E1,4.401917934E0,1.018587828E0,-1.479624748E0
9.297112388E1,3.669817686E0,2.270366669E0,-7.813194752E0
9.302192497E1,4.037242413E0,-3.406389713E0,-3.063246250E0
9.307272695E1,-2.820587158E-1,2.792182922E0,-1.145491362E0
9.312352971E1,-1.766723037E0,5.884291649E0,1.567281365E0
9.317433164E1,-1.708234310E0,3.843145609E0,2.296022177E0
9.322513278E1,-1.690672517E0,-1.036302328E0,7.482878864E-3
9.327593476E1,2.756295443E0,2.391619682E0,-2.991166353E0
9.332673752E1,2.076117039E0,-2.158734322E0,4.436278343E-1
9.337753945E1,4.550812021E-2,-6.089689255E0,7.779139876E-1
9.342834060E1,-2.824252367E0,-3.926526070E0,5.765940189E0
9.347914257E1,-1.077229118E1,1.597365588E-1,2.995900393E0
9.352994534E1,-2.412846684E-1,-2.744078636E0,1.850867122E-1
9.358074726E1,-1.809787750E0,5.296045542E-1,2.075811625E0
9.363154841E1,1.119988441E0,1.446639061E0,-2.974826097E-1
9.368235039E1,1.310267329E0,-5.291464329E-1,-1.937913001E-1
9.373315315E1,4.211486340E0,8.415948153E-1,-2.664821148E-1
9.378395507E1,3.697611094E0,2.439418554E0,-4.620906830E0
9.383475622E1,5.101338387E0,4.471401870E-1,-5.472275257E0
9.388555820E1,2.737817526E0,-1.181531310E0,-2.369323730E0
9.393636096E1,-1.439614296E0,4.813323498E0,6.792621613E-1
9.398716289E1,-1.580567241E0,3.758848667E0,1.557049632E0
9.403796403E1,-2.614578962E0,6.597150564E-1,1.069593549E0
9.408876601E1,-1.960819662E-1,-1.652952671E0,-1.944326878E0
9.413956877E1,4.147347450E0,-1.491994411E-1,-9.095515609E-1
9.419037070E1,2.924431264E-1,-4.910601139E0,4.355340898E-1
9.424117185E1,-7.185090780E-1,-6.289130688E0,4.247526646E0
9.429197388E1,-7.985453606E0,1.482373595E0,6.033949375E0
9.434277659E1,-4.266768098E-1,-4.677868366E0,2.299229145E0
9.439357856E1,-3.026595354E0,1.936843991E0,2.236311913E0
9.444437966E1,-4.773771465E-1,1.375322580E0,1.055849433E0
9.449518169E1,1.474890709E0,7.753179073E-1,-7.383615971E-1
9.454598440E1,4.099090576E0,-9.437590092E-2,-9.600991607E-1
9.459678638E1,4.208737850E0,1.730835676E0,-4.150401592E0
9.464758752E1,4.464529991E0,1.392884493E0,-6.724512100E0
9.469838950E1,2.770803213E0,-1.686396599E0,-2.350387573E0
9.474919226E1,-1.179393291E0,5.489378929E0,3.698680103E-1
9.479999419E1,-1.752062678E0,5.868562222E0,2.028776407E0
9.485079534E1,-3.299949646E0,1.405864954E0,5.489989519E-1
9.490159731E1,-1.776191115E0,-4.905714512E0,-2.439876556E0
9.495240007E1,4.208737850E0,3.547037363E0,-2.360924721E0
9.500320205E1,2.202715158E0,-6.974501133E0,1.108535051E0
9.505400315E1,5.902311802E-1,-7.504563808E0,3.161898136E0
9.510480518E1,-5.717988491E0,2.589381456E0,5.918651581E0
9.515560794E1,-2.912061691E0,-5.782279968E0,3.330950022E0
9.520640987E1,-2.505237341E0,1.504974961E0,1.663031697E0
9.525721101E1,-9.049702287E-1,7.166765332E-1,1.861251593E0
9.530801299E1,8.234221339E-1,2.034884930E0,-1.269035190E-1
9.535881575E1,3.744340897E0,-3.494046330E-1,-3.860554695E-1
9.540961768E1,4.771175385E0,1.764890432E0,-2.178586721E0
9.546041882E1,3.427158594E0,1.764279604E0,-8.270719528E0
9.551122086E1,3.479691505E0,-2.801345587E0,-3.753350973E0
9.556202356E1,-8.134958148E-1,4.511870384E0,-2.214321308E-2
9.561282554E1,-1.865527511E0,6.485059738E0,2.302283287E0
9.566362664E1,-2.106812239E0,1.704722047E0,1.193290114E0
9.571442867E1,-2.409487009E0,-3.590560198E0,-1.450762272E0
9.576523138E1,4.139559269E0,4.621212006E0,-2.305795670E0
9.581603336E1,-2.399102598E-1,-7.438745022E0,9.472714067E-1
9.586683445E1,-3.826957941E-1,-3.803440571E0,3.533446074E0
9.591763648E1,-8.623178482E0,2.614884377E0,3.965314865E0
9.596843924E1,-2.311751366E0,-9.973150253E0,1.881562233E0
9.601924117E1,-3.540165186E0,3.744799137E0,2.112615347E0
9.607004231E1,1.144116879E0,-1.147323847E0,3.365768492E-1
9.612084429E1,7.475243211E-1,3.859027624E-1,-9.009997249E-1
9.617164705E1,3.225120783E0,-1.627907902E-1,-9.468132257E-1
9.622244903E1,4.174530029E0,2.329771519E0,-1.219556570E0
9.627325013E1,3.286816359E0,9.272661209E-1,-7.670714378E0
9.632405216E1,3.483661890E0,-3.294910192E0,-4.630985737E0
9.637485487E1,-2.791571915E-1,2.608012438E0,-9.521581531E-1
9.642565684E1,-1.793905735E0,4.750406265E0,1.346765518E0
9.647645794E1,-1.680135369E0,8.084563613E-1,2.330382347E0
9.652725997E1,-2.034732103E0,-1.958376288E0,1.487413049E0
9.657806268E1,2.978643894E0,5.039795399E0,-2.643441439E0
9.662886466E1,1.506654739E0,-7.786775589E0,-3.695625812E-2
9.667966575E1,-8.399149403E-3,-4.463613510E0,6.093201637E-1
9.673046778E1,-4.813781738E0,1.362189412E0,5.497014523E0
9.678127054E1,-6.096560955E0,-1.272394896E0,3.720976114E0
9.683207247E1,-2.198591948E0,-6.928535104E-1,1.730682969E0
9.688287362E1,1.669140160E-1,2.342599183E-1,9.562813640E-1
9.693367560E1,1.702584028E0,6.520794332E-2,-1.369519591E0
9.698447836E1,3.224662781E0,8.226585388E-1,-1.030499339E0
9.703528028E1,4.023498058E0,3.469154358E0,-1.258192658E0
9.708608138E1,3.124178410E0,2.299534559E0,-6.087856293E0
9.713688341E1,4.294714451E0,-1.595227599E0,-3.353093386E0
9.718768612E1,1.307213157E-1,2.124068737E0,-3.474193811E-1
9.723848810E1,-2.225774765E0,4.226452351E0,1.457787037E0
9.728928919E1,-2.592741251E0,2.733541429E-1,1.678913713E0
9.734009122E1,-2.679786921E0,-4.030064642E-1,7.102626562E-1
9.739089393E1,3.869564772E0,1.519177079E0,-1.695864677E0
9.744169591E1,4.833329022E-1,-6.277677059E0,-3.775036037E-1
9.749249700E1,7.757760286E-1,-5.265045166E0,1.960819662E-1
9.754329903E1,-4.726430893E0,1.834374309E0,5.244429111E0
9.759410174E1,-6.241637230E0,-4.194993496E0,3.649812460E0
9.764490372E1,-1.860946178E0,-4.359922409E-1,1.424190402E0
9.769570481E1,-3.741439432E-2,-9.210049510E-1,2.012588978E0
9.774650679E1,1.922641695E-1,2.779660463E0,-9.880454093E-2
9.779730955E1,3.075005054E0,-6.478035450E-1,-3.747547865E-1
9.784811148E1,4.986804485E0,1.885990858E0,-8.774821162E-1
9.789891257E1,3.768622160E0,1.407697558E0,-6.911278725E0
9.794971461E1,4.727041721E0,-2.343515396E0,-4.666109562E0
9.800051731E1,3.840702176E-1,3.058817625E0,-3.300102353E-1
9.805131929E1,-1.777107358E0,6.563401222E0,1.588508248E0
9.810212039E1,-2.226691008E0,2.409181595E0,9.130639434E-1
9.815292237E1,-2.992388010E0,-2.019919157E0,-9.782719016E-1
9.820372513E1,3.378901720E0,7.105680704E-1,-2.126512051E0
9.825452705E1,1.696170092E0,-5.145472050E0,-2.899997234E-1
9.830532815E1,8.867974877E-1,-5.165477276E0,9.101623893E-1
9.835613018E1,-3.350039005E0,-1.368297935E-1,5.324908257E0
9.840693289E1,-8.951813698E0,-6.629830837E0,4.276083469E0
9.845773487E1,-4.886778072E-3,5.971031785E-1,8.466343284E-1
9.850853596E1,-1.396702290E0,8.599202037E-1,1.805664539E0
9.855933794E1,1.190541267E0,2.384747744E0,-1.073869467E0
9.861014065E1,2.559297323E0,-1.294385314E0,-1.209019423E0
9.866094263E1,3.879796267E0,2.511498451E0,-9.202414155E-1
9.871174372E1,3.291092396E0,1.939440072E-1,-5.873754501E0
9.876254570E1,3.580633879E0,-3.069507517E-2,-5.921247959E0
9.881334846E1,5.764871240E-1,2.281056404E0,-1.192068458E0
9.886415039E1,-2.104216099E0,5.748225212E0,1.155417562E0
9.891495148E1,-2.597780704E0,9.116895199E-1,1.459772229E0
9.896575346E1,-3.126468897E0,-1.733584523E0,7.693621516E-1
9.901655622E1,3.730138779E0,3.841923952E0,-1.555522561E0
9.906735815E1,2.575484753E0,-6.352353573E0,1.666085869E-1
9.911815924E1,5.752654076E-1,-3.338891029E0,-5.328115225E-1
9.916896122E1,-3.830317736E0,-1.467560530E0,6.432832718E0
9.921976398E1,-9.044509888E0,-4.977794170E0,4.494919777E0
9.927056591E1,1.974563748E-1,-6.597150117E-2,5.022691488E-1
9.932136700E1,-2.025111437E0,8.845068216E-1,2.343209982E0
9.937216898E1,5.355603099E-1,2.319845200E0,-4.741701782E-1
9.942297169E1,2.365505934E0,-9.865183234E-1,-9.764393568E-1
9.947377362E1,4.132534504E0,1.562852740E0,-1.081046939E0
9.952457471E1,3.656531811E0,7.530219555E-1,-5.602080345E0
9.957537669E1,3.800080776E0,1.752062678E0,-5.400500774E0
9.962617945E1,2.027707577E0,-6.930062175E-1,-1.424037695E0
9.967698138E1,-1.950435281E0,4.333197594E0,9.929322004E-1
9.972778247E1,-2.172172785E0,1.576291323E0,1.760309100E0
9.977858445E1,-3.007811785E0,1.736333370E0,1.607444525E0
9.982938716E1,3.420744658E0,1.418845415E0,-1.130220175E0
9.988018909E1,2.131398916E0,-5.155550957E0,-5.628957748E-1
9.993099018E1,-7.824953198E-1,-4.374124527E0,-1.110062122E0
9.998179216E1,-3.945615053E0,1.055696726E0,5.447993755E0
1.000325949E2,-9.150796890E0,-4.796983719E0,3.236268759E0
1.000833968E2,-3.970507160E-2,-1.221694469E0,8.365553021E-1
1.001341979E2,-8.611419201E-1,-8.121214509E-1,2.656574726E0
1.001849999E2,3.717005551E-1,1.879577041E0,-2.403683960E-1
1.002358026E2,2.429186821E0,-1.302937150E0,-1.068524599E0
1.002866045E2,4.082902908E0,2.233410358E0,-1.355317354E0
1.003374056E2,3.582771778E0,1.500393629E0,-5.715392590E0
1.003882076E2,4.339917183E0,8.475505561E-2,-4.733455181E0
1.004390103E2,1.050962687E0,6.145123243E-1,-1.019809484E0
1.004898122E2,-1.694948435E0,5.536566734E0,1.067913771E0
1.005406133E2,-1.267049909E0,3.552840471E0,5.254813433E-1
1.005914153E2,-3.504430771E0,3.680354655E-1,-1.223221645E-1
1.006422180E2,2.208212852E0,2.341682911E0,-1.752978921E0
1.006930199E2,2.442930937E0,-4.191022873E0,-2.492256761E-1
1.007438210E2,5.340332389E-1,-6.246676922E0,-1.945090413E0
1.007946229E2,1.397313178E-1,-5.743491173E0,7.199293137E0
1.008454257E2,-9.836778641E0,1.440225124E0,5.478689194E0
1.008962276E2,1.982962966E0,-4.917015076E0,1.250557065E0
1.009470287E2,-2.654742241E0,8.040276766E-1,2.341072083E0
1.009978306E2,2.499892414E-1,2.399102688E0,1.301104724E-1
1.010486333E2,8.131904006E-1,-6.117635369E-1,-3.458922505E-1
1.010994352E2,3.715478420E0,2.108950138E0,-8.980981708E-1
1.011502363E2,4.131312847E0,2.021904439E-1,-5.105155945E0
1.012010383E2,3.884988546E0,1.611567736E0,-7.575269699E0
1.012518410E2,2.677954435E0,-1.957154632E0,-1.537197113E0
1.013026429E2,-1.679066420E0,6.136113644E0,1.368450522E0
1.013534440E2,-1.071884274E0,4.078321934E0,1.909508586E0
1.014042460E2,-2.500197887E0,-9.520054460E-1,8.976400495E-1
1.014550487E2,1.196649790E0,1.615996480E0,-2.608470440E0
1.015058505E2,3.720212460E0,-4.776062012E0,-1.062874198E0
1.015566516E2,-2.412846684E-1,-5.326893330E0,-1.513374150E-1
1.016074536E2,-2.006022453E0,-6.671979427E-1,5.566345692E0
1.016582563E2,-9.451181412E0,-1.634627223E0,5.172196388E0
1.017090582E2,4.453076422E-1,-2.985974073E0,8.506048322E-1
1.017598593E2,-2.466753960E0,8.936695457E-1,2.692003965E0
1.018106612E2,8.609892130E-1,7.826480269E-1,3.301629424E-1
1.018614639E2,1.014922738E0,-1.258498073E0,-1.916533262E-1
1.019122658E2,3.794277668E0,2.676274538E0,-8.255600929E-1
1.019630669E2,3.656073570E0,1.271936655E0,-4.695124626E0
1.020138689E2,4.255620003E0,1.712815762E0,-6.283785820E0
1.020646715E2,2.781340361E0,-1.266744494E0,-2.300908804E0
1.021154735E2,-1.155722976E0,4.707494259E0,8.825215697E-1
1.021662745E2,-1.357149839E0,4.316857815E0,1.541625738E0
1.022170765E2,-3.443651438E0,1.881562233E0,6.377245188E-1
1.022678791E2,-5.283828825E-2,-9.655967951E-1,-1.710677743E0
1.023186811E2,3.473888397E0,-2.553341687E-1,-9.599464536E-1
1.023694821E2,4.897467792E-1,-6.829272270E0,-1.125944257E0
1.024202841E2,3.904841244E-1,-4.710243225E0,4.721085548E0
1.024710867E2,-9.040081024E0,3.286510944E0,5.635676861E0
1.025218887E2,-1.870719790E-1,-8.423277855E0,1.701362371E0
1.025726897E2,-3.475568295E0,3.061719179E0,2.234173775E0
1.026234917E2,5.480827093E-1,4.847072959E-1,6.210789680E-1
1.026742943E2,1.348903418E0,2.738122940E-1,-5.974085927E-1
1.027250963E2,4.277915955E0,-1.292705536E0,-8.593093753E-1
1.027758973E2,4.486673355E0,7.928797603E-1,-2.967190504E0
1.028266992E2,3.307279825E0,3.127385139E0,-8.091893196E0
1.028775019E2,2.785921574E0,-1.796196342E0,-3.787252903E0
1.029283038E2,-1.483595252E0,4.594335079E0,2.794626169E-2
1.029791049E2,-2.569376230E0,5.533818245E0,2.100245476E0
1.030299068E2,-2.614731789E0,1.178935245E-1,1.501157165E0
1.030807095E2,-2.380013704E0,-1.771915197E0,-1.106702566E0
1.031315114E2,4.637857914E0,1.864611268E0,-2.403836727E0
1.031823125E2,1.246433854E0,-6.537134647E0,5.074613690E-1
1.032331144E2,7.308787704E-1,-3.396921635E0,1.522078633E0
1.032839171E2,-5.998214722E0,6.271874309E-1,6.177803516E0
1.033347190E2,-4.040143967E0,-8.669754982E0,2.684215546E0
1.033855200E2,-2.577622652E0,2.765152931E0,1.223679781E0
1.034363220E2,-1.049893737E0,2.441861928E-1,1.855143070E0
1.034871247E2,5.674771070E-1,2.960013151E0,-3.321481943E-1
1.035379265E2,2.646190405E0,-8.851176500E-1,-3.126010895E-1
1.035887276E2,4.444066525E0,2.113073349E0,-9.268079996E-1
1.036395296E2,3.412803650E0,4.033119082E-1,-7.075596333E0
1.036903322E2,3.890180826E0,-1.112810969E0,-5.299252510E0
1.037411341E2,7.788302749E-2,2.679634094E0,-8.116632700E-1
1.037919352E2,-2.024806023E0,5.850847721E0,1.477028728E0
1.038427371E2,-1.878049850E0,3.554214716E0,1.625617266E0
1.038935398E2,-2.857543468E0,-8.321266770E-1,-7.273663878E-1
1.039443417E2,3.504125357E0,1.310267329E0,-2.362451792E0
1.039951427E2,2.683299303E0,-6.758108616E0,9.483403713E-2
1.040459447E2,3.130592033E-2,-3.678674936E0,2.324273884E-1
1.040967474E2,-2.745758533E0,-1.371352077E0,5.847335339E0
1.041475492E2,-8.896837234E0,-4.498432159E0,4.713144779E0
1.041983503E2,-1.085780978E0,-1.362189353E-1,1.185959935E0
1.042491522E2,-1.412431598E0,7.464553714E-1,2.805163383E0
1.042999549E2,1.078908920E0,2.028623819E0,-9.688037634E-1
1.043507568E2,2.239213228E0,-1.462521076E0,-7.980719209E-1
1.044015578E2,3.670886517E0,5.389199853E-1,-7.614210844E-1
1.044523598E2,4.026857853E0,3.959817290E-1,-4.248595238E0
