"Time (s)","Linear Acceleration x (m/s^2)","Linear Acceleration y (m/s^2)","Linear Acceleration z (m/s^2)"
1.137421390E-1,1.267445087E-1,2.373166084E-1,7.481980324E-1
1.637421390E-1,-2.045011520E-1,1.560893059E-1,-1.265532017E0
2.137421390E-1,-6.359589100E-1,-6.874227524E-2,-6.672606468E-1
2.637421390E-1,-5.407147408E-1,-6.170365810E-1,-9.239912033E-2
3.137421390E-1,1.448158264E0,2.566647530E-1,8.040523529E-2
3.637421390E-1,3.779368401E-1,2.885735035E-1,8.738040924E-2
4.137421390E-1,-1.073194265E0,-6.806859970E-1,-2.459344864E-1
4.637421390E-1,6.805000305E-1,-2.929230928E-1,7.717666626E-1
5.137421390E-1,-2.622232437E0,-2.776917934E0,8.636970520E-1
5.637421390E-1,-2.843146801E0,-4.557638645E0,-2.112608433E0
6.137421390E-1,-3.750991821E-2,-3.574329376E0,-1.469793797E0
6.637421390E-1,1.095450401E0,-3.876287699E0,-1.608175278E0
7.137421390E-1,3.661390305E0,-2.286271095E0,2.108110428E0
7.637421390E-1,4.497954369E0,-9.741201401E-1,3.001641750E0
8.137421390E-1,6.416357994E0,1.682215691E0,4.831235409E0
8.637421390E-1,4.592266083E0,3.120881796E0,5.140931606E0
9.137421390E-1,4.114554882E0,4.446653366E0,6.190178871E0
9.637421390E-1,7.216062546E-1,2.673450470E0,2.148721218E0
1.013742139E0,-6.325602531E-1,1.423990250E0,1.630764961E0
1.063742139E0,-1.251085281E0,2.801604271E-1,1.999685287E0
1.113742139E0,-7.732391357E-2,1.079572201E0,1.935167313E0
1.163742139E0,3.159494400E-1,-5.396358967E-1,-1.228940487E0
1.213742139E0,-1.264910698E0,-6.077392101E-1,-1.347292185E0
1.263742139E0,-2.431997299E0,-7.355575562E-1,-1.868884563E0
1.313742139E0,-7.898664474E-2,1.402894974E0,2.389367104E0
1.363742139E0,-5.201420784E-1,1.694547534E0,1.774964333E0
1.413742139E0,2.183573723E0,-6.902379990E-1,2.065148354E0
1.463742139E0,2.633149147E0,-1.532468557E0,4.177384377E-1
1.513742139E0,-2.051353455E-2,-2.634080648E0,-8.880317211E-1
1.563742139E0,1.438388824E-1,-1.108598471E0,-3.907846451E0
1.613742139E0,-1.105845451E0,-1.026756763E0,-3.264565945E0
1.663742139E0,-3.011970520E-1,1.270542622E0,-2.771911621E0
1.713742139E0,1.190304756E0,1.146970272E0,8.856513500E-1
1.763742139E0,-7.832403183E-1,5.103998184E-1,7.260034084E-1
1.813742139E0,-1.565343857E0,4.263103962E0,2.318842649E0
1.863742139E0,1.157621861E0,3.389316559E0,-1.272171617E0
1.913742139E0,-2.899942398E-1,-1.037050247E0,-3.383712530E0
1.963742139E0,2.862148285E-1,1.236800671E0,7.330673933E-1
2.013742139E0,-1.861119032E0,2.778984547E0,-1.713360906E0
2.063742139E0,5.219632149E0,-1.879635811E0,6.001085758E0
2.113742139E0,4.736375809E0,-1.033453083E1,8.992546082E0
2.163742139E0,1.118619919E0,-2.114940643E0,3.131069422E0
2.213742139E0,6.445553780E0,-5.636279106E0,-7.646130562E0
2.263742139E0,5.577103615E0,-7.283585548E0,-7.461847305E0
2.313742139E0,4.633362293E-1,-3.786253929E0,3.787267685E0
2.363742139E0,-2.168889046E0,2.226629734E0,-8.266857147E0
2.413742139E0,-7.206830978E-1,5.452564716E0,-6.826393127E0
2.463742139E0,2.624585390E0,4.642229557E0,-5.900938511E0
2.513742139E0,2.879319191E-1,4.190624237E0,-3.627617598E0
2.563742139E0,-3.260200024E0,3.034341812E0,-1.593387604E0
2.613742139E0,2.943616629E0,-4.337855339E0,6.551782131E0
2.663742139E0,2.452190399E0,-1.072869301E0,4.310630322E0
2.713742139E0,2.047784567E0,-5.916737556E0,-1.959616470E1
2.763742139E0,-7.044195175E0,-1.229473114E0,1.410002708E0
2.813742139E0,-3.321075439E0,-6.388332367E0,-4.680779457E0
2.863742139E0,9.825425148E0,-2.278650284E0,8.034985065E-1
2.913742139E0,7.644600868E-1,1.004037857E0,-1.151786089E0
2.963742139E0,-3.792199135E0,4.655281544E0,5.881648540E0
3.013742139E0,-3.459064960E-1,2.698194027E0,1.708747268E0
3.063742139E0,1.903835535E0,1.655948639E0,2.040577173E0
3.113742139E0,3.764402390E0,3.271218300E0,-2.097313166E0
3.163742139E0,-1.005192876E0,-1.710340500E0,2.392175913E0
3.213742139E0,4.824501991E0,-2.498771667E0,1.058797932E1
3.263742139E0,-1.132777214E0,-6.091249466E0,1.398515511E1
3.313742139E0,3.631492376E0,-1.751038551E0,-3.158942938E0
3.363742139E0,2.324102879E0,-3.423033714E0,-4.162801743E0
3.413742139E0,6.888575077E0,-6.838456154E0,-5.612561703E-1
3.463742139E0,3.473129272E-1,-8.415153503E0,1.966238022E-2
3.513742139E0,3.212685347E0,-3.194063187E0,-5.909718513E0
3.563742139E0,-6.310801506E0,5.583220482E0,-5.439014912E0
3.613742139E0,-5.056373119E0,1.097103596E1,-5.497525215E0
3.663742139E0,1.067216873E0,7.734551430E0,2.195934772E0
3.713742139E0,-5.069299698E0,1.916072845E0,3.166236877E-1
3.763742139E0,-3.321241140E0,5.504808426E-1,-1.454158211E1
3.813742139E0,-1.291769028E0,-3.324508667E1,-1.130028343E1
3.863742139E0,6.012924194E0,-1.207506561E1,-5.932814598E0
3.913742139E0,1.053752899E1,-9.084543228E0,2.544598389E1
3.963742139E0,-7.956730843E0,-2.178187370E0,4.075666904E0
4.013742139E0,-5.328868866E0,1.061936665E1,1.621492958E1
4.063742139E0,4.011696815E0,4.525968552E0,-1.931960583E-1
4.113742139E0,1.390775084E0,1.029766560E1,-2.416401386E0
4.163742139E0,1.018585682E0,9.339689255E0,1.115487003E1
4.213742139E0,1.081207657E1,-1.018334293E1,-2.534003735E0
4.263742139E0,5.298977852E0,-4.501980591E1,8.153216362E0
4.313742139E0,2.964468002E-1,-9.411618233E0,-5.441920757E0
4.363742139E0,1.762904644E0,8.826221466E0,-7.694615841E0
4.413742139E0,-4.717148781E0,6.293357372E0,-1.190856647E1
4.463742139E0,-7.451034069E0,9.148071289E0,-1.027685738E1
4.513742139E0,-3.499984741E0,1.098845863E1,-8.113929749E0
4.563742139E0,1.835862398E0,-1.417104721E0,4.947870255E1
4.613742139E0,-3.868108988E0,7.411156654E0,-1.769569206E1
4.663742139E0,-7.798878670E0,-9.877270699E0,-1.736251640E1
4.713742139E0,9.702713013E0,-2.936638641E1,-5.482658386E0
4.763742139E0,2.381947708E1,-1.528597355E1,-5.811861038E0
4.813742139E0,6.209732056E0,-5.558519363E-1,7.004854202E0
4.863742139E0,-7.777946472E0,4.589483738E0,6.297293663E0
4.913742139E0,1.882242918E0,7.999520779E0,4.950503826E0
4.963742139E0,4.069070816E-1,1.034144783E1,-2.512555599E0
5.013742139E0,1.927534103E0,1.173004150E1,6.717597008E0
5.063742139E0,6.168040752E0,-3.092305183E0,-2.395440102E0
5.113742139E0,1.242088318E1,-3.979982758E1,-2.767524004E0
5.163742139E0,2.376618385E-1,-1.504039764E1,7.784118652E-1
5.213742139E0,-4.566751957E0,5.040617943E0,-7.833810806E0
5.263742139E0,-2.877786160E0,9.394523621E0,-6.789772511E0
5.313742139E0,-6.352782726E0,5.975356102E0,-6.749078751E0
5.363742139E0,-1.539961815E0,7.833065987E0,-5.631828308E0
5.413742139E0,3.436031342E0,-2.259707451E-1,1.946842766E1
5.463742139E0,-6.490374088E0,-7.556641102E0,-1.108835602E1
5.513742139E0,-7.415211678E0,-1.293005466E1,-9.293499947E0
5.563742139E0,9.878423691E0,-1.662827110E1,4.136357784E0
5.613742139E0,9.040278435E0,-9.156636238E0,3.371862411E0
5.663742139E0,-3.687439442E0,6.706190109E-1,1.273596382E1
5.713742139E0,-1.598435640E-1,1.113871670E1,3.939851046E0
5.763742139E0,6.835450172E0,1.530274010E1,3.174381495E0
5.813742139E0,-3.212866783E0,1.179819870E1,3.740328789E0
5.863742139E0,-3.622905016E0,5.618027210E0,3.625132561E0
5.913742139E0,-1.284670591E0,-4.067847443E1,-5.614590645E-2
5.963742139E0,2.599560976E0,-1.459024620E1,1.461522102E0
6.013742139E0,1.602120876E0,2.618747711E0,-4.987743855E0
6.063742139E0,-2.960794210E0,6.074506760E0,-6.372122288E0
6.113742139E0,-5.316731453E0,7.850077629E0,-5.368106365E0
6.163742139E0,-2.528926134E0,1.226341248E1,-8.859890938E0
6.213742139E0,6.698224545E0,6.671254158E0,3.485721970E1
6.263742139E0,-1.376698971E1,-3.138638973E0,8.441394806E0
6.313742139E0,-6.846886158E0,-9.802492142E0,-1.605615807E1
6.363742139E0,4.982116699E0,-2.033815002E1,-6.491698265E0
6.413742139E0,2.095629311E1,-2.227832794E1,6.403748989E0
6.463742139E0,4.675529480E0,7.753925323E-1,4.387180328E0
6.513742139E0,-2.957808495E0,5.886729717E0,3.770824909E0
6.563742139E0,6.480349302E-1,9.200371742E0,4.361050606E0
6.613742139E0,3.015971661E0,1.466366005E1,1.669732809E0
6.663742139E0,-1.918301463E0,1.110534859E1,3.193966150E0
6.713742139E0,5.654796600E0,-1.227283478E0,4.948672295E0
6.763742139E0,1.179658985E1,-4.856136322E1,-7.145270348E0
6.813742139E0,3.017880440E0,-1.399009418E1,3.245269775E0
6.863742139E0,-1.708380938E0,3.050412655E0,-5.494534492E0
6.913742139E0,-7.492532730E0,5.331958771E0,-5.525658607E0
6.963742139E0,-6.619920731E0,8.800367355E0,-4.466250420E0
7.013742139E0,-3.011176109E0,1.451191711E1,-6.339452744E0
7.063742139E0,3.162626743E0,1.939918995E0,1.615242577E1
7.113742139E0,-8.708509445E0,4.066030025E0,-8.302140236E0
7.163742139E0,-7.923562050E0,-1.813091278E1,-9.846031189E0
7.213742139E0,7.429516792E0,-2.240031815E1,-3.444450617E0
7.263742139E0,1.782483101E1,-2.002692032E1,-6.107385635E0
7.313742139E0,1.600971341E0,-5.280151367E-1,6.401364326E0
7.363742139E0,-4.814823151E0,1.021976948E1,9.538664818E0
7.413742139E0,3.438557386E0,9.123586655E0,2.713704348E0
7.463742139E0,2.368906975E0,1.381524849E1,2.887256145E0
7.513742139E0,1.855252862E0,8.794692039E0,5.430100441E0
7.563742139E0,9.254037857E0,-6.822348595E0,2.986416101E0
7.613742139E0,8.512477875E0,-4.832934189E1,-5.787205696E0
7.663742139E0,-9.752464294E-2,-1.232380867E1,-2.471043825E0
7.713742139E0,-3.403668404E0,3.405563354E0,-5.754773140E0
7.763742139E0,-7.715300560E0,6.198373318E0,-6.751882553E0
7.813742139E0,-6.503588676E0,1.033752060E1,-5.132945061E0
7.863742139E0,-3.060226202E0,1.421959496E1,-7.786967278E0
7.913742139E0,5.968224525E0,1.522425652E0,2.199577904E1
7.963742139E0,-1.211982059E1,1.229862213E0,3.161455154E0
8.013742139E0,-8.003212929E0,-1.658901024E1,-1.015528107E1
8.063742139E0,1.222438526E1,-2.530981827E1,-8.263797760E0
8.113742139E0,2.686099243E1,-1.772672653E1,6.356736374E1
8.163742139E0,-1.621699333E-1,1.935100555E-1,4.126543045E0
8.213742139E0,-5.159673691E0,1.279227448E1,1.541011333E1
8.263742139E0,4.759139061E0,7.261958599E0,3.031341553E0
8.313742139E0,1.763884664E0,1.234130859E1,-7.667756081E-2
8.363742139E0,1.281982064E0,1.082487297E1,3.808074474E0
8.413742139E0,1.030204868E1,-3.947215080E0,-5.489220619E-1
8.463742139E0,1.351454449E1,-5.301011658E1,-5.155894756E0
8.513742139E0,-1.256135464E0,-1.365789413E1,-4.211430073E0
8.563742139E0,-2.003518581E0,6.381980419E0,-4.576525688E0
8.613742139E0,-6.817300797E0,7.660645485E0,-8.675601959E0
8.663742139E0,-6.686915874E0,1.034341812E1,-6.522393703E0
8.713742139E0,-4.391926765E0,1.406658363E1,-7.769624710E0
8.763742139E0,6.080920219E0,-4.844163895E0,4.626831055E1
8.813742139E0,-1.014409447E1,2.054233551E0,-1.159646416E1
8.863742139E0,-1.052457047E1,-2.046173668E1,-1.402842808E1
8.913742139E0,8.291845322E0,-2.458500862E1,-1.724952221E0
8.963742139E0,2.931754303E1,-2.422221375E1,3.338456631E0
9.013742139E0,4.625133514E0,5.274505615E-1,7.867260456E0
9.063742139E0,-3.974054813E0,1.151852989E1,7.981565475E0
9.113742139E0,2.365909338E0,9.336430550E0,3.036369801E0
9.163742139E0,2.483205318E0,1.469513893E1,4.997687340E0
9.213742139E0,-5.686300993E-1,8.744829178E0,4.989517689E0
9.263742139E0,9.526612282E0,-8.810127258E0,6.309573174E0
9.313742139E0,1.234849072E1,-5.055570221E1,-5.964739799E0
9.363742139E0,-2.098932266E0,-1.793316269E1,-1.659889460E0
9.413742139E0,-2.899855137E0,8.515451431E0,-4.014954090E0
9.463742139E0,-7.355874062E0,7.513360977E0,-8.319364548E0
9.513742139E0,-6.714015484E0,9.705939293E0,-5.699526310E0
9.563742139E0,-4.647860527E0,1.334597969E1,-5.426679611E0
9.613742139E0,2.511557579E0,-2.221001625E0,3.580084229E1
9.663742139E0,-4.929978848E0,8.878316879E0,-1.355407715E1
9.713742139E0,-7.013207912E0,-2.824745941E1,-9.856641769E0
9.763742139E0,6.356920242E0,-2.061697197E1,-7.655748367E0
9.813742139E0,2.511382294E1,-2.020605087E1,-7.062849998E0
9.863742139E0,7.065493107E0,1.322820663E0,5.065436363E0
9.913742139E0,-2.459406853E0,7.570734024E0,5.501488686E0
9.963742139E0,3.141114712E0,7.683565617E0,5.011571407E0
1.001374214E1,-4.907822609E-2,1.246992874E1,3.459154606E0
1.006374214E1,-2.698149204E0,8.952143669E0,5.686193943E0
1.011374214E1,5.666747570E0,-1.795854568E-1,5.121045113E-1
1.016374214E1,1.662406158E1,-3.769383240E1,2.027873993E0
1.021374214E1,2.902006149E0,-2.472314644E1,5.634882450E-1
1.026374214E1,-1.905481815E0,5.206331253E0,-3.842606306E0
1.031374214E1,-4.943213940E0,9.950008392E0,-7.286815166E0
1.036374214E1,-7.652466774E0,8.496860504E0,-8.197583199E0
1.041374214E1,-3.557783842E0,1.357186031E1,-8.778845787E0
1.046374214E1,-3.342610359E0,6.248784065E0,1.931998253E1
1.051374214E1,-8.479710579E0,4.195374012E0,-1.972399902E1
1.056374214E1,-1.019981956E1,-6.856897354E0,-1.147437286E1
1.061374214E1,4.691621304E0,-2.326041985E1,-8.393040657E0
1.066374214E1,3.380408478E1,-3.093677902E1,-1.440827847E1
1.071374214E1,1.381695557E1,4.346299171E0,1.179409981E1
1.076374214E1,-2.782080770E-1,7.471624374E0,-4.418590069E0
1.081374214E1,2.819923639E0,1.394094753E1,8.394330978E0
1.086374214E1,3.622629166E0,1.236671829E1,4.843613148E0
1.091374214E1,-4.384240150E0,7.880168915E0,7.013488770E0
1.096374214E1,5.607375145E0,2.087874413E0,-8.035975695E-1
1.101374214E1,1.973108292E1,-2.571269608E1,1.126962280E1
1.106374214E1,1.547435760E0,-3.515722656E1,3.784972668E0
1.111374214E1,-3.844546556E0,1.746712685E0,-7.464671135E0
1.116374214E1,-4.985454082E0,1.175280285E1,-7.003341675E0
1.121374214E1,-9.077386856E0,9.957285881E0,-1.138747120E1
1.126374214E1,-6.560616970E0,1.296222687E1,-8.388525963E0
1.131374214E1,2.209071159E0,8.876181602E0,3.830231476E1
1.136374214E1,-5.779343128E0,5.568812370E0,-1.566233253E1
1.141374214E1,-9.245306969E0,1.952600479E-2,-1.264721775E1
1.146374214E1,3.345709801E0,-3.468669891E1,-8.692640305E0
1.151374214E1,2.636667252E1,-3.064033127E1,-7.766931057E0
1.156374214E1,1.266891098E1,-5.161228180E-1,3.155259132E0
1.161374214E1,-3.109765530E0,1.013474274E1,8.492670059E0
1.166374214E1,7.501070499E0,1.042994118E1,5.993999481E0
1.171374214E1,1.960051298E0,1.197127438E1,-1.917135715E-1
1.176374214E1,-1.225229502E0,1.003139782E1,7.049518585E0
1.181374214E1,7.335897446E0,-5.700912476E-1,-2.547471762E0
1.186374214E1,2.149476242E1,-3.788769150E1,8.134699821E0
1.191374214E1,3.195375443E0,-2.755906296E1,-4.578571320E-1
1.196374214E1,-1.350078106E0,8.169975281E0,-5.305592537E0
1.201374214E1,-5.513531685E0,9.232798576E0,-1.169816399E1
1.206374214E1,-6.527145386E0,1.068873787E1,-1.468086433E1
1.211374214E1,-8.278308868E0,1.351882935E1,-1.329880714E1
1.216374214E1,-3.906250000E-1,8.082718849E-1,2.158133698E1
1.221374214E1,-4.179793835E0,7.814399242E0,-2.244270706E1
1.226374214E1,-1.301920795E1,-1.171981144E1,-1.688754654E1
1.231374214E1,1.282724380E0,-2.802364731E1,-3.518902540E0
1.236374214E1,3.755371475E1,-3.712718201E1,-1.691839218E1
1.241374214E1,1.353561974E1,3.162049294E0,4.148877621E0
1.246374214E1,-8.642768860E0,1.482854652E1,1.563311577E1
1.251374214E1,4.394742012E0,1.012044621E1,2.908683538E0
1.256374214E1,7.985967398E-1,1.153893661E1,7.036896706E0
1.261374214E1,-3.028893948E0,8.303821564E0,3.847176313E0
1.266374214E1,1.383720112E1,-7.223087311E0,-1.396320939E0
1.271374214E1,1.564011574E1,-3.473589706E1,3.250688553E0
1.276374214E1,3.030788422E0,-2.763179779E1,-3.366669893E0
1.281374214E1,-2.981033802E0,6.232752800E0,-5.286847115E0
1.286374214E1,-8.351214409E0,8.066365242E0,-1.229050732E1
1.291374214E1,-7.790376663E0,1.215266514E1,-1.110589886E1
1.296374214E1,-7.746603966E0,1.384745979E1,-6.702289581E0
1.301374214E1,-1.379545450E0,2.789234638E0,7.628615379E0
1.306374214E1,-3.210902691E0,7.617468834E0,-1.836080933E1
1.311374214E1,-1.078068924E1,-8.211171150E0,-1.164591885E1
1.316374214E1,5.349516869E-1,-2.481669998E1,-6.927033424E0
1.321374214E1,2.109753799E1,-2.521062088E1,-5.587774277E0
1.326374214E1,1.456195450E1,9.709501266E-1,-3.993437290E0
1.331374214E1,-4.664490700E0,8.187359810E0,9.704322815E0
1.336374214E1,5.736490250E0,1.652394485E1,1.262550163E1
1.341374214E1,3.343706131E0,6.039997101E0,2.004252911E0
1.346374214E1,-1.300514936E0,1.248042297E1,9.728313446E0
1.351374214E1,2.402053118E0,7.372425556E0,2.077952147E0
1.356374214E1,1.405406380E1,-2.235089302E1,1.495869064E1
1.361374214E1,6.420144081E0,-5.271293640E1,5.239778519E0
1.366374214E1,-1.801908970E0,-1.073313332E1,-7.300297260E0
1.371374214E1,-2.757622242E0,1.177732468E1,-8.035283089E0
1.376374214E1,-7.186062813E0,9.102027893E0,-1.023995399E1
1.381374214E1,-6.535330772E0,1.299205875E1,-1.001749706E1
1.386374214E1,-6.900830269E0,1.110221291E1,-4.743170261E0
1.391374214E1,8.383800507E0,-1.203932190E1,1.290378475E1
1.396374214E1,-6.548523903E0,1.039897823E1,-9.087940216E0
1.401374214E1,-9.727794647E0,-2.170267868E1,-1.691784668E1
1.406374214E1,4.816245556E0,-2.482194138E1,-1.684043646E0
1.411374214E1,2.442825317E1,-2.578501892E1,-9.840154648E0
1.416374214E1,9.769244194E0,-1.117032051E0,-3.105531693E0
1.421374214E1,-4.614086151E0,9.716901779E0,1.229536247E1
1.426374214E1,7.692854404E0,9.629858017E0,9.103910446E0
1.431374214E1,1.009539723E0,1.089122772E1,1.183883429E0
1.436374214E1,-2.329249382E0,8.322225571E0,7.513815880E0
1.441374214E1,7.672814369E0,-2.536444664E0,2.173513889E0
1.446374214E1,1.212701607E1,-4.091989517E1,-3.752352953E0
1.451374214E1,1.296564579E0,-2.593099594E1,-2.861020565E0
1.456374214E1,-2.005450726E0,6.613680840E0,-6.310951710E0
1.461374214E1,-4.462360859E0,1.057045746E1,-9.531382561E0
1.466374214E1,-6.508115292E0,1.031409550E1,-1.384813690E1
1.471374214E1,-5.977483749E0,1.192917156E1,-1.365578079E1
1.476374214E1,3.249009609E0,4.277490616E0,5.368762207E1
1.481374214E1,-1.021008205E1,1.315009117E0,-2.581196976E1
1.486374214E1,-9.404396057E0,-5.695056915E-2,-1.078473663E1
1.491374214E1,1.630616188E-1,-2.781093597E1,-6.798708439E0
1.496374214E1,2.793222618E1,-3.169138527E1,-1.331182671E1
1.501374214E1,1.634370422E1,-6.388740540E-1,1.161648846E1
1.506374214E1,-4.252972603E0,8.307808876E0,7.245751381E0
1.511374214E1,7.864343166E0,1.291758156E1,1.236197090E1
1.516374214E1,3.839577913E0,8.603281975E0,1.466963291E0
1.521374214E1,-2.482412815E0,9.955987930E0,5.876929283E0
1.526374214E1,8.267259598E-1,8.727935791E0,3.558175564E-1
1.531374214E1,1.693715477E1,-1.428648376E1,4.169653416E0
1.536374214E1,5.183414459E0,-6.053252411E1,3.548872471E0
1.541374214E1,-3.358695030E0,-9.951994896E0,-7.250838280E0
1.546374214E1,1.716694832E-1,1.393055630E1,-3.355354071E0
1.551374214E1,-2.421700478E0,1.071890259E1,-1.344986820E1
1.556374214E1,-4.817027092E0,1.502208138E1,-1.521875572E1
1.561374214E1,-7.245549202E0,1.139850426E1,-1.057681847E1
1.566374214E1,-1.825644016E0,-7.432209492E0,3.271552658E1
1.571374214E1,-8.774601936E0,5.157962799E0,-2.328966331E1
1.576374214E1,-9.357722282E0,-2.332306480E1,-1.879161453E1
1.581374214E1,7.232696056E0,-2.547443008E1,-7.521569133E-1
1.586374214E1,3.729343796E1,-3.061621094E1,-1.419760895E1
1.591374214E1,8.434394836E0,-6.462287903E-2,1.455181694E1
1.596374214E1,-3.104320526E0,1.502021313E1,1.469082069E1
1.601374214E1,7.205402374E0,7.162505627E0,2.370803356E0
1.606374214E1,3.055656433E0,1.219384384E1,6.673893929E0
1.611374214E1,-3.066908360E0,1.119039440E1,8.242793083E0
1.616374214E1,2.546451092E0,7.115408897E0,5.554486513E-1
1.621374214E1,2.368435097E1,-2.772703552E1,1.290556335E1
1.626374214E1,5.786226749E0,-4.631680679E1,-1.089967966E0
1.631374214E1,-5.047670364E0,-3.821992874E-2,-5.563364983E0
1.636374214E1,-6.334114075E0,1.211683464E1,-8.625572205E0
1.641374214E1,-6.015151024E0,1.205006790E1,-1.346156311E1
1.646374214E1,-4.819391727E0,1.502484417E1,-9.893608093E0
1.651374214E1,-5.608149529E0,1.012936306E1,-3.589289188E0
1.656374214E1,3.703105927E0,-8.765848160E0,8.433525085E0
1.661374214E1,-7.867683411E0,-1.671538353E-1,-7.849644661E0
1.666374214E1,-7.898600578E0,-3.345635605E1,-9.919227600E0
1.671374214E1,1.085410690E1,-1.717819405E1,-2.493588448E0
1.676374214E1,4.559820175E1,-8.481498718E0,5.338011169E1
1.681374214E1,1.951082706E0,2.690555573E0,6.122457504E0
1.686374214E1,4.011352062E0,1.659719467E1,1.026796150E1
1.691374214E1,5.124592781E0,8.147277832E0,1.849916220E0
1.696374214E1,-4.892010689E-1,1.131914234E1,8.794370651E0
1.701374214E1,-3.264926910E0,8.793551445E0,3.454255104E0
1.706374214E1,9.128715515E0,-4.030438423E0,5.890184641E-2
1.711374214E1,2.026212311E1,-5.187296677E1,5.879713535E0
1.716374214E1,-2.796044827E0,-2.034316826E1,-5.655484676E0
1.721374214E1,-3.374211788E0,9.567794800E0,-2.001230717E0
1.726374214E1,-8.847131729E0,7.150772572E0,-1.151002884E1
1.731374214E1,-6.118756294E0,1.305511093E1,-1.356071472E1
1.736374214E1,-5.750095367E0,1.296465683E1,-1.251882648E1
1.741374214E1,-4.123067856E0,1.064240456E1,-6.360559464E-1
1.746374214E1,-4.134818077E0,1.151232719E-1,-1.974650574E1
1.751374214E1,-8.736950874E0,-1.955939484E1,-1.717283058E1
1.756374214E1,-9.736213684E-1,-2.076276779E1,-1.883472800E0
1.761374214E1,2.792310715E1,-2.453776169E1,-6.987975121E0
1.766374214E1,1.491433430E1,-2.993704796E0,2.043167305E1
1.771374214E1,2.838048935E-1,7.492770195E0,5.834172249E0
1.776374214E1,7.555360317E0,9.563545227E0,9.405605316E0
1.781374214E1,5.286674500E0,1.160453987E1,1.809802055E0
1.786374214E1,-1.629682064E0,1.103604889E1,4.847640991E0
1.791374214E1,-7.393175364E-1,8.676562309E0,8.636317253E-1
1.796374214E1,1.883152771E1,-1.713809586E1,8.820900917E0
1.801374214E1,9.868326187E0,-5.603644180E1,-1.884489179E0
1.806374214E1,-5.114509583E0,-4.175996780E0,-5.043332100E0
1.811374214E1,-6.492820740E0,1.148634720E1,-6.435489178E0
1.816374214E1,-8.285757065E0,1.003345490E1,-1.436583233E1
1.821374214E1,-7.784821510E0,1.533676910E1,-8.723052979E0
1.826374214E1,-9.285335541E0,1.149764633E1,-5.688792229E0
1.831374214E1,3.440164089E0,-9.494045258E0,6.381354809E0
1.836374214E1,-7.522941589E0,7.965067863E0,-1.205457783E1
1.841374214E1,-6.833604336E0,-4.235791016E1,-2.054219055E1
1.846374214E1,1.211908054E1,-2.442945099E1,5.287396908E0
1.851374214E1,4.045608521E1,5.053873062E-1,2.042542648E1
1.856374214E1,-8.187403083E-1,6.026195049E0,8.402307510E0
1.861374214E1,3.861957073E0,1.624856567E1,8.715813637E0
1.866374214E1,6.547429562E0,8.398558617E0,-3.545093536E-2
1.871374214E1,1.857501984E0,1.192495155E1,9.361484528E0
1.876374214E1,-1.172384024E0,1.172914505E1,4.117086411E0
1.881374214E1,9.268606186E0,-8.835172653E-1,-3.323611259E0
1.886374214E1,2.479970551E1,-4.328658295E1,1.377303123E1
1.891374214E1,4.284911156E-1,-3.026232529E1,-8.253207207E-1
1.896374214E1,-8.399348259E-1,7.896965027E0,-4.557356834E0
1.901374214E1,-1.467815161E0,9.373159409E0,-1.310817337E1
1.906374214E1,-6.657046795E0,1.334641075E1,-1.953525162E1
1.911374214E1,-8.610383987E0,1.066185951E1,-1.319813347E1
1.916374214E1,3.556364059E0,3.759301662E0,4.054553986E1
1.921374214E1,-8.130336761E0,4.460072994E0,-1.905804062E1
1.926374214E1,-5.480306625E0,-5.139352322E0,-1.727691078E1
1.931374214E1,5.570217133E0,-2.778596497E1,-1.343667984E1
1.936374214E1,3.558815384E1,-3.774486542E1,-1.749120712E1
1.941374214E1,1.063560486E1,-3.663549423E0,1.580063152E1
1.946374214E1,-2.345917225E0,1.498562908E1,1.698563957E1
1.951374214E1,8.651536942E0,1.161073685E1,5.944826126E0
1.956374214E1,2.524748325E0,1.385790443E1,1.303447914E1
1.961374214E1,-7.038598537E0,7.974421978E0,6.538754463E0
1.966374214E1,1.852199793E0,4.263234138E0,1.392795086E0
1.971374214E1,2.490489006E1,-3.659278107E1,1.636042023E1
1.976374214E1,2.280637741E0,-4.151388550E1,-1.715171814E0
1.981374214E1,-3.543282986E0,-1.594336510E0,-4.678457737E0
1.986374214E1,-5.855736732E0,1.233308029E1,-8.429189682E0
1.991374214E1,-7.494330406E0,1.009979916E1,-1.195023727E1
1.996374214E1,-5.746696472E0,1.513275528E1,-8.596351624E0
2.001374214E1,-5.033454418E0,1.033497238E1,-5.328531265E0
2.006374214E1,-7.710201740E-1,-2.890134811E0,4.626322269E0
2.011374214E1,-8.327466011E0,7.493985653E0,-9.411626816E0
2.016374214E1,-4.901517868E0,-4.283215714E1,-2.479078102E1
2.021374214E1,1.023080921E1,-2.073429108E1,2.699468374E0
2.026374214E1,5.493408966E1,-1.460373116E1,5.335664749E1
2.031374214E1,7.363490105E0,6.288339615E0,-8.067846298E-1
2.036374214E1,1.866394162E0,1.785023880E1,8.095560074E0
2.041374214E1,5.772711277E0,8.954677582E0,2.680456638E0
2.046374214E1,-5.639901757E-1,9.405917168E0,4.643204212E0
2.051374214E1,-3.160889626E0,8.724565506E0,3.535136223E0
2.056374214E1,9.538351059E0,-2.737805367E0,-1.843179226E0
2.061374214E1,1.925575256E1,-5.053883743E1,1.202170753E1
2.066374214E1,-2.144163609E0,-2.065126610E1,-1.685569525E0
2.071374214E1,-1.148284912E0,1.019649410E1,-8.128561974E-1
2.076374214E1,-8.110202789E0,5.654915810E0,-1.466966629E1
2.081374214E1,-6.361480713E0,1.280963135E1,-1.278599167E1
2.086374214E1,-8.626693726E0,1.411690998E1,-1.011271763E1
2.091374214E1,-1.625524998E0,3.065748215E-1,2.023818398E1
2.096374214E1,-7.149268150E0,5.906880856E0,-1.875692749E1
2.101374214E1,-1.021795845E1,-1.729629135E1,-1.750791550E1
2.106374214E1,8.906948090E0,-2.789375305E1,-4.650364399E0
2.111374214E1,4.274124146E1,-3.762501526E1,-1.765617561E1
2.116374214E1,6.219944954E0,1.083802223E0,1.133781910E1
2.121374214E1,1.850291610E0,1.964992523E1,1.180724716E1
2.126374214E1,6.564004898E0,6.296904087E0,2.454073906E0
2.131374214E1,2.164971352E0,1.290022659E1,1.314484787E1
2.136374214E1,-5.025835991E0,9.482266426E0,7.077619553E0
2.141374214E1,3.992201567E0,3.933279037E0,8.657938242E-1
2.146374214E1,2.779132271E1,-3.642862701E1,1.641015434E1
2.151374214E1,-3.183989525E-1,-3.541149521E1,-5.710477829E0
2.156374214E1,-2.972106695E0,5.572172165E0,-2.423832893E0
2.161374214E1,-5.383674145E0,9.764924049E0,-9.808960915E0
2.166374214E1,-6.007956505E0,1.114240456E1,-2.132193756E1
2.171374214E1,-7.005131721E0,1.292439556E1,-1.212452698E1
2.176374214E1,-7.032736301E0,9.658729553E0,-2.358458042E0
2.181374214E1,-2.856325626E0,-4.511402130E0,-1.138407516E1
2.186374214E1,-1.020699310E1,-3.200769424E0,-1.253231621E1
2.191374214E1,-2.568516254E0,-2.636217690E1,-9.276313782E0
2.196374214E1,2.504724312E1,-3.615943146E1,-5.348882198E0
2.201374214E1,1.565695000E1,-6.437361717E0,1.590970993E1
2.206374214E1,-1.614531040E0,7.993364334E0,1.128235340E1
2.211374214E1,9.021308899E0,9.284137726E0,6.385041237E0
2.216374214E1,1.535485506E0,9.086692810E0,3.732230663E-1
2.221374214E1,-1.023749352E0,1.265189457E1,8.213411331E0
2.226374214E1,2.486079931E-1,9.123617172E0,1.473500013E0
2.231374214E1,1.855292702E1,-1.999327469E1,1.046021557E1
2.236374214E1,1.339059925E1,-5.684276199E1,-1.092111206E1
2.241374214E1,-4.778871536E0,-6.722505569E0,-4.795857430E0
2.246374214E1,-5.077505589E0,1.136778831E1,-6.763347626E0
2.251374214E1,-5.251998901E0,9.496463776E0,-1.658259583E1
2.256374214E1,-6.312476158E0,1.560649014E1,-1.574106407E1
2.261374214E1,-7.435689926E0,1.243614578E1,6.248277664E0
2.266374214E1,1.247757435E0,-1.142897224E1,7.572344303E0
2.271374214E1,-8.501181602E0,9.413669586E0,-1.026772308E1
2.276374214E1,-8.424382210E0,-3.523680496E1,-2.479820061E1
2.281374214E1,1.198587894E1,-2.639487267E1,-4.981012344E0
2.286374214E1,4.069541931E1,-2.802424431E0,5.039495850E1
2.291374214E1,-1.292135239E0,5.945397377E0,9.068217278E-1
2.296374214E1,5.177912235E0,1.821569443E1,1.096800995E1
2.301374214E1,4.368406773E0,7.935522079E0,-2.763574123E-1
2.306374214E1,-7.098540664E-1,1.069941807E1,6.664458275E0
2.311374214E1,-1.440356493E0,9.431038857E0,1.692136884E0
2.316374214E1,1.566553879E1,-9.530325890E0,3.780353546E0
2.321374214E1,1.680794716E1,-5.736407089E1,-1.829455733E0
2.326374214E1,-4.217376709E0,-1.861785507E1,-5.455327511E0
2.331374214E1,-3.198717594E0,1.170162964E1,-3.946727037E0
2.336374214E1,-3.467655659E0,9.272770882E0,-1.456766891E1
2.341374214E1,-3.860062122E0,1.498756218E1,-2.036585045E1
2.346374214E1,-6.441627979E0,1.146437359E1,-1.397773075E1
2.351374214E1,-1.677515984E0,-6.755688667E0,3.036593246E1
2.356374214E1,-4.953529835E0,8.369169235E0,-2.200987625E1
2.361374214E1,-8.173781395E0,-3.145372772E1,-2.233462524E1
2.366374214E1,4.029203892E0,-2.202244568E1,2.290982723E0
2.371374214E1,4.327128983E1,-3.635594559E1,-1.973346233E0
2.376374214E1,1.979524970E0,5.746927261E-1,1.909317589E1
2.381374214E1,-6.152390957E0,1.592205906E1,1.531235123E1
2.386374214E1,6.301123142E0,5.054138660E0,1.531683445E0
2.391374214E1,6.564709663E0,1.421691418E1,1.543730450E1
2.396374214E1,-3.916042089E0,1.079339123E1,5.833949566E0
2.401374214E1,4.138585567E0,4.469859123E0,9.192401171E-1
2.406374214E1,2.633762932E1,-3.829022980E1,1.985783958E1
2.411374214E1,7.086858749E0,-3.736188889E1,-3.643573999E0
2.416374214E1,-4.326301098E0,4.574180603E0,-3.627410650E0
2.421374214E1,-5.817672253E0,9.300356865E0,-1.426324463E1
2.426374214E1,-5.089855194E0,1.544710350E1,-2.114940834E1
2.431374214E1,-1.088465023E1,1.398221397E1,-1.503082275E1
2.436374214E1,-2.207901716E0,3.475322247E0,2.676058197E1
2.441374214E1,1.297780991E0,-4.650017262E0,-2.334047794E0
2.446374214E1,-6.818955421E0,9.257440567E-1,-7.584871292E0
2.451374214E1,-2.268132448E0,-2.937402153E1,-1.036469936E1
2.456374214E1,2.920817566E1,-2.959477234E1,-8.682325363E0
2.461374214E1,2.091126633E1,-3.448419571E-1,8.354487419E0
2.466374214E1,-3.382583380E0,1.299520874E1,1.386607170E1
2.471374214E1,8.383743286E0,8.980916977E0,4.016667843E0
2.476374214E1,7.811990738E0,1.558575821E1,1.930823708E1
2.481374214E1,-7.108628750E0,7.659299850E0,5.050554276E0
2.486374214E1,3.268738985E-1,6.815892220E0,1.937361956E0
2.491374214E1,2.351631546E1,-2.461701584E1,1.192699051E1
2.496374214E1,1.041515350E1,-4.269805145E1,-3.835925579E0
2.501374214E1,-4.200254440E0,-4.568669796E0,-3.704223156E0
2.506374214E1,-4.123459816E0,1.020753479E1,-9.267356873E0
2.511374214E1,-7.108311653E0,8.648992538E0,-1.527976418E1
2.516374214E1,-7.123842716E0,1.321255779E1,-1.462708282E1
2.521374214E1,-8.168860435E0,1.363981724E1,-1.714405775E0
2.526374214E1,-1.569317102E0,-8.878082275E0,7.735445023E0
2.531374214E1,-6.336927414E0,6.255312443E0,-1.258565903E1
2.536374214E1,-6.652413845E0,-3.362979126E1,-1.861017609E1
2.541374214E1,2.215452003E1,-3.097229004E1,-1.260466862E1
2.546374214E1,2.897961617E1,-1.341076851E0,3.347833252E1
2.551374214E1,-4.318526089E-1,8.941520691E0,5.511316299E0
2.556374214E1,8.734837532E0,1.215147972E1,5.922642708E0
2.561374214E1,3.027037144E0,1.173040295E1,1.194938302E0
2.566374214E1,-2.590305090E0,1.105447769E1,6.866966724E0
2.571374214E1,1.928687930E0,8.515444756E0,7.497962564E-2
2.576374214E1,1.729922104E1,-1.536899281E1,7.758411407E0
2.581374214E1,1.491525841E1,-5.763220978E1,-7.978678703E0
2.586374214E1,-2.920909882E0,-3.638979435E0,-2.074555635E0
2.591374214E1,-6.661481380E0,8.899415970E0,-8.886379242E0
2.596374214E1,-7.567541122E0,9.782097816E0,-1.432772446E1
2.601374214E1,-7.111995697E0,1.472286415E1,-1.620737076E1
2.606374214E1,-7.069747925E0,1.266938782E1,8.152246475E0
2.611374214E1,8.701245785E-1,-1.388482666E1,3.796787739E0
2.616374214E1,-4.361196995E0,-1.729814053E0,-1.349549866E1
2.621374214E1,-1.012535095E-1,-2.569229507E1,-1.392306042E1
2.626374214E1,3.008554268E1,-3.553708649E1,-1.823247147E1
2.631374214E1,1.227098465E1,-4.051697731E0,7.882273674E0
2.636374214E1,-2.341351271E0,1.630252838E1,1.917157745E1
2.641374214E1,1.039382648E1,6.921797752E0,3.565127134E0
2.646374214E1,4.995937824E0,1.404246330E1,1.531715393E1
2.651374214E1,-5.462480068E0,9.497550964E0,4.645283699E0
2.656374214E1,1.004586101E0,7.258478642E0,6.956297755E-1
2.661374214E1,2.882705498E1,-3.876154709E1,1.698260880E1
2.666374214E1,5.411126614E0,-4.338745880E1,-3.783514500E-1
2.671374214E1,-3.709132671E0,1.764387608E0,-7.546364784E0
2.676374214E1,-5.179725647E0,1.086909294E1,-1.533508492E1
2.681374214E1,-8.052308083E0,1.635466194E1,-2.019158554E1
2.686374214E1,-9.972809792E0,1.173124886E1,-1.657900429E1
2.691374214E1,1.481244087E0,3.735080719E0,3.702715683E1
2.696374214E1,-1.375414848E0,-4.281997681E-1,-1.554298782E1
2.701374214E1,-6.485277653E0,9.579010010E-1,-8.005510330E0
2.706374214E1,5.171424866E0,-3.530208588E1,-1.046995449E1
2.711374214E1,3.686024094E1,-3.512418365E1,-1.322752762E1
2.716374214E1,8.988563538E0,-5.070934296E-1,1.409682465E1
2.721374214E1,-2.897993922E-1,1.748439789E1,1.106459713E1
2.726374214E1,7.807909489E0,6.113579750E0,1.238159657E0
2.731374214E1,7.472079754E0,1.354879761E1,1.741631699E1
2.736374214E1,-4.623713493E0,1.006430817E1,5.366213799E0
2.741374214E1,2.332680941E0,8.335435867E0,5.990444422E-1
2.746374214E1,2.027996826E1,-2.304049492E1,1.335195160E1
2.751374214E1,3.766623497E0,-5.324156189E1,-1.656993628E0
2.756374214E1,-3.926972151E0,-5.745109558E0,-4.359453201E0
2.761374214E1,-1.970449448E0,1.123066902E1,-3.284102678E0
2.766374214E1,-1.051648140E1,7.863103867E0,-1.135917091E1
2.771374214E1,-7.738092422E0,1.308999729E1,-1.286293602E1
2.776374214E1,-9.271215439E0,1.412415886E1,-8.050492287E0
2.781374214E1,1.967678070E0,-1.221409321E1,1.080502033E0
2.786374214E1,-9.950317383E0,2.157600403E0,-1.297973728E1
2.791374214E1,-5.494723320E0,-3.400523376E1,-1.413031197E1
2.796374214E1,1.604897690E1,-2.171535492E1,2.395892620E0
2.801374214E1,4.698145676E1,-7.132497787E0,8.153350830E1
2.806374214E1,1.687534332E0,6.554153919E0,-3.462095499E0
2.811374214E1,1.040147495E1,1.181810188E1,3.989315033E0
2.816374214E1,5.026292324E0,1.161575127E1,3.340263367E-1
2.821374214E1,-2.561645031E0,1.084955978E1,6.387270451E0
2.826374214E1,-2.135180950E0,9.127811432E0,1.470571637E0
2.831374214E1,1.397349358E1,-9.996401787E0,3.353415728E-1
2.836374214E1,2.224717140E1,-6.986009216E1,-1.156420469E0
2.841374214E1,-7.557682514E0,-9.135625839E0,-9.409425735E0
2.846374214E1,-6.973578453E0,1.050824165E1,-7.751986504E0
2.851374214E1,-6.622625351E0,1.021282959E1,-1.483214378E1
2.856374214E1,-7.936045647E0,1.564713573E1,-1.347761822E1
2.861374214E1,-7.968937397E0,1.148280144E1,-7.222744942E0
2.866374214E1,4.555335045E0,-1.218239784E1,3.571762466E1
2.871374214E1,-8.446392059E0,6.658985138E0,-9.900856018E0
2.876374214E1,-9.286140442E0,-3.775728607E1,-2.073947716E1
2.881374214E1,1.062619781E1,-2.638714600E1,8.143886924E-1
2.886374214E1,5.023744583E1,-2.015943146E1,7.583180237E1
2.891374214E1,2.957799435E-1,1.565323830E0,-4.816238880E-1
2.896374214E1,6.171395779E0,1.837375641E1,8.132590294E0
2.901374214E1,7.398193359E0,7.160395622E0,-9.042589664E-1
2.906374214E1,1.670481682E0,9.865495682E0,7.382240295E0
2.911374214E1,-2.770626068E0,1.098396111E1,3.033377171E0
2.916374214E1,1.086576366E1,-6.229693413E0,2.258921862E-1
2.921374214E1,2.481435585E1,-5.517329407E1,7.118585587E0
2.926374214E1,-4.622272968E0,-2.180478096E1,-9.741800308E0
2.931374214E1,-4.221529961E0,9.683887482E0,-4.449884892E0
2.936374214E1,-6.833359718E0,7.192990303E0,-1.405222702E1
2.941374214E1,-5.775021553E0,1.625929642E1,-1.829375076E1
2.946374214E1,-7.626596451E0,1.290399933E1,-1.225934505E1
2.951374214E1,-3.929159641E-1,-4.149693966E0,3.468428040E1
2.956374214E1,-6.604237556E0,6.622128487E0,-1.953225517E1
2.961374214E1,-7.491213322E0,-2.962134171E1,-2.149475861E1
2.966374214E1,1.058428383E1,-2.853752899E1,-3.614835262E0
2.971374214E1,4.486022186E1,-3.138241577E1,1.755572128E1
2.976374214E1,-3.606855869E-3,1.017043114E0,-1.909158945E0
2.981374214E1,5.578958988E0,1.938836288E1,7.507961750E0
2.986374214E1,8.333738327E0,6.605306149E0,1.737301707E0
2.991374214E1,1.905169845E0,1.174987411E1,6.824496746E0
2.996374214E1,-5.729574203E0,7.777839661E0,4.610774994E0
3.001374214E1,8.779201508E0,-6.042500496E0,3.162439823E0
3.006374214E1,2.315178299E1,-5.675408936E1,1.679396868E0
3.011374214E1,-4.603537083E0,-2.000531960E1,-6.867359161E0
3.016374214E1,-2.002986908E0,1.041309357E1,-5.582302570E0
3.021374214E1,-4.821772099E0,9.310961723E0,-1.727864075E1
3.026374214E1,-8.174131393E0,1.373945236E1,-1.857326889E1
3.031374214E1,-9.055299759E0,1.142653465E1,-1.170576191E1
3.036374214E1,-2.851405144E-1,-1.080223560E0,2.821004105E1
3.041374214E1,-5.367463589E0,4.139116764E0,-1.228971004E1
3.046374214E1,-8.473856926E0,-2.861751938E1,-1.645931244E1
3.051374214E1,1.044199276E1,-2.368825150E1,-6.509953499E0
3.056374214E1,4.139150620E1,-3.058640289E1,-4.841629028E0
3.061374214E1,1.385783672E0,2.667322159E-1,4.858711243E0
3.066374214E1,8.125871658E0,1.754985046E1,4.764811516E0
3.071374214E1,8.062364578E0,6.672806263E0,1.612245679E0
3.076374214E1,2.756266117E0,1.204492569E1,8.608843803E0
3.081374214E1,-5.730953217E0,8.470650673E0,2.747659445E0
3.086374214E1,6.315267563E0,-3.993398666E0,3.081560850E0
3.091374214E1,2.704523277E1,-5.100855637E1,4.723329544E0
3.096374214E1,-2.577257633E0,-2.456898117E1,-6.443434715E0
3.101374214E1,-2.795080662E0,8.520168304E0,-8.052218437E0
3.106374214E1,-5.911326408E0,9.398538589E0,-1.655408859E1
3.111374214E1,-9.974399567E0,1.846297264E1,-1.227313232E1
3.116374214E1,-9.005835533E0,1.307243729E1,-1.326355934E1
3.121374214E1,-4.301033497E0,-1.000090122E0,1.799725914E1
3.126374214E1,-5.293183804E0,5.339700699E0,-1.337455750E1
3.131374214E1,-7.294024944E0,-9.722527504E0,-1.528171730E1
3.136374214E1,5.878967762E0,-3.032193756E1,-4.762028694E0
3.141374214E1,3.884764862E1,-3.355538559E1,-1.468378830E1
3.146374214E1,1.111988640E1,1.479470253E0,1.038925552E1
3.151374214E1,1.112352908E-1,1.681284523E1,1.273732758E1
3.156374214E1,9.653395653E0,7.272287846E0,2.837773323E0
3.161374214E1,4.828310966E0,1.246837807E1,1.271033764E1
3.166374214E1,-4.314080238E0,7.535379410E0,2.750066757E0
3.171374214E1,5.024169922E0,-2.151986122E0,-1.462890625E0
3.176374214E1,2.254403877E1,-4.503633499E1,1.493225193E1
3.181374214E1,-1.541642666E0,-2.346589279E1,-7.082642555E0
3.186374214E1,-2.269208908E0,1.150082207E1,-3.354786396E0
3.191374214E1,-5.818825245E0,8.958820343E0,-1.219680119E1
3.196374214E1,-6.514098644E0,1.608939552E1,-1.921629715E1
3.201374214E1,-9.691150665E0,1.423810577E1,-1.405701828E1
3.206374214E1,6.455326080E-1,-3.881757259E0,2.883196831E1
3.211374214E1,-1.006992531E1,7.765043736E0,-1.242005825E1
3.216374214E1,-1.239142418E1,-3.022474289E1,-1.645887184E1
3.221374214E1,8.273706436E0,-2.502991486E1,-4.150260687E-1
3.226374214E1,4.723804474E1,-2.464347458E1,-1.393794155E1
3.231374214E1,4.423216820E0,4.193107605E0,1.575128174E1
3.236374214E1,-1.901613474E-1,1.497027493E1,1.463593960E1
3.241374214E1,7.122771263E0,5.205236435E0,2.432091951E0
3.246374214E1,3.548389673E-1,1.054339409E1,8.973736763E0
3.251374214E1,-5.979006290E0,8.167072296E0,3.327973843E0
3.256374214E1,6.442960739E0,-2.296635628E0,-1.468199253E0
3.261374214E1,2.910005569E1,-4.477243423E1,2.117905045E1
3.266374214E1,2.905567646E0,-2.497091484E1,-2.756229401E0
3.271374214E1,-3.020513535E0,8.672376633E0,-2.690207958E0
3.276374214E1,-7.748280525E0,7.911977768E0,-1.532181835E1
3.281374214E1,-7.166002274E0,1.504104900E1,-1.970201492E1
3.286374214E1,-9.271585464E0,1.510010910E1,-1.047592449E1
3.291374214E1,-2.402995586E0,-3.748529434E0,2.794227409E1
3.296374214E1,-7.717858315E0,5.288991928E0,-1.984985542E1
3.301374214E1,-1.003575516E1,-2.077363968E1,-1.437587357E1
3.306374214E1,8.856672287E0,-2.987619019E1,-5.037501812E0
3.311374214E1,4.191015244E1,-3.153763771E1,-1.806249237E1
3.316374214E1,6.466724873E0,3.761556149E0,2.576592207E0
3.321374214E1,4.437769413E0,1.905653954E1,1.157897663E1
3.326374214E1,8.300070763E0,7.532683372E0,2.096246243E0
3.331374214E1,4.259461761E-1,1.049272728E1,5.998817921E0
3.336374214E1,-3.150355101E0,8.328351974E0,3.198957682E0
3.341374214E1,9.133401871E0,-6.073473930E0,-4.733573198E-1
3.346374214E1,1.758851051E1,-5.815731812E1,-4.448906422E0
3.351374214E1,-4.701548100E0,-1.834622192E1,-8.634832382E0
3.356374214E1,-1.568770409E0,1.118959808E1,-3.122015953E0
3.361374214E1,-5.612854004E0,9.180173874E0,-1.738462639E1
3.366374214E1,-6.194151402E0,1.568819237E1,-1.748271179E1
3.371374214E1,-9.123844147E0,1.328787327E1,-1.223101044E1
3.376374214E1,-1.423747301E0,-1.579531288E1,3.005932236E1
3.381374214E1,-9.811256409E0,8.151586533E0,-1.524092293E1
3.386374214E1,-6.003369331E0,-2.293810272E1,-2.207049561E1
3.391374214E1,2.232739449E1,-3.406999207E1,-4.320925236E0
3.396374214E1,3.223773956E1,-2.210763931E1,8.219003296E1
3.401374214E1,-3.691647530E0,1.703252792E-1,5.762789249E-1
3.406374214E1,1.042131519E1,1.669631577E1,1.279927635E1
3.411374214E1,5.430749416E0,9.769023895E0,1.380988836E0
3.416374214E1,-1.890037179E0,1.076292706E1,8.210521698E0
3.421374214E1,1.103229523E-1,4.156649113E0,2.733283520E0
3.426374214E1,2.182630539E1,-2.649736786E1,1.134117508E1
3.431374214E1,7.639993191E0,-4.892870712E1,-4.865957260E0
3.436374214E1,-5.206663132E0,-3.022426128E0,-4.696681499E0
3.441374214E1,-1.222648621E0,1.287483311E1,-8.204013824E0
3.446374214E1,-3.748083591E0,1.084946918E1,-1.791477203E1
3.451374214E1,-7.716312408E0,1.382205200E1,-1.191703224E1
3.456374214E1,-7.229361534E0,1.078065872E1,6.145124435E-1
3.461374214E1,-5.709037781E-1,-9.458041191E0,1.001037788E1
3.466374214E1,-6.862160683E0,6.986019611E0,-8.935115814E0
3.471374214E1,-4.140311241E0,-3.330463028E1,-2.256723022E1
3.476374214E1,1.924419785E1,-2.972372055E1,-2.523808241E0
3.481374214E1,3.222363281E1,-3.640575409E0,7.979858398E1
3.486374214E1,-2.005084515E0,7.472470760E0,1.155153561E1
3.491374214E1,1.144382572E1,1.127590752E1,1.044882393E1
3.496374214E1,3.529921055E0,1.069649410E1,2.736762047E0
3.501374214E1,-3.723796844E0,9.626063347E0,5.989441872E0
3.506374214E1,1.150642633E-1,7.235164642E0,8.298963904E-1
3.511374214E1,2.207628441E1,-3.129057693E1,1.750753593E1
3.516374214E1,6.722818375E0,-4.545884323E1,1.467925072E0
3.521374214E1,-5.811522007E0,-2.116454124E0,-1.074319839E1
3.526374214E1,-1.138401270E0,1.424898911E1,-8.245729446E0
3.531374214E1,-4.898657322E0,1.198403645E1,-2.014688492E1
3.536374214E1,-8.725585938E0,1.163150978E1,-1.067943859E1
3.541374214E1,4.227354527E0,4.799110889E0,6.206089783E1
3.546374214E1,-5.224473476E0,3.825057983E0,-1.392075157E1
3.551374214E1,-8.019900322E0,1.258587360E0,-8.997186661E0
3.556374214E1,8.376998901E-1,-3.567028427E1,-1.184851265E1
3.561374214E1,2.624537086E1,-2.496014023E1,-7.870141983E0
3.566374214E1,3.308175659E1,4.038509369E0,3.365821075E1
3.571374214E1,-1.060736418E0,1.148999596E1,7.467635155E0
3.576374214E1,8.241518974E0,1.085419559E1,8.331439972E0
3.581374214E1,7.317694664E0,1.163616276E1,4.919577599E0
3.586374214E1,-2.063462734E0,1.138144398E1,9.211853027E0
3.591374214E1,1.042431355E0,6.312906742E0,1.477353334E0
3.596374214E1,1.837035370E1,-1.818654633E1,3.978823185E0
3.601374214E1,8.373864174E0,-5.542675400E1,-6.030659676E0
3.606374214E1,-7.668319225E0,-7.116090775E0,-7.305392742E0
3.611374214E1,-4.303413391E0,1.224737835E1,-5.410499096E0
3.616374214E1,-8.831420898E0,8.494935989E0,-1.422867870E1
3.621374214E1,-9.710641861E0,1.329891491E1,-9.718770981E0
3.626374214E1,-7.349817276E0,1.437062263E1,2.113956451E1
3.631374214E1,-4.062665462E0,-1.708446980E0,-1.432434845E1
3.636374214E1,-9.424801826E0,2.500121593E0,-6.478860378E0
3.641374214E1,-2.653070688E0,-4.175048447E1,-1.270304298E1
3.646374214E1,2.391851616E1,-2.561726379E1,-5.233080387E0
3.651374214E1,2.622589874E1,3.468623638E0,3.983113861E1
3.656374214E1,-3.199449539E0,8.797125816E0,1.111267376E1
3.661374214E1,1.089282799E1,7.292939186E0,9.561704636E0
3.666374214E1,5.456718922E0,1.149615669E1,3.319469690E0
3.671374214E1,-2.536685944E0,1.148808002E1,8.829584122E0
3.676374214E1,2.590372562E0,6.125888824E0,1.361196756E0
3.681374214E1,2.058618355E1,-2.528214264E1,1.053734016E1
3.686374214E1,6.716269016E0,-4.212803650E1,2.672672272E-1
3.691374214E1,-5.117323875E0,2.286435127E0,-8.060108185E0
3.696374214E1,-3.368916750E0,1.234920692E1,-5.419788837E0
3.701374214E1,-8.912368774E0,1.023066902E1,-1.460893250E1
3.706374214E1,-7.973226070E0,1.266437817E1,-8.099271774E0
3.711374214E1,2.177370548E0,7.516760826E0,4.014239502E1
3.716374214E1,-4.426012039E0,3.094882488E0,-1.141609383E1
3.721374214E1,-8.277569771E0,-1.986551285E-2,-5.985643387E0
3.726374214E1,2.483129501E-2,-3.682140350E1,-1.168491745E1
3.731374214E1,2.284717560E1,-2.573680496E1,-5.875015259E0
3.736374214E1,1.340925407E1,-7.961435318E-1,4.837198734E0
3.741374214E1,-6.552757740E0,8.855896950E0,1.316944027E1
3.746374214E1,1.409054089E1,8.879276276E0,1.371375561E1
3.751374214E1,1.149666786E0,7.659185886E0,7.572047710E-1
3.756374214E1,-4.428016663E0,1.068029022E1,1.097814274E1
3.761374214E1,1.219439507E-1,8.684570312E0,1.378314972E0
3.766374214E1,2.308644485E1,-3.316885757E1,2.055423164E1
3.771374214E1,2.518385887E0,-5.021173096E1,-3.833680630E0
3.776374214E1,-4.272511482E0,-5.463749409E0,-1.048598099E1
3.781374214E1,4.342255592E-1,1.297579956E1,-1.115662861E1
3.786374214E1,-4.809465408E0,1.420153618E1,-2.001533127E1
3.791374214E1,-7.412135124E0,1.343023300E1,-1.505496788E1
3.796374214E1,-1.799609780E0,9.081336975E0,2.540209961E1
3.801374214E1,-5.507878304E0,-9.268448830E0,1.297691250E1
3.806374214E1,-1.097386837E1,3.889796734E0,-7.935911179E0
3.811374214E1,-2.584029436E0,-3.208690262E1,-1.439672184E1
3.816374214E1,3.053112030E1,-3.269321823E1,-1.040043449E1
3.821374214E1,2.811148834E1,2.282810211E0,5.033058548E1
3.826374214E1,-5.227089882E0,9.192984581E0,2.876446009E0
3.831374214E1,1.110596848E1,1.596423912E1,1.255218124E1
3.836374214E1,7.394861221E0,1.027294731E1,2.976515293E0
3.841374214E1,-3.807423592E0,8.751553535E0,7.175806046E0
3.846374214E1,-2.354311943E0,5.332929611E0,3.357695818E0
3.851374214E1,1.713053322E1,-1.703683662E1,-1.112461090E0
3.856374214E1,1.041181564E1,-4.555526352E1,-7.476693153E0
3.861374214E1,-5.548529625E0,-1.385378647E1,-9.114887238E0
3.866374214E1,-3.884458780E0,1.148191452E1,-3.873939037E0
3.871374214E1,-7.887834549E0,8.391300201E0,-1.575775528E1
3.876374214E1,-9.651290894E0,1.163648319E1,-8.035179138E0
3.881374214E1,-6.268002987E0,1.262373066E1,-5.365301132E0
3.886374214E1,7.227063179E-1,-6.063088417E0,5.800930023E0
3.891374214E1,-8.090950966E0,3.558499098E0,-3.756441832E0
3.896374214E1,-6.019455910E0,-3.052468491E1,-2.145060539E1
3.901374214E1,1.611547852E1,-2.474389267E1,1.137983799E0
3.906374214E1,3.984344864E1,-1.397667122E1,8.003569794E1
3.911374214E1,4.995248318E-1,1.873981476E0,5.872426510E0
3.916374214E1,9.205064774E0,1.449629402E1,1.557776260E1
3.921374214E1,5.453695774E0,6.239426613E0,3.081406116E0
3.926374214E1,-1.176935077E0,1.052692795E1,7.060165405E0
3.931374214E1,-6.080607772E-1,8.995100975E0,1.149148822E0
3.936374214E1,1.303314781E1,-1.498382759E1,8.414008141E0
3.941374214E1,1.485331631E1,-6.017742538E1,-2.575079203E0
3.946374214E1,-4.923280716E0,-6.017607689E0,-9.383173943E0
3.951374214E1,-2.855260372E0,1.332907104E1,-6.487402916E0
3.956374214E1,-8.791063309E0,7.389674187E0,-1.452741623E1
3.961374214E1,-8.458574295E0,1.497975731E1,-1.135367870E1
3.966374214E1,-7.873950481E0,1.177748871E1,7.114681244E0
3.971374214E1,-4.958930016E-1,-3.685656071E0,-4.609472275E0
3.976374214E1,-6.440901756E0,3.655588627E0,-8.160084724E0
3.981374214E1,-3.855885506E0,-3.470101929E1,-1.752129555E1
3.986374214E1,2.165021896E1,-3.172816467E1,1.704591155E0
3.991374214E1,2.406729126E1,1.250330925E0,1.357433033E1
3.996374214E1,-6.470771790E0,8.154401779E0,9.772882462E0
4.001374214E1,1.207501888E1,1.339196777E1,1.637878990E1
4.006374214E1,4.834089756E0,9.167078972E0,8.235621452E-2
4.011374214E1,-2.453261375E0,1.017427158E1,1.094813061E1
4.016374214E1,9.696999788E-1,5.922429562E0,2.913271904E0
4.021374214E1,2.378390503E1,-3.136305237E1,1.491613579E1
4.026374214E1,8.133426666E0,-4.786248016E1,-2.162156820E0
4.031374214E1,-5.845384121E0,-3.612032890E0,-9.418451309E0
4.036374214E1,-2.885340691E0,1.244374466E1,-1.057185745E1
4.041374214E1,-6.969588280E0,1.320395279E1,-2.081250381E1
4.046374214E1,-8.720978737E0,1.334499741E1,-1.434791183E1
4.051374214E1,3.186273575E-2,4.036906719E0,5.739888000E1
4.056374214E1,-6.095070839E0,1.680830002E0,-1.700542450E1
4.061374214E1,-8.217014313E0,-2.971573353E0,-1.098104668E1
4.066374214E1,2.917996407E0,-3.024935532E1,-9.285744667E0
4.071374214E1,3.280501556E1,-3.261493683E1,-2.125196838E1
4.076374214E1,1.446873474E1,-2.254807472E0,1.540015316E1
4.081374214E1,-3.950251818E0,1.441829491E1,1.792795372E1
4.086374214E1,1.231570244E1,4.978654385E0,6.229085922E0
4.091374214E1,5.093380451E0,1.279376984E1,1.022999382E1
4.096374214E1,-6.386357784E0,9.426393509E0,6.984072685E0
4.101374214E1,3.413575172E0,5.938014984E0,4.850610793E-1
4.106374214E1,2.311508942E1,-3.300692749E1,1.541856861E1
4.111374214E1,1.871927261E0,-3.459868622E1,-2.472543240E0
4.116374214E1,-1.482208729E0,7.066365242E0,-7.898067474E0
4.121374214E1,-3.707227707E0,1.002883434E1,-1.270841217E1
4.126374214E1,-8.599600792E0,1.233732033E1,-2.142774773E1
4.131374214E1,-1.217194939E1,1.163000584E1,-1.128100014E1
4.136374214E1,-4.315614700E-1,2.771491051E0,2.986333847E1
4.141374214E1,-4.590635300E0,3.911698341E0,-1.526444340E1
4.146374214E1,-9.986883163E0,-4.616510391E0,-1.284533405E1
4.151374214E1,3.966316700E0,-3.200673294E1,-7.238279819E0
4.156374214E1,3.396513748E1,-3.384490204E1,-1.113316250E1
4.161374214E1,7.306520939E0,-2.975912094E0,5.166376114E0
4.166374214E1,-4.621735096E0,1.442181492E1,1.675874138E1
4.171374214E1,1.149942303E1,5.095476151E0,4.737720966E0
4.176374214E1,4.871814251E0,1.273791122E1,1.532244205E1
4.181374214E1,-5.427511215E0,9.364089966E0,5.815048218E0
4.186374214E1,5.922354221E0,-5.808210373E-1,-7.853347063E-1
4.191374214E1,2.340657425E1,-4.070195770E1,8.117412567E0
4.196374214E1,-2.467298508E-2,-3.077468872E1,-1.761356354E0
4.201374214E1,-2.447819948E0,9.891265869E0,-6.442018509E0
4.206374214E1,-5.900435448E0,1.144789505E1,-1.013901901E1
4.211374214E1,-8.819994926E0,1.364987564E1,-2.047758484E1
4.216374214E1,-1.055827141E1,1.247758865E1,-9.913529396E0
4.221374214E1,-5.520901680E-1,-4.934830666E-1,2.891933632E1
4.226374214E1,-5.377170086E0,4.864282608E0,-1.667144012E1
4.231374214E1,-9.400856018E0,-1.490698814E1,-1.635910606E1
4.236374214E1,4.919507980E0,-2.453481293E1,-7.359932423E0
4.241374214E1,3.103326035E1,-3.514008713E1,-1.583269978E1
4.246374214E1,1.515022755E1,1.936109543E0,4.420735359E0
4.251374214E1,-3.020287991E0,1.989565849E1,2.023052406E1
4.256374214E1,9.044865608E0,5.721663952E0,2.768111706E0
4.261374214E1,2.307307720E-1,9.594488144E0,8.322211266E0
4.266374214E1,-3.871152878E0,6.842217922E0,4.718085289E0
4.271374214E1,1.367545319E1,-1.183711433E1,-8.214213848E-1
4.276374214E1,1.355464172E1,-5.806860352E1,-1.000631046E1
4.281374214E1,-5.960836411E0,-1.047944069E1,-8.602203369E0
4.286374214E1,6.827688217E-2,1.238155937E1,-9.123474121E0
4.291374214E1,-4.055855274E0,1.067103958E1,-2.017494774E1
4.296374214E1,-7.589820862E0,1.214199924E1,-1.230233288E1
4.301374214E1,-6.337172031E0,1.043817329E1,-6.672899246E0
4.306374214E1,-2.194243908E0,-3.560468674E0,2.033171177E0
4.311374214E1,-1.051552773E1,9.924800873E0,-6.178519249E0
4.316374214E1,-1.110319424E1,-2.904826164E1,-2.583284569E1
4.321374214E1,1.419573975E1,-2.942313957E1,2.472312689E0
4.326374214E1,3.640181732E1,-2.289999390E1,1.908359146E1
4.331374214E1,3.256052017E0,3.547964096E0,-5.201160908E-1
4.336374214E1,8.093522072E0,1.943013000E1,1.363073158E1
4.341374214E1,8.402532578E0,6.304806709E0,2.066883087E0
4.346374214E1,8.947980404E-2,1.094665146E1,9.586080551E0
4.351374214E1,-2.015436888E-1,6.906829357E0,1.343330979E0
4.356374214E1,1.992367172E1,-2.556526947E1,1.706630516E1
4.361374214E1,1.266640282E1,-4.611190414E1,-1.000444317E1
4.366374214E1,-7.860309601E0,-1.185017776E1,-9.227964401E0
4.371374214E1,-4.328845501E0,1.092209816E1,-9.306450844E0
4.376374214E1,-8.231785774E0,1.154103470E1,-1.916359329E1
4.381374214E1,-9.736608505E0,1.248952675E1,-9.289131165E0
4.386374214E1,-2.995619774E-1,1.027124786E1,4.603708649E1
4.391374214E1,-2.034318924E0,5.107879639E-3,-8.928674698E0
4.396374214E1,-8.424307823E0,1.650223255E0,-9.530832291E0
4.401374214E1,-5.729375839E0,-3.797002792E1,-1.427461243E1
4.406374214E1,1.894949341E1,-2.556181717E1,-1.308217645E0
4.411374214E1,3.135644722E1,3.085917473E0,4.604944611E1
4.416374214E1,-1.443779111E0,9.709008217E0,3.754494429E0
4.421374214E1,1.126467800E1,8.780717850E0,7.723285675E0
4.426374214E1,5.779639721E0,1.304988861E1,1.112596893E1
4.431374214E1,-5.367018223E0,8.846034050E0,9.238939285E0
4.436374214E1,4.916153908E0,3.741652489E0,6.926798820E-1
4.441374214E1,2.720356750E1,-4.229759979E1,2.021788788E1
4.446374214E1,1.136453629E0,-3.400989914E1,-5.205066204E0
4.451374214E1,-2.764486074E0,7.680631638E0,-1.042484283E1
4.456374214E1,-5.270255089E0,1.171818924E1,-1.305665970E1
4.461374214E1,-9.910669327E0,1.628674698E1,-2.365492630E1
4.466374214E1,-9.395746231E0,1.210326195E1,-1.046244240E1
4.471374214E1,-2.849545002E0,-3.621199608E0,2.014036179E1
4.476374214E1,-4.865497589E0,2.812030315E0,-1.297622871E1
4.481374214E1,-1.124328804E1,-1.506471443E1,-2.096339035E1
4.486374214E1,5.195881367E0,-2.184254837E1,-6.856149673E0
4.491374214E1,3.852126312E1,-3.617771149E1,-2.388500404E1
4.496374214E1,1.593983269E1,-9.597444534E-1,2.405924797E1
4.501374214E1,-5.763484001E0,1.792313004E1,2.129528046E1
4.506374214E1,9.195369720E0,6.912633419E0,4.529378891E0
4.511374214E1,4.033083916E0,1.142782211E1,1.382877922E1
4.516374214E1,-5.069778919E0,5.227741241E0,3.722765923E0
4.521374214E1,1.200018501E1,-8.188570023E0,-1.658713698E0
4.526374214E1,2.076996994E1,-5.746408844E1,3.174015522E0
4.531374214E1,-5.637836933E0,-1.751447678E1,-8.133668900E0
4.536374214E1,-3.587293863E0,1.191009712E1,-6.075063705E0
4.541374214E1,-7.474982262E0,9.955959320E0,-2.365159607E1
4.546374214E1,-1.043241310E1,1.295216370E1,-1.300525093E1
4.551374214E1,-1.126661873E1,1.198986149E1,-6.350879669E0
4.556374214E1,-1.422493458E0,-5.824047089E0,5.615994453E0
4.561374214E1,-9.368609428E0,6.835410595E0,5.641007423E-2
4.566374214E1,-1.009223843E1,-4.002745438E1,-1.623636055E1
4.571374214E1,2.611708450E1,-2.552681351E1,-1.274176121E1
4.576374214E1,3.305205917E1,-2.925779343E0,7.815344238E1
4.581374214E1,-5.389529705E0,6.915396214E0,4.244822502E0
4.586374214E1,1.251128387E1,1.234850216E1,1.009765816E1
4.591374214E1,6.998198509E0,1.465480804E1,2.293545723E1
4.596374214E1,-8.529726982E0,7.808391571E0,5.343364239E0
4.601374214E1,-5.019341707E-1,7.563783646E0,2.416355133E0
4.606374214E1,2.384878731E1,-2.520623207E1,1.043249416E1
4.611374214E1,9.189638138E0,-5.265356827E1,-9.016871452E-1
4.616374214E1,-5.613895893E0,-5.735663891E0,-7.508356571E0
4.621374214E1,-5.531971455E0,1.111488152E1,-1.031183052E1
4.626374214E1,-9.439936638E0,1.191944504E1,-2.166027641E1
4.631374214E1,-1.103314781E1,1.241466904E1,-8.240015984E0
4.636374214E1,4.013428688E-1,9.396595955E-1,4.169975662E1
4.641374214E1,-6.046800613E0,-1.224416733E0,-1.032558823E1
4.646374214E1,-9.697911263E0,-5.785226822E-2,-9.428904533E0
4.651374214E1,-3.269540071E0,-2.658134460E1,-1.284808159E1
4.656374214E1,2.783347511E1,-3.005582237E1,-6.549374580E0
4.661374214E1,3.830399323E1,-3.505479813E0,7.937820435E1
4.666374214E1,-1.602505445E0,1.247864819E1,4.333117485E0
4.671374214E1,9.248401642E0,1.587066841E1,5.651474476E0
4.676374214E1,8.280132294E0,1.260627365E1,1.368852901E1
4.681374214E1,-5.356466293E0,9.661189079E0,6.561386108E0
4.686374214E1,5.574080944E0,5.246748924E0,1.490849733E0
4.691374214E1,2.702849770E1,-4.196285629E1,1.823956680E1
4.696374214E1,5.464200020E0,-3.929897690E1,-3.635886669E0
4.701374214E1,-5.791227341E0,-1.425665379E0,-6.077742577E0
4.706374214E1,-6.066096306E0,1.063020134E1,-1.041503143E1
4.711374214E1,-9.672283173E0,1.391024208E1,-2.025308228E1
4.716374214E1,-1.087215710E1,1.197043514E1,-9.365744591E0
4.721374214E1,5.927224159E-1,4.169144154E0,4.501744843E1
4.726374214E1,-5.698825836E0,1.564757347E0,-1.380320835E1
4.731374214E1,-8.064371109E0,-1.698500633E0,-1.331497383E1
4.736374214E1,-2.545775890E0,-3.296405029E1,-1.129910660E1
4.741374214E1,3.037855148E1,-3.275116730E1,-9.309725761E0
4.746374214E1,2.244296265E1,3.503210068E0,2.399045181E1
4.751374214E1,-2.405932903E0,8.050731659E0,4.639038086E0
4.756374214E1,1.147531223E1,1.073799515E1,1.308372879E1
4.761374214E1,4.619819641E0,1.190084076E1,1.572955847E0
4.766374214E1,-4.846699238E0,1.017389965E1,1.144088364E1
4.771374214E1,5.898302078E0,4.135265827E0,-1.425405741E0
4.776374214E1,2.820120239E1,-3.827328491E1,2.200238419E1
4.781374214E1,4.458738327E0,-4.228711319E1,-4.251434326E0
4.786374214E1,-6.875615597E0,-8.624629974E-1,-7.515732288E0
4.791374214E1,-6.031491756E0,1.179219246E1,-1.110285473E1
4.796374214E1,-1.227853394E1,1.221606827E1,-1.896370125E1
4.801374214E1,-9.903904915E0,1.003914356E1,-6.676820755E0
4.806374214E1,-2.963137865E0,5.001368523E-1,1.207326794E1
4.811374214E1,-6.509938717E0,2.449237823E0,-1.410464954E1
4.816374214E1,-8.601761818E0,-2.184350491E0,-1.245565033E1
4.821374214E1,3.957384109E0,-3.203699875E1,-1.007217216E1
4.826374214E1,2.627518082E1,-2.759128571E1,-9.113716125E0
4.831374214E1,1.632298279E1,-1.533489227E-1,9.696117401E0
4.836374214E1,-2.022022247E0,1.234310246E1,9.133329391E0
4.841374214E1,1.267469883E1,7.362614155E0,8.725337982E0
4.846374214E1,5.788618565E0,1.322491646E1,1.429433155E1
4.851374214E1,-4.709154129E0,9.331813812E0,5.599932671E0
4.856374214E1,7.225853920E0,-1.259282112E0,-5.109170914E0
4.861374214E1,2.781689644E1,-4.513987732E1,1.188175297E1
4.866374214E1,-1.554590702E0,-2.910411453E1,-3.490556240E0
4.871374214E1,-3.737003326E0,1.101020813E1,-6.281945229E0
4.876374214E1,-8.295612335E0,8.570222855E0,-1.170959473E1
4.881374214E1,-1.234305096E1,1.239672089E1,-1.877912903E1
4.886374214E1,-8.930191040E0,1.106216812E1,-7.626330853E0
4.891374214E1,1.852732182E0,-1.115139008E1,4.225720978E1
4.896374214E1,-9.134977341E0,9.315767288E0,-1.020384979E1
4.901374214E1,-1.031787109E1,-3.340586472E1,-2.187546349E1
4.906374214E1,1.746010780E1,-2.623464203E1,-8.746985435E0
4.911374214E1,4.231624985E1,-3.297165680E1,1.752655792E1
4.916374214E1,1.535069942E0,3.236886978E0,-4.025042534E0
4.921374214E1,7.336027622E0,2.031528664E1,1.365842342E1
4.926374214E1,7.955884933E0,6.374293804E0,2.030344963E0
4.931374214E1,4.237917066E-1,1.095998478E1,6.620066643E0
4.936374214E1,2.018800974E-1,8.246232986E0,2.851936102E0
4.941374214E1,1.844012451E1,-1.557125282E1,4.731784821E0
4.946374214E1,1.419063950E1,-4.940930939E1,-1.145015335E1
4.951374214E1,-6.913842201E0,-1.066443825E1,-6.896382332E0
4.956374214E1,-4.590365410E0,1.225224972E1,-9.097662926E0
4.961374214E1,-8.601919174E0,1.051285648E1,-2.133288574E1
4.966374214E1,-1.114585400E1,1.149121475E1,-8.712038994E0
4.971374214E1,5.727238655E-1,9.621009827E-1,4.314420319E1
4.976374214E1,-5.557888031E0,3.734522820E0,-1.423680973E1
4.981374214E1,-1.527611732E1,-7.449907303E0,-1.824258804E1
4.986374214E1,2.987206459E0,-2.682209015E1,-8.874225616E0
4.991374214E1,3.852871704E1,-3.806691742E1,-1.084989452E1
4.996374214E1,1.524665833E1,2.188171387E0,1.502881813E1
5.001374214E1,-2.141865969E0,1.751951218E1,1.946611595E1
5.006374214E1,9.860444069E0,6.381932259E0,2.560941219E0
5.011374214E1,1.988370657E0,1.117107391E1,1.060828876E1
5.016374214E1,-5.072212219E0,8.777912140E0,4.186723709E0
5.021374214E1,1.031852150E1,-3.834102631E0,-5.600543022E0
5.026374214E1,2.671168327E1,-5.384604645E1,8.122440338E0
5.031374214E1,-2.656214714E0,-2.286642647E1,-7.204907417E0
5.036374214E1,-3.187582731E0,1.201236725E1,-8.013003349E0
5.041374214E1,-6.214540482E0,8.618178368E0,-1.557964516E1
5.046374214E1,-1.063274574E1,1.407348061E1,-1.611400795E1
5.051374214E1,-8.412408829E0,1.116918564E1,-5.416773319E0
5.056374214E1,-3.680670738E0,-1.065664291E1,1.692864990E1
5.061374214E1,-1.047782421E1,7.743185043E0,-4.318268776E0
5.066374214E1,-9.459981918E0,-3.007336235E1,-2.506152344E1
5.071374214E1,2.065252304E1,-3.125337219E1,-7.316412926E0
5.076374214E1,5.339562225E1,-2.174973106E1,8.178226471E1
5.081374214E1,-3.682127953E0,4.906682491E0,-8.779747486E-1
5.086374214E1,1.152364349E1,1.933829498E1,1.852359581E1
5.091374214E1,6.721240520E0,6.639725685E0,-4.101872444E-2
5.096374214E1,-2.038532019E0,9.821853638E0,7.295009136E0
5.101374214E1,-1.948599219E0,6.083607674E0,2.703557968E0
5.106374214E1,1.548677254E1,-1.317078972E1,-8.439140916E-1
5.111374214E1,1.557953453E1,-5.100627518E1,-7.878902435E0
5.116374214E1,-7.307186127E0,-1.355612087E1,-9.458902359E0
5.121374214E1,-5.243795395E0,1.190175056E1,-6.651300430E0
5.126374214E1,-1.051662064E1,9.607968330E0,-1.769933701E1
5.131374214E1,-1.147827625E1,1.019141769E1,-8.951603889E0
5.136374214E1,-2.456686258E0,1.355249882E1,3.285562897E1
5.141374214E1,-2.957311392E0,-4.072684288E0,-6.833493233E0
5.146374214E1,-1.009018898E1,1.584921837E0,-2.683188915E0
5.151374214E1,-4.840036392E0,-3.016154480E1,-1.820431328E1
5.156374214E1,3.187952995E1,-2.649754333E1,-6.986076355E0
5.161374214E1,2.242875481E1,-2.554045677E0,4.429202271E1
5.166374214E1,-1.185047507E0,9.174758911E0,1.572047234E0
5.171374214E1,1.014693069E1,1.082174110E1,1.091881371E1
5.176374214E1,6.849337578E0,1.063806057E1,3.078979969E0
5.181374214E1,3.780766129E-1,1.164914227E1,8.951662064E0
5.186374214E1,4.209053040E0,6.928687096E0,1.533731580E0
5.191374214E1,2.686544418E1,-3.208132935E1,1.553280926E1
5.196374214E1,5.549504280E0,-5.090202713E1,-2.486033440E0
5.201374214E1,-5.548420906E0,1.161974907E0,-6.855829716E0
5.206374214E1,-5.258277893E0,1.082896805E1,-1.131987381E1
5.211374214E1,-8.197587967E0,1.254625034E1,-2.436523628E1
5.216374214E1,-1.173206329E1,1.356406784E1,-1.354290771E1
5.221374214E1,2.817630768E-3,-1.880309582E0,2.735989761E1
5.226374214E1,-9.782826424E0,6.210289001E0,-1.643703842E1
5.231374214E1,-7.734369278E0,-4.164819717E-1,-1.269955826E1
5.236374214E1,8.159001350E0,-3.726908112E1,-1.254060745E1
5.241374214E1,4.046483994E1,-3.892249680E1,-1.328550339E1
5.246374214E1,8.088644981E0,2.890801907E0,-1.282430935E1
5.251374214E1,-2.173936367E-2,1.987782288E1,1.748821640E1
5.256374214E1,1.014317799E1,4.299412251E0,3.134959936E0
5.261374214E1,2.421433687E0,1.155920219E1,9.081944466E0
5.266374214E1,-2.376748323E0,1.026336002E1,4.318709850E0
5.271374214E1,1.168198967E1,-5.761249542E0,-1.722398043E0
5.276374214E1,1.807807922E1,-6.120510101E1,-8.503814697E0
5.281374214E1,-5.174787521E0,-1.607894325E1,-6.563040733E0
5.286374214E1,-3.290542841E0,1.213796616E1,-5.083241940E0
5.291374214E1,-5.568120003E0,1.053683853E1,-1.865688515E1
5.296374214E1,-1.205677414E1,1.227039719E1,-1.602361679E1
5.301374214E1,-7.711120605E0,1.042822647E1,-6.495787621E0
5.306374214E1,-3.216374159E0,-5.914002419E0,-4.979510307E-1
5.311374214E1,-7.893240929E0,6.191202164E0,-9.731633186E0
5.316374214E1,-7.306334496E0,-2.816193771E1,-2.642850113E1
5.321374214E1,2.215168762E1,-3.012443733E1,2.469819546E0
5.326374214E1,4.468328094E1,-6.243897438E0,8.171110535E1
5.331374214E1,-1.881618023E0,8.580640793E0,8.833995819E0
5.336374214E1,1.106198311E1,8.897231102E0,6.035154819E0
5.341374214E1,5.232619286E0,1.362645531E1,1.366128635E1
5.346374214E1,-5.679995537E0,9.060745239E0,7.089018822E0
5.351374214E1,4.913154602E0,3.928997040E0,1.460112333E0
5.356374214E1,3.396719742E1,-3.884928131E1,2.216247368E1
5.361374214E1,4.722203255E0,-4.381111526E1,-4.753342152E0
5.366374214E1,-7.422663689E0,1.653938293E0,-6.219019890E0
5.371374214E1,-8.939712524E0,1.303787613E1,-9.625788689E0
5.376374214E1,-1.096208191E1,1.473463440E1,-1.970441437E1
5.381374214E1,-1.067491817E1,1.073148346E1,-9.153280258E0
5.386374214E1,5.456924438E-3,-2.977925301E0,3.355934906E1
5.391374214E1,-6.521338940E0,3.346547127E0,-1.414184761E1
5.396374214E1,-9.065883636E0,-9.707620621E0,-1.800546265E1
5.401374214E1,4.674621582E0,-2.646477127E1,-9.879572868E0
5.406374214E1,3.669894791E1,-3.701897430E1,-1.318783283E1
5.411374214E1,1.242290688E1,3.641602516E0,2.048972607E0
5.416374214E1,-2.341346502E0,2.001045227E1,1.641633987E1
5.421374214E1,1.014083767E1,4.843612194E0,3.051599264E0
5.426374214E1,2.288469076E0,1.030085850E1,8.473918915E0
5.431374214E1,-3.059604406E0,5.657912254E0,3.701822519E0
5.436374214E1,1.497932053E1,-1.680108261E1,2.562215090E0
5.441374214E1,1.011999130E1,-5.912548828E1,-1.073868847E1
5.446374214E1,-8.056179047E0,-1.483829594E1,-1.010212040E1
5.451374214E1,-3.918780327E0,1.317343903E1,-9.451803207E0
5.456374214E1,-5.939517021E0,1.473403835E1,-1.890157700E1
5.461374214E1,-1.129491425E1,1.164433193E1,-1.390087509E1
5.466374214E1,-6.424739361E0,9.165787697E0,-3.775370598E0
5.471374214E1,-7.875292301E-1,-3.888747692E0,-2.380548000E0
5.476374214E1,-8.589068413E0,9.308490753E0,-1.363350630E0
5.481374214E1,-1.094899368E1,-4.270713806E1,-2.288750839E1
5.486374214E1,1.728318214E1,-1.783181000E1,-1.085393620E1
5.491374214E1,3.148322868E1,-6.900527000E0,5.673927307E1
5.496374214E1,-5.302403927E0,5.656307220E0,3.710787535E0
5.501374214E1,7.757870197E0,1.183668327E1,9.918875694E0
5.506374214E1,6.677445412E0,1.193306541E1,3.831416607E0
5.511374214E1,-8.754668236E-1,1.213790321E1,1.178818321E1
5.516374214E1,6.632156849E0,2.098125458E0,2.957940698E-1
5.521374214E1,1.613906860E1,-5.266526413E1,1.295038795E1
5.526374214E1,-2.207458019E0,-2.603492546E1,-4.756542206E0
5.531374214E1,1.027638435E0,9.066373825E0,-7.944180489E0
5.536374214E1,4.493231773E-1,1.491264725E1,-1.444528389E1
5.541374214E1,-3.467284679E0,1.444142723E1,-1.891137314E1
5.546374214E1,-4.902677536E0,7.176734447E0,-7.104450703E0
5.551374214E1,-3.340202808E0,-1.225814819E-1,2.665159225E0
5.556374214E1,-9.774001122E0,2.312235355E0,-2.876347351E1
5.561374214E1,-3.913564205E0,-7.659685135E0,-2.366028214E1
5.566374214E1,3.201214790E0,-1.945724678E1,2.501736879E0
5.571374214E1,2.307752800E1,-2.225582504E1,-4.544579315E1
5.576374214E1,3.430998802E0,2.469530106E0,2.240403938E1
5.581374214E1,-3.115479231E0,9.155806541E0,1.132534409E1
5.586374214E1,4.494390011E0,7.428266525E0,5.658280373E0
5.591374214E1,9.427289963E-1,1.347957993E1,4.142329216E0
5.596374214E1,2.370534420E0,9.186359406E0,1.671608567E0
5.601374214E1,1.906000710E1,-2.229761887E1,1.070657539E1
5.606374214E1,5.288019657E0,-3.992857742E1,1.503080845E0
5.611374214E1,-2.365696669E0,2.604402542E0,-6.910316467E0
5.616374214E1,-4.681438923E0,9.837934494E0,-9.943122864E0
5.621374214E1,-4.769999504E0,1.506125450E1,-2.382600403E1
5.626374214E1,-4.815840721E0,1.941191864E1,-1.224040127E1
5.631374214E1,-1.427356720E0,-5.014295578E-1,5.252551270E1
5.636374214E1,-4.146654606E0,1.961129189E0,-2.400763512E1
5.641374214E1,-6.364361763E0,-1.013752556E1,-1.817277527E1
5.646374214E1,8.416563988E0,-2.477775574E1,-6.163247228E-1
5.651374214E1,2.562802696E1,-3.089090729E1,-5.193917751E-1
5.656374214E1,-3.059628487E0,-9.434432983E-1,2.846773624E0
5.661374214E1,-5.756273866E-1,1.555213737E1,1.660830688E1
5.666374214E1,7.335937977E0,5.253168106E0,5.288697243E0
5.671374214E1,-4.384601116E-1,9.949588776E0,1.004097843E1
5.676374214E1,2.900723934E0,5.572992325E0,2.019193649E0
5.681374214E1,2.099503899E1,-2.615765953E1,8.715435028E0
5.686374214E1,7.445063591E-1,-4.738568878E1,2.060697079E-1
5.691374214E1,-2.696079254E0,-2.392819881E0,-1.324785995E1
5.696374214E1,1.381274223E0,1.356384277E1,-8.527747154E0
5.701374214E1,-2.117741108E0,1.573447227E1,-1.996713448E1
5.706374214E1,-4.139847279E0,1.618170547E1,-1.656535149E1
5.711374214E1,-3.917557240E0,9.116187096E0,-1.864213109E0
5.716374214E1,-9.764822960E0,-1.041121006E0,-1.821355247E1
5.721374214E1,-6.722522259E0,-2.656379223E0,-2.082226944E1
5.726374214E1,7.448346138E0,-3.030518723E1,-8.911886215E0
5.731374214E1,3.213271713E1,-4.008993149E1,-2.749159431E1
5.736374214E1,7.182830811E0,-5.889610291E0,1.341136074E1
5.741374214E1,-3.134099483E0,1.344615555E1,1.494022942E1
5.746374214E1,1.043205452E1,6.780538559E0,5.777277946E0
5.751374214E1,2.545123339E0,1.092998123E1,8.670663834E-2
5.756374214E1,-3.036155224E0,1.091042423E1,7.627683640E0
5.761374214E1,6.125378609E0,1.800846577E0,4.599956036E0
5.766374214E1,2.005569458E1,-4.732987213E1,9.163835526E0
5.771374214E1,-1.095411777E0,-2.519348717E1,-7.112941742E0
5.776374214E1,-2.057448864E0,9.768591881E0,-8.021148682E0
5.781374214E1,-5.352879047E0,1.098891258E1,-1.386084175E1
5.786374214E1,-5.784586906E0,1.736432838E1,-2.495269585E1
5.791374214E1,-7.246947765E0,1.510337925E1,-4.665627956E0
5.796374214E1,4.344604015E0,-9.699908257E0,1.081278419E1
5.801374214E1,-1.591970444E1,2.694051743E0,9.128925323E0
5.806374214E1,-8.372888565E-1,-2.949381256E1,-2.622576714E1
5.811374214E1,2.102801895E1,-2.440556335E1,-2.019813156E1
5.816374214E1,2.220939064E1,-1.032353783E1,3.868915176E1
5.821374214E1,-3.399943352E0,6.341470242E0,1.373039484E0
5.826374214E1,8.222921371E0,1.810524368E1,1.261344051E1
5.831374214E1,7.638786793E0,1.182662773E1,8.769565582E0
5.836374214E1,-3.616127253E0,1.043177128E1,7.000747681E0
5.841374214E1,1.099900961E0,7.514786720E0,2.084165812E0
5.846374214E1,2.339415741E1,-2.804935646E1,1.462628841E1
5.851374214E1,7.527829647E0,-4.526586151E1,-1.749171972E0
5.856374214E1,-3.983608007E0,-3.158518791E0,-7.477481842E0
5.861374214E1,-6.471967220E0,1.164037323E1,-8.780725479E0
5.866374214E1,-8.867125511E0,1.008263779E1,-1.395426559E1
5.871374214E1,-7.860939980E0,1.390818024E1,-1.433162975E1
5.876374214E1,-1.654509306E0,2.112324238E0,2.995990181E1
5.881374214E1,-6.145263672E0,3.632338524E0,-1.790420914E1
5.886374214E1,-1.152904129E1,-1.377414989E1,-1.129078197E1
5.891374214E1,3.507320881E0,-2.251424026E1,-3.356485844E0
5.896374214E1,4.114429474E1,-3.566970825E1,-1.394454861E1
5.901374214E1,1.061044979E1,2.119807243E0,9.988131523E0
5.906374214E1,-3.067164183E0,1.313726044E1,1.500683498E1
5.911374214E1,9.885413170E0,6.627470970E0,4.611767292E0
5.916374214E1,1.910209179E0,1.117081261E1,7.192764282E0
5.921374214E1,-2.005223274E0,7.226574421E0,4.254152775E0
5.926374214E1,1.334014511E1,-1.024266052E1,2.556857109E0
5.931374214E1,1.696197891E1,-5.209899521E1,-5.270205736E-1
5.936374214E1,-5.698867798E0,-1.590686893E1,-7.103323936E0
5.941374214E1,-5.220459938E0,9.362251282E0,-5.781927109E0
5.946374214E1,-7.475016594E0,1.092633152E1,-1.151385307E1
5.951374214E1,-6.676227570E0,1.622994995E1,-1.453596783E1
5.956374214E1,-6.604767799E0,1.344884872E1,-8.593172073E0
5.961374214E1,7.113280296E-1,-1.522755623E1,2.058917427E1
5.966374214E1,-7.126141071E0,4.572116375E0,-1.083550262E1
5.971374214E1,-7.609959602E0,-3.775762939E1,-1.491017342E1
5.976374214E1,1.173859310E1,-2.186353111E1,-9.483380318E-1
5.981374214E1,4.115502167E1,-2.025902748E0,2.588060379E1
5.986374214E1,2.476929903E0,6.878364086E0,1.038553905E1
5.991374214E1,1.871131539E0,1.629072571E1,1.824530220E1
5.996374214E1,5.901700974E0,7.972910881E0,1.334421158E0
6.001374214E1,-9.219034910E-1,1.206316376E1,9.550443649E0
6.006374214E1,6.354997754E-1,9.539842606E0,3.586665154E0
6.011374214E1,2.032803345E1,-1.946312141E1,7.027831554E0
6.016374214E1,1.145138168E1,-5.299612427E1,-1.809937239E0
6.021374214E1,-5.544656754E0,-1.007318878E1,-7.988507748E0
6.026374214E1,-4.703280926E0,1.137563705E1,-7.043029785E0
6.031374214E1,-7.623682976E0,1.087871456E1,-1.844940186E1
6.036374214E1,-9.300575256E0,1.470031738E1,-1.158038330E1
6.041374214E1,-2.906938314E0,3.892679691E0,4.456740189E1
6.046374214E1,-8.132183075E0,3.785190582E0,-2.092159081E1
6.051374214E1,-8.080654144E0,-2.502932549E0,-9.567302704E0
6.056374214E1,8.850231171E0,-3.003376198E1,-8.871168137E0
6.061374214E1,2.942299271E1,-3.158319473E1,-1.485496902E1
6.066374214E1,8.949269295E0,-3.149310112E0,6.711090088E0
6.071374214E1,-6.172987938E0,1.558997917E1,1.809432602E1
6.076374214E1,8.816522598E0,5.540341377E0,3.896004200E0
6.081374214E1,4.443391323E0,1.153594017E1,1.003869820E1
6.086374214E1,-1.167306900E-1,9.967102051E0,3.691360474E0
6.091374214E1,1.306365395E1,-5.783707619E0,1.335137486E-1
6.096374214E1,1.822036743E1,-4.780613327E1,5.013041496E0
6.101374214E1,-4.973358154E0,-1.951351357E1,-8.190945625E0
6.106374214E1,-5.269454002E0,1.112976646E1,-5.463388443E0
6.111374214E1,-7.412652969E0,1.025927353E1,-1.186216354E1
6.116374214E1,-7.899906635E0,1.713726807E1,-7.932070732E0
6.121374214E1,-6.319443703E0,1.375482464E1,-4.359931946E0
6.126374214E1,-3.336224794E0,-5.018033028E0,7.125623226E0
6.131374214E1,-8.193634987E0,2.269648552E0,-7.336006641E0
6.136374214E1,-5.532157421E0,-4.512010956E1,-1.540325737E1
6.141374214E1,1.095448399E1,-2.097475815E1,-1.288150787E1
6.146374214E1,4.171339035E1,-6.760149002E-1,5.090272522E1
6.151374214E1,5.108912468E0,6.514053345E0,8.582538605E0
6.156374214E1,7.698508263E0,1.672638702E1,1.236530495E1
6.161374214E1,6.493892193E0,8.430556297E0,1.602723837E0
6.166374214E1,5.758187175E-1,1.276275635E1,1.028819752E1
6.171374214E1,2.146320820E0,9.936662674E0,4.449638367E0
6.176374214E1,1.691035652E1,-2.712107086E1,7.022570133E0
6.181374214E1,1.034233379E1,-5.827010727E1,2.387742043E0
6.186374214E1,-7.744299412E0,-4.619531631E0,-8.507668495E0
6.191374214E1,-2.333775520E0,1.451875114E1,-5.580831528E0
6.196374214E1,-6.342496872E0,1.006167793E1,-1.432225037E1
6.201374214E1,-7.393966675E0,1.376487923E1,-1.923664856E1
6.206374214E1,-7.843762875E0,9.741004944E0,-6.135851145E-1
6.211374214E1,-8.426486015E0,-4.837083340E0,-1.857995987E1
6.216374214E1,-1.281927872E1,-7.040176868E0,-1.077627277E1
6.221374214E1,7.045173645E0,-2.649173355E1,-7.620271206E0
6.226374214E1,3.612478638E1,-3.742001724E1,-1.440431881E1
6.231374214E1,5.850940704E0,-5.325222969E0,7.635486603E0
6.236374214E1,-5.578744411E0,1.802968597E1,2.775539207E1
6.241374214E1,9.103896141E0,4.161479950E0,3.711665154E0
6.246374214E1,3.299126148E0,1.312890053E1,8.556326866E0
6.251374214E1,-2.625833273E0,1.039764404E1,6.004095078E0
6.256374214E1,3.821028948E0,1.243103981E0,-3.934698701E-1
6.261374214E1,2.886187553E1,-4.037079239E1,1.668689728E1
6.266374214E1,-1.302505970E0,-2.727060318E1,-6.772803783E0
6.271374214E1,-3.651905298E0,9.875239372E0,-5.953343391E0
6.276374214E1,-6.905410767E0,9.295627594E0,-1.374228477E1
6.281374214E1,-5.863754749E0,1.773139000E1,-2.171623230E1
6.286374214E1,-7.761435032E0,1.252268124E1,-1.038448143E1
6.291374214E1,-3.465817451E0,-5.010746479E0,2.163461113E1
6.296374214E1,-8.346931458E0,7.047486305E0,-1.048717022E1
6.301374214E1,-9.510943413E0,-3.398990631E1,-1.476088619E1
6.306374214E1,1.326287079E1,-2.175775719E1,-1.391009808E1
6.311374214E1,5.220523071E1,-2.532098579E1,5.608106232E1
6.316374214E1,6.567096710E0,1.103783607E0,1.178450108E0
6.321374214E1,2.839969873E0,1.877864265E1,1.270293331E1
6.326374214E1,7.223346710E0,7.394021988E0,3.010672092E0
6.331374214E1,3.986354470E-1,1.162327576E1,8.230803490E0
6.336374214E1,-5.093049407E-1,8.815878868E0,1.740183115E0
6.341374214E1,2.083742142E1,-2.081694031E1,8.768842697E0
6.346374214E1,8.361684799E0,-5.274131775E1,-5.815284729E0
6.351374214E1,-4.966400623E0,-9.132902145E0,-7.779520988E0
6.356374214E1,-6.121443272E0,1.171741104E1,-7.588992596E0
6.361374214E1,-7.174578667E0,1.174738121E1,-1.846937370E1
6.366374214E1,-8.734521866E0,1.596972847E1,-8.178198814E0
6.371374214E1,-6.243937016E-1,3.755106449E0,3.690371323E1
6.376374214E1,-5.620815277E0,3.092432022E0,-1.620098877E1
6.381374214E1,-7.361613274E0,3.511693239E0,-1.159027958E1
6.386374214E1,3.673352718E0,-3.432883453E1,-9.330390930E0
6.391374214E1,2.854437637E1,-3.233654785E1,-8.294044495E0
6.396374214E1,1.797291374E1,2.122731209E0,4.013715744E0
6.401374214E1,-3.086830378E0,1.001524067E1,7.399179935E0
6.406374214E1,8.934363365E0,8.033070564E0,4.264963150E0
6.411374214E1,3.974463463E0,1.190094948E1,5.366843224E0
6.416374214E1,-1.913262606E0,9.999821663E0,6.752528667E0
6.421374214E1,5.467442036E0,-9.207439423E-1,-1.785338879E0
6.426374214E1,2.301148605E1,-3.700883865E1,1.105666733E1
6.431374214E1,-1.022685528E0,-2.768690300E1,-5.040211678E0
6.436374214E1,-4.269112110E0,6.123510838E0,-7.684282780E0
6.441374214E1,-7.660181522E0,9.014145851E0,-1.126392651E1
6.446374214E1,-7.287852764E0,1.548489857E1,-1.774321747E1
6.451374214E1,-7.311147690E0,1.375877762E1,-1.152550507E1
6.456374214E1,2.566669703E0,-5.887802124E0,2.670406532E1
6.461374214E1,-8.331049919E0,4.018284798E0,-1.101795959E1
6.466374214E1,-8.266206741E0,-3.260410309E1,-2.017201233E1
6.471374214E1,1.492855740E1,-2.284099579E1,-1.360477829E1
6.476374214E1,3.893029785E1,-9.039021492E0,8.148838806E1
6.481374214E1,6.709547639E-1,4.696983337E0,-3.508269072E0
6.486374214E1,8.349816322E0,1.776449013E1,1.207894802E1
6.491374214E1,5.201419830E0,1.068963814E1,-3.879307032E0
6.496374214E1,-5.492836833E-1,1.299061012E1,1.056494236E1
6.501374214E1,1.530533552E0,7.703354836E0,1.528802276E0
6.506374214E1,2.297949600E1,-2.811608505E1,1.173626518E1
6.511374214E1,1.120066643E1,-4.317346954E1,-2.981491804E0
6.516374214E1,-6.067462444E0,-2.251258850E0,-6.401612759E0
6.521374214E1,-6.285325050E0,1.011104488E1,-1.072531509E1
6.526374214E1,-8.457180023E0,1.092291832E1,-1.774065208E1
6.531374214E1,-8.152317047E0,1.423316765E1,-1.149108124E1
6.536374214E1,1.816003323E0,2.946738720E0,4.383337021E1
6.541374214E1,-4.910767078E0,4.932792187E0,-1.702145767E1
6.546374214E1,-1.319723511E1,-2.156766701E1,-1.882520676E1
6.551374214E1,2.414083958E0,-2.317886734E1,-2.191919565E0
6.556374214E1,4.334025574E1,-3.688959503E1,-1.082754230E1
6.561374214E1,1.134635925E1,4.994747162E0,1.268054485E1
6.566374214E1,-4.793588161E0,1.527034569E1,6.530167580E0
6.571374214E1,1.006119633E1,7.102164268E0,4.075589180E0
6.576374214E1,3.488926172E0,1.079717159E1,8.988351822E0
6.581374214E1,-3.965683699E0,8.276101112E0,4.169374466E0
6.586374214E1,9.116865158E0,-5.750023842E0,2.180618763E0
6.591374214E1,2.557602310E1,-5.063602066E1,5.762822628E0
6.596374214E1,-4.938527107E0,-2.030262566E1,-8.954813957E0
6.601374214E1,-4.039621353E0,1.134586334E1,-5.733049870E0
6.606374214E1,-7.427316666E0,1.024673939E1,-1.437975883E1
6.611374214E1,-6.564059258E0,1.899691010E1,-1.581583786E1
6.616374214E1,-6.756276131E0,1.213731384E1,-2.733878136E0
6.621374214E1,-1.207026243E0,-1.226278782E1,1.211568642E1
6.626374214E1,-1.017476463E1,6.131752491E0,-1.880722523E0
6.631374214E1,-5.600888729E0,-3.461846161E1,-1.630581856E1
6.636374214E1,2.135680389E1,-2.894293594E1,-2.812188148E0
6.641374214E1,2.822563171E1,-2.514140129E0,4.952710342E1
6.646374214E1,-1.542439938E0,8.048301697E0,-1.095623970E0
6.651374214E1,8.492279053E0,2.004441833E1,1.049350452E1
6.656374214E1,8.958991051E0,1.117747688E1,9.291859627E0
6.661374214E1,-3.145716429E0,8.647780418E0,6.610759258E0
6.666374214E1,4.656317234E0,2.027349472E0,3.573996067E0
6.671374214E1,2.554868698E1,-3.720575714E1,5.229041576E0
6.676374214E1,1.450927258E0,-3.777999878E1,-2.659116745E0
6.681374214E1,-3.846600771E0,2.987530470E0,-5.781422615E0
6.686374214E1,-7.004635811E0,7.673141003E0,-1.247438240E1
6.691374214E1,-6.653392792E0,1.627971268E1,-2.050790977E1
6.696374214E1,-7.644610405E0,1.592078781E1,-1.666333389E1
6.701374214E1,-1.595901251E0,-5.898521423E0,4.436080933E1
6.706374214E1,-9.375253677E0,4.655912399E0,-1.413463783E1
6.711374214E1,-1.267150497E1,-3.470806503E1,-2.145038223E1
6.716374214E1,1.207888603E1,-2.391986465E1,-2.920340538E0
6.721374214E1,5.776316452E1,-3.005965042E1,2.223448563E1
6.726374214E1,7.128892422E0,5.781088829E0,5.065501213E0
6.731374214E1,6.879597187E0,1.829043961E1,1.152490425E1
6.736374214E1,6.416288376E0,1.003636837E1,2.366397381E0
6.741374214E1,-2.611804485E0,1.044472504E1,8.696448326E0
6.746374214E1,3.077807665E0,6.167181492E0,1.647199154E0
6.751374214E1,2.539046860E1,-2.925757790E1,1.513845158E1
6.756374214E1,4.672384262E0,-4.754796600E1,-1.766772509E0
6.761374214E1,-4.911717415E0,1.078612804E0,-7.473628998E0
6.766374214E1,-5.598842144E0,1.102734947E1,-1.125303650E1
6.771374214E1,-9.059391975E0,1.528177452E1,-1.877311325E1
6.776374214E1,-9.558399200E0,1.296407032E1,-1.333643818E1
6.781374214E1,-7.949144840E-1,1.066198349E-1,2.852752304E1
6.786374214E1,-7.415274620E0,4.891210556E0,-1.615799904E1
6.791374214E1,-1.187075996E1,-2.452985764E1,-2.022023582E1
6.796374214E1,4.688574314E0,-2.300121498E1,-5.261638165E0
6.801374214E1,4.394817734E1,-4.144499588E1,-1.618226433E1
6.806374214E1,4.938328743E0,2.591911316E0,1.370730400E1
6.811374214E1,-4.685706139E0,1.511606979E1,1.184506035E1
6.816374214E1,8.155807495E0,8.467473984E0,6.115546227E0
6.821374214E1,3.601966619E0,1.239800262E1,1.164879322E1
6.826374214E1,-3.960524559E0,7.981269836E0,5.086882591E0
6.831374214E1,1.215373802E1,-4.231856346E0,4.869285226E-1
6.836374214E1,2.323797989E1,-4.557596588E1,8.145272732E-1
6.841374214E1,-3.955290318E0,-2.725963211E1,-8.691955566E0
6.846374214E1,-5.156768322E0,6.705058575E0,-5.577438354E0
6.851374214E1,-7.250862122E0,9.640903473E0,-1.742657280E1
6.856374214E1,-1.074871635E1,1.758039665E1,-1.015619659E1
6.861374214E1,-8.132034302E0,1.496467209E1,-9.439694405E0
6.866374214E1,-1.791754007E0,-9.042940140E0,6.071125507E0
6.871374214E1,-1.008044243E1,6.446618557E0,-1.204155731E1
6.876374214E1,-7.883634567E0,-3.228830719E1,-2.597060966E1
6.881374214E1,1.004845047E1,-2.648841476E1,-4.744660854E0
6.886374214E1,3.660744858E1,-3.252905273E1,-1.172193146E1
6.891374214E1,7.544191360E0,3.942983627E0,6.539603710E0
6.896374214E1,5.364114791E-2,1.951660919E1,1.362494469E1
6.901374214E1,7.618175030E0,5.969351768E0,3.041496992E0
6.906374214E1,1.568203926E0,1.240158939E1,6.851540565E0
6.911374214E1,3.146502972E-1,9.811579704E0,4.056718826E0
6.916374214E1,1.452695847E1,-9.273532867E0,5.900475502E0
6.921374214E1,1.652039337E1,-6.308526993E1,-6.304413795E0
6.926374214E1,-7.156426907E0,-1.331179619E1,-7.138681412E0
6.931374214E1,-4.483323097E0,1.231212425E1,-6.381577492E0
6.936374214E1,-6.858963013E0,1.110820007E1,-1.501120758E1
6.941374214E1,-7.508330822E0,1.675249863E1,-9.461771965E0
6.946374214E1,-4.214813232E0,6.309575081E0,3.643632889E1
6.951374214E1,-4.252083302E0,9.272289276E-1,-1.597634315E1
6.956374214E1,-8.960057259E0,3.038899422E0,-8.705661774E0
6.961374214E1,-4.631046772E0,-3.424885559E1,-1.133652878E1
6.966374214E1,2.831761169E1,-3.217121887E1,-4.830450058E0
6.971374214E1,2.392560959E1,1.382595062E0,2.661551476E1
6.976374214E1,-3.407180548E0,1.078371334E1,9.496877670E0
6.981374214E1,8.937109947E0,1.028916550E1,4.342998505E0
6.986374214E1,4.465050697E0,1.273687840E1,9.679302216E0
6.991374214E1,-4.423962116E0,1.023797035E1,7.204997063E0
6.996374214E1,7.851370335E0,-5.587959290E-1,-1.802872896E0
7.001374214E1,2.923162651E1,-4.119921112E1,8.863752365E0
7.006374214E1,6.636896133E-1,-3.097284698E1,-3.032653570E0
7.011374214E1,-3.553420782E0,9.774596214E0,-5.861723423E0
7.016374214E1,-4.842518806E0,9.789886475E0,-1.420655060E1
7.021374214E1,-7.985717773E0,1.439960098E1,-2.464001846E1
7.026374214E1,-1.054262829E1,1.118046951E1,-1.127697372E1
7.031374214E1,6.083931446E0,-6.982635975E0,3.686329651E1
7.036374214E1,-7.627434731E0,7.241726398E0,-1.001314926E1
7.041374214E1,-1.044934940E1,-3.385919952E1,-1.688143349E1
7.046374214E1,1.578846550E1,-2.530943298E1,-8.571180105E-1
7.051374214E1,4.916125870E1,-2.967800140E1,6.600796509E1
7.056374214E1,2.573114634E0,6.460305214E0,-2.135694027E-1
7.061374214E1,6.306810856E0,1.709629059E1,4.660914421E0
7.066374214E1,6.007945538E0,1.160342979E1,8.344787598E0
7.071374214E1,-1.664915681E0,1.242467499E1,7.658906937E0
7.076374214E1,5.095909119E0,7.511260033E0,2.182288408E0
7.081374214E1,2.707312012E1,-3.001605415E1,1.012897682E1
7.086374214E1,-4.582643509E-1,-5.540449905E1,-2.630037785E0
7.091374214E1,-5.938393593E0,4.193181992E0,-8.065538406E0
7.096374214E1,-5.577166557E0,1.265525436E1,-1.036042976E1
7.101374214E1,-3.610388994E0,2.069482803E1,-1.936433411E1
7.106374214E1,-6.438021660E0,1.666372490E1,-1.678256989E1
7.111374214E1,-2.295810223E0,-2.917943478E0,2.786595726E1
7.116374214E1,-8.355588913E0,3.741328955E0,-1.016074562E1
7.121374214E1,-1.075451756E1,-2.861469650E1,-1.486372375E1
7.126374214E1,9.159723282E0,-2.222594070E1,-3.248224735E0
7.131374214E1,4.077257156E1,-2.526272392E1,-1.188293934E1
7.136374214E1,6.962607861E0,2.386989594E0,1.420194340E1
7.141374214E1,-2.277863979E0,1.690215302E1,1.601338005E1
7.146374214E1,7.739583969E0,5.815023422E0,2.800070286E0
7.151374214E1,1.118433475E-1,1.054615688E1,7.966814518E0
7.156374214E1,-1.388936043E-1,9.421781540E0,2.401792049E0
7.161374214E1,2.176724625E1,-1.702325439E1,5.546435833E0
7.166374214E1,1.183907700E1,-5.791187668E1,-5.850189686E0
7.171374214E1,-7.967646599E0,-1.419281864E1,-8.546718597E0
7.176374214E1,-5.040893555E0,1.307610035E1,-5.642363548E0
7.181374214E1,-7.999773502E0,1.312867165E1,-1.964691925E1
7.186374214E1,-1.027949333E1,1.366929150E1,-1.219723225E1
7.191374214E1,-1.828740120E0,2.863266945E0,3.994549942E1
7.196374214E1,-7.027301788E0,6.597528458E-1,-1.911910629E1
7.201374214E1,-8.538022995E0,-6.965255737E-2,-1.165079975E1
7.206374214E1,2.155112743E0,-3.035192490E1,-8.970026970E0
7.211374214E1,3.239430237E1,-3.289983368E1,-1.135668373E1
7.216374214E1,1.968524551E1,3.473292351E0,1.725292015E1
7.221374214E1,-1.702644825E0,1.286026096E1,8.922735214E0
7.226374214E1,9.574781418E0,9.071216583E0,6.049607277E0
7.231374214E1,4.551763535E0,1.244227791E1,4.037600040E0
7.236374214E1,-2.001909018E0,1.067491341E1,6.616239548E0
7.241374214E1,5.952284336E0,1.488873482E0,-2.823789120E0
7.246374214E1,2.891631699E1,-4.679833603E1,1.498897934E1
7.251374214E1,-2.420702457E0,-2.583097076E1,-6.460338593E0
7.256374214E1,-5.418157578E0,8.871865273E0,-4.919286251E0
7.261374214E1,-6.479856491E0,9.651508331E0,-1.159046459E1
7.266374214E1,-9.115173340E0,1.761430359E1,-1.804441452E1
7.271374214E1,-8.630607605E0,1.293677330E1,-7.175753593E0
7.276374214E1,2.646685600E0,-1.516617012E1,2.018670464E1
7.281374214E1,-1.017405796E1,9.203400612E0,-1.140682411E1
7.286374214E1,-1.057401466E1,-3.977640533E1,-2.198591614E1
7.291374214E1,1.151453400E1,-2.373786926E1,-2.636415958E0
7.296374214E1,5.893470383E1,-2.421794891E1,4.484856033E1
7.301374214E1,6.252293587E0,5.488588810E0,2.506761551E0
7.306374214E1,2.057584763E0,1.942314339E1,1.209845638E1
7.311374214E1,5.801866055E0,7.665988922E0,2.225541592E0
7.316374214E1,-8.086115122E-2,1.047406006E1,7.072717667E0
7.321374214E1,1.164902568E0,7.386255264E0,2.961385965E0
7.326374214E1,2.404961395E1,-2.213503647E1,7.112548828E0
7.331374214E1,1.051516342E1,-5.425043869E1,-7.912116528E0
7.336374214E1,-8.220708847E0,-5.981282711E0,-7.572513580E0
7.341374214E1,-6.165510178E0,1.205580711E1,-9.096774101E0
7.346374214E1,-6.477667332E0,1.412612343E1,-2.258573532E1
7.351374214E1,-9.214946747E0,1.373515129E1,-9.466850281E0
7.356374214E1,1.125767231E0,3.934950829E-1,4.238983917E1
7.361374214E1,-3.802598715E0,2.307905197E0,-1.485852146E1
7.366374214E1,-9.106359482E0,2.337896347E0,-7.264285088E0
7.371374214E1,-2.747569084E-1,-2.999440193E1,-1.225680351E1
7.376374214E1,2.943158340E1,-2.961063385E1,-5.244060516E0
7.381374214E1,3.167593765E1,-4.969158173E-1,7.134574127E1
7.386374214E1,3.111954331E-1,1.066226006E1,7.378217697E0
7.391374214E1,1.180298233E1,1.346338463E1,8.864209175E0
7.396374214E1,5.938931465E0,1.340327454E1,4.209155083E0
7.401374214E1,-1.833779573E0,1.222203732E1,5.339504242E0
7.406374214E1,3.334224224E0,1.610944748E0,2.985665560E0
7.411374214E1,2.689062119E1,-3.649021912E1,1.707015038E1
7.416374214E1,1.732504368E0,-4.171876526E1,-1.384040713E0
7.421374214E1,-5.045604706E0,6.117053509E0,-6.749423981E0
7.426374214E1,-7.414422512E0,9.263884544E0,-1.263376522E1
7.431374214E1,-9.166834831E0,1.847661209E1,-1.852121735E1
7.436374214E1,-9.687108040E0,1.533842373E1,-1.304956722E1
7.441374214E1,-2.219968319E0,-6.656532288E0,2.978597832E1
7.446374214E1,-8.369632721E0,7.193870068E0,-1.324520493E1
7.451374214E1,-7.761770248E0,-3.257876205E1,-2.230417442E1
7.456374214E1,1.029452133E1,-2.519946671E1,-3.997287273E0
7.461374214E1,4.580730438E1,-3.217295074E1,1.745845795E1
7.466374214E1,6.523234844E0,3.508817673E0,7.569053173E-1
7.471374214E1,6.173317432E0,2.003236198E1,1.205795383E1
7.476374214E1,7.115347862E0,8.509605408E0,1.758555532E0
7.481374214E1,1.031661272E0,1.215395832E1,7.674192429E0
7.486374214E1,2.568162918E0,8.687166214E0,3.325086832E0
7.491374214E1,2.430887985E1,-2.716465378E1,1.293604279E1
7.496374214E1,5.185312271E0,-5.761929703E1,-3.079467773E0
7.501374214E1,-6.823247433E0,-2.674560070E0,-6.770731449E0
7.506374214E1,-7.653390884E0,1.081015396E1,-9.955362320E0
7.511374214E1,-6.202679634E0,1.496516705E1,-1.980612946E1
7.516374214E1,-8.333633423E0,1.549557495E1,-1.525214958E1
7.521374214E1,-2.521782637E0,-1.172977924E0,3.557052612E1
7.526374214E1,-7.066007137E0,5.430557251E0,-1.661452103E1
7.531374214E1,-1.222593975E1,-1.817428970E1,-1.554525280E1
7.536374214E1,1.310760403E1,-2.682630157E1,-3.217867851E0
7.541374214E1,3.756031418E1,-2.830707550E1,-1.389382362E1
7.546374214E1,4.981816292E0,4.920558929E-1,-4.414194584E0
7.551374214E1,2.915091753E0,2.174238014E1,1.633119965E1
7.556374214E1,7.599703312E0,5.500825882E0,2.941784859E0
7.561374214E1,2.841285944E0,1.235455894E1,9.994765282E0
7.566374214E1,1.811764240E0,8.805507660E0,2.628008842E0
7.571374214E1,2.083264542E1,-1.794714737E1,7.427817345E0
7.576374214E1,1.364723396E1,-5.697666168E1,-7.422564507E0
7.581374214E1,-6.355857372E0,-8.948820114E0,-7.386697769E0
7.586374214E1,-6.613068581E0,1.246014977E1,-7.051832199E0
7.591374214E1,-6.395520210E0,1.102492714E1,-1.729679108E1
7.596374214E1,-9.420966148E0,1.602250290E1,-1.474687481E1
7.601374214E1,-4.507392883E0,3.345783234E0,4.717016602E1
7.606374214E1,-7.295952320E0,2.451786995E0,-2.310368538E1
7.611374214E1,-9.986634254E0,-1.228029633E1,-1.128168106E1
7.616374214E1,3.755406380E0,-2.773931885E1,-6.933197498E0
7.621374214E1,4.016824341E1,-3.683513641E1,-1.547214317E1
7.626374214E1,8.290364265E0,1.911412239E0,1.181466961E1
7.631374214E1,-3.829164267E0,1.788018799E1,1.463788414E1
7.636374214E1,1.065028477E1,7.684918404E0,4.737686157E0
7.641374214E1,2.573323488E0,1.120274162E1,7.384062767E0
7.646374214E1,-1.676292777E0,9.875141144E0,3.927715778E0
7.651374214E1,7.909778595E0,-2.709257126E0,1.461533070E0
7.656374214E1,2.764505386E1,-5.505544281E1,5.646851063E-1
7.661374214E1,-3.902850151E0,-2.145749283E1,-5.149684906E0
7.666374214E1,-5.048467636E0,9.860319138E0,-4.852017403E0
7.671374214E1,-6.738678932E0,7.795405388E0,-1.559845352E1
7.676374214E1,-9.146581650E0,1.852623749E1,-1.707753181E1
7.681374214E1,-9.157948494E0,1.431435680E1,-7.871986389E0
7.686374214E1,1.870447159E0,-1.278139496E1,1.213079739E1
7.691374214E1,-8.004667282E0,5.870477676E0,-1.086371994E1
7.696374214E1,-6.346201897E0,-3.214504242E1,-2.370054626E1
7.701374214E1,1.477991676E1,-2.747730255E1,3.096210241E0
7.706374214E1,4.970033646E1,-9.813632965E0,7.361304474E1
7.711374214E1,1.895453453E0,6.313214302E0,4.400309563E0
7.716374214E1,1.198172379E1,1.433815956E1,1.118087006E1
7.721374214E1,5.742244720E0,1.238903141E1,7.681158066E0
7.726374214E1,-5.719273567E0,9.237419128E0,8.060994148E0
7.731374214E1,2.799314022E0,6.180562496E0,1.549082875E0
7.736374214E1,2.779240417E1,-2.779930878E1,9.486924171E0
7.741374214E1,7.909906864E0,-4.691022491E1,-2.848764896E0
7.746374214E1,-7.478117943E0,5.646181107E-1,-6.044477940E0
7.751374214E1,-7.897427082E0,9.768573761E0,-8.250285149E0
7.756374214E1,-8.748508453E0,1.277280998E1,-2.043731689E1
7.761374214E1,-8.996713638E0,1.515350151E1,-1.132710934E1
7.766374214E1,-2.739524841E0,-7.220067978E-1,2.579177094E1
7.771374214E1,-8.724564552E0,5.757344246E0,-1.702243423E1
7.776374214E1,-1.258163548E1,-2.337381363E1,-1.535741615E1
7.781374214E1,1.209586716E1,-2.612586212E1,-1.077511883E1
7.786374214E1,4.420223999E1,-3.352300644E1,-1.723542213E1
7.791374214E1,7.621946335E0,5.407694340E0,3.722698212E0
7.796374214E1,4.632124901E0,1.907334709E1,1.235456657E1
7.801374214E1,1.010122108E1,5.902274609E0,1.977362990E0
7.806374214E1,6.175554991E-1,1.146626663E1,7.963421345E0
7.811374214E1,1.899286509E-1,8.778583527E0,1.717549205E0
7.816374214E1,1.849670410E1,-1.201127529E1,-4.065886438E-1
7.821374214E1,1.372084618E1,-5.766977310E1,-1.007555389E1
7.826374214E1,-5.330451012E0,-1.184704399E1,-9.691337585E0
7.831374214E1,-4.107760906E0,1.178999519E1,-8.162960052E0
7.836374214E1,-1.062120247E1,1.072067261E1,-2.190212250E1
7.841374214E1,-1.261044312E1,1.355378342E1,-9.079747200E0
7.846374214E1,-9.475529194E-1,1.145601463E1,3.434490204E1
7.851374214E1,-4.947245598E0,-1.334910393E-1,-6.472507000E0
7.856374214E1,-5.063586235E0,7.914793015E0,-9.978887558E0
7.861374214E1,8.519701958E-1,-3.624757385E1,-2.191318130E1
7.866374214E1,2.668406296E1,-3.032140350E1,1.796674728E-1
7.871374214E1,2.390342712E1,1.897820950E0,4.261854553E1
7.876374214E1,-2.903986216E0,7.369864464E0,2.918459892E0
7.881374214E1,1.204410553E1,9.889511108E0,7.553849697E0
7.886374214E1,7.051759720E0,1.324983788E1,9.448287964E0
7.891374214E1,-7.897782922E-1,1.286894894E1,8.100561142E0
7.896374214E1,1.303362727E0,3.540281296E0,1.807729840E0
7.901374214E1,3.086499023E1,-4.338510132E1,2.508714867E1
7.906374214E1,-4.622287750E-1,-4.808214951E1,-2.472906590E0
7.911374214E1,-5.272823811E0,9.478962898E0,-5.261716366E0
7.916374214E1,-5.307847500E0,9.102034569E0,-1.313876915E1
7.921374214E1,-6.510544300E0,2.002782059E1,-2.021666908E1
7.926374214E1,-6.913165092E0,1.432693768E1,-1.111347198E1
7.931374214E1,5.215406418E-2,-1.189723015E1,2.741696548E1
7.936374214E1,-9.957598686E0,6.691154003E0,-1.336150360E1
7.941374214E1,-1.291684723E1,-3.131764984E1,-2.161673737E1
7.946374214E1,1.236356163E1,-3.144086075E1,-2.605883598E0
7.951374214E1,4.997548676E1,-3.252709579E1,8.534770966E0
7.956374214E1,6.386291504E0,5.986353874E0,-1.005625248E0
7.961374214E1,6.084499836E0,1.960807037E1,1.027326965E1
7.966374214E1,7.532172203E0,8.368305206E0,1.211547852E0
7.971374214E1,1.428720713E0,1.310297012E1,9.374718666E0
7.976374214E1,-8.794516325E-3,1.043555069E1,1.764466763E0
7.981374214E1,1.468363953E1,-6.865524292E0,-1.300571442E0
7.986374214E1,2.096421051E1,-6.100122833E1,-4.926113605E0
7.991374214E1,-6.838411331E0,-1.563679504E1,-4.030924320E0
7.996374214E1,-5.676276684E0,1.023722649E1,-7.891939640E0
8.001374214E1,-7.024575233E0,1.056595707E1,-1.680973625E1
8.006374214E1,-1.207617474E1,1.481717777E1,-1.449676704E1
8.011374214E1,-7.095005512E0,7.033284187E0,4.803200531E1
8.016374214E1,-6.168663025E0,-1.197548866E0,-1.969196701E1
8.021374214E1,-7.993943691E0,-2.161297798E-1,-1.063748550E1
8.026374214E1,-1.518774986E0,-3.202476501E1,-1.254377270E1
8.031374214E1,3.541852188E1,-3.708636475E1,-1.213167000E1
8.036374214E1,1.905076599E1,1.233025551E0,4.246623611E1
8.041374214E1,-7.873445749E-1,1.039660168E1,9.851680756E0
8.046374214E1,1.032226753E1,7.173576832E0,4.966304779E0
8.051374214E1,3.708814144E0,1.506784248E1,3.743066311E0
8.056374214E1,-1.613951325E0,1.120879078E1,8.392631531E0
8.061374214E1,8.812935829E0,-7.368202209E-1,1.317093253E0
8.066374214E1,3.565190887E1,-4.867962646E1,7.477033138E0
8.071374214E1,-3.406676292E0,-3.697137833E1,-5.712602615E0
8.076374214E1,-6.699173450E0,9.351941109E0,-7.408940792E0
8.081374214E1,-8.571910858E0,1.083923721E1,-1.750805473E1
8.086374214E1,-9.808469772E0,2.156022835E1,-1.568921471E1
8.091374214E1,-8.720829010E0,9.590669632E0,3.327771378E1
8.096374214E1,-3.290396214E0,-5.442692280E0,-9.505199432E0
8.101374214E1,-7.588426113E0,2.369271755E0,-9.360741615E0
8.106374214E1,-1.271738052E0,-3.414226151E1,-1.290007496E1
8.111374214E1,2.837034225E1,-3.156232071E1,-1.030475998E1
8.116374214E1,2.264251900E1,2.026802063E0,2.989761353E1
8.121374214E1,-3.202790499E0,1.038448048E1,1.026597786E1
8.126374214E1,1.228718281E1,8.512719154E0,1.161952400E1
8.131374214E1,4.963863373E0,1.235793686E1,3.514700174E0
8.136374214E1,-4.044193268E0,8.958444595E0,6.948225021E0
8.141374214E1,7.998124123E0,-2.239540100E0,-9.005802274E-1
8.146374214E1,2.982034683E1,-4.359877396E1,4.192730904E0
8.151374214E1,-4.149296761E0,-2.359564209E1,-5.011635780E0
8.156374214E1,-3.657508850E0,1.193272209E1,-6.227946281E0
8.161374214E1,-5.985229492E0,1.093704033E1,-1.346375084E1
8.166374214E1,-8.314678192E0,1.687366867E1,-1.575916290E1
8.171374214E1,-7.885598183E0,1.133399200E1,-6.758679390E0
8.176374214E1,-5.095677853E0,-4.348137379E0,-3.431846857E0
8.181374214E1,-7.416179657E0,-1.466051579E0,-1.374387741E1
8.186374214E1,-4.617022038E0,-2.651492691E1,-1.640537453E1
8.191374214E1,2.927228928E1,-3.234401703E1,-8.219619751E0
8.196374214E1,2.389870071E1,-2.121868134E-1,5.174037170E1
8.201374214E1,-2.732076406E0,1.032551479E1,5.656187057E0
8.206374214E1,1.047725964E1,1.338856792E1,9.463717461E0
8.211374214E1,6.298767090E0,1.248726940E1,4.296120644E0
8.216374214E1,-1.246068120E0,1.230355835E1,6.588126183E0
8.221374214E1,6.025041580E0,7.564158916E0,2.808175683E-1
8.226374214E1,3.152262497E1,-4.004533005E1,1.858423042E1
8.231374214E1,6.229697704E0,-4.885239029E1,-5.762285233E0
8.236374214E1,-6.892546654E0,3.655228853E0,4.695129395E-1
8.241374214E1,-9.459817886E0,7.979333401E0,-1.779420853E1
8.246374214E1,-1.289462090E1,1.657984543E1,-1.230270767E1
8.251374214E1,-1.168171215E1,1.872823524E1,-1.083743477E1
8.256374214E1,-3.353229046E0,-9.377367020E0,1.355729198E1
8.261374214E1,-7.756508827E0,8.088906288E0,-1.040548325E1
8.266374214E1,-1.089136887E1,-3.566434860E1,-2.064909935E1
8.271374214E1,1.533156586E1,-2.874597168E1,-9.616896629E0
8.276374214E1,5.887953568E1,-2.215564346E1,5.016109085E1
8.281374214E1,5.187260151E0,7.213214397E0,1.102286720E1
8.286374214E1,2.603677034E0,1.850715637E1,1.652582359E1
8.291374214E1,8.245629311E0,6.111530781E0,1.486677885E0
8.296374214E1,6.008977294E-1,1.254776001E1,9.672941208E0
8.301374214E1,7.889673710E-1,7.175107956E0,3.533574820E0
8.306374214E1,2.344085503E1,-1.755791283E1,2.131312609E0
8.311374214E1,1.520167351E1,-5.271569061E1,-7.279666901E0
8.316374214E1,-8.927797318E0,-1.193314362E1,-3.839601755E0
8.321374214E1,-7.553937912E0,1.111750603E1,-7.533107758E0
8.326374214E1,-9.653217316E0,1.165941238E1,-1.466240883E1
8.331374214E1,-9.932251930E0,1.567028141E1,-8.002217293E0
8.336374214E1,-3.770375252E0,5.097972393E0,2.774971771E1
8.341374214E1,-4.874642372E0,1.237374306E0,-1.733222389E1
8.346374214E1,-7.227923393E0,2.620318890E0,-1.045912743E1
8.351374214E1,2.290270329E0,-3.614968872E1,-1.163729286E1
8.356374214E1,2.878643799E1,-3.244898987E1,-1.084560776E1
8.361374214E1,1.735774994E1,5.664177418E0,5.071557045E0
8.366374214E1,-5.791625977E0,1.314167023E1,1.643888855E1
8.371374214E1,1.115591717E1,9.246529579E0,1.036850548E1
8.376374214E1,5.199929237E0,1.210737705E1,9.839856148E0
8.381374214E1,-4.946201324E0,7.217810154E0,7.144991398E0
8.386374214E1,5.252946377E0,2.510404587E0,-4.901458621E-1
8.391374214E1,2.713610649E1,-4.225756836E1,1.790761375E1
8.396374214E1,-1.356916428E-1,-3.265564728E1,-4.494069576E0
8.401374214E1,-6.434472084E0,4.762362480E0,-7.986883163E0
8.406374214E1,-6.773369789E0,1.210197639E1,-1.311737633E1
8.411374214E1,-1.009100723E1,1.545729637E1,-1.391467667E1
8.416374214E1,-7.239928722E0,1.261570072E1,-1.185688210E1
8.421374214E1,-2.540063858E0,-6.759947777E0,3.163459206E1
8.426374214E1,-6.543339729E0,9.293595314E0,-1.019062138E1
8.431374214E1,-1.133868027E1,-2.131988907E1,-2.067409325E1
8.436374214E1,1.146270084E1,-2.447118378E1,-4.960026741E-1
8.441374214E1,3.744585037E1,-2.677103424E1,-1.821718788E1
8.446374214E1,4.747586250E0,1.561223030E0,8.393642902E-1
8.451374214E1,3.685430050E0,2.086843872E1,1.786539459E1
8.456374214E1,8.312120438E0,4.634852409E0,2.112016201E0
8.461374214E1,9.087880850E-1,1.230364609E1,1.045276833E1
8.466374214E1,1.152420044E-1,8.992876053E0,2.834907770E0
8.471374214E1,1.635975266E1,-1.633301544E1,7.972569942E0
8.476374214E1,1.188604259E1,-6.685456848E1,-7.203611374E0
8.481374214E1,-7.682534695E0,-6.048357964E0,-9.053877831E0
8.486374214E1,-5.411525726E0,1.219149590E1,-1.118973160E1
8.491374214E1,-6.742651463E0,1.448781586E1,-2.068256950E1
8.496374214E1,-8.864641190E0,1.385859013E1,-1.130349731E1
8.501374214E1,-1.359780788E0,9.818000793E-1,4.360583878E1
8.506374214E1,-6.157520294E0,9.843754768E-1,-1.827628326E1
8.511374214E1,-7.709232330E0,2.233793259E0,-1.070293427E1
8.516374214E1,-6.104164124E-1,-2.811250114E1,-1.219709969E1
8.521374214E1,3.789280701E1,-3.550216293E1,-4.080412388E0
8.526374214E1,1.081488800E1,1.724002838E0,3.406498718E1
8.531374214E1,-4.562844276E0,8.952760696E0,1.608387375E1
8.536374214E1,1.290891361E1,9.190809250E0,7.866600037E0
8.541374214E1,5.524334431E0,1.447340679E1,4.194038868E0
8.546374214E1,1.670866609E-1,1.368784142E1,9.098285675E0
8.551374214E1,3.152844667E0,2.986361504E0,2.725428581E0
8.556374214E1,3.298415375E1,-4.958687592E1,1.526700974E1
8.561374214E1,7.508945465E-2,-3.322845459E1,-3.837394238E0
8.566374214E1,-4.255649567E0,8.114027023E0,-3.173687935E0
8.571374214E1,-2.048938751E0,7.176365376E0,-1.632006073E1
8.576374214E1,-6.013963699E0,1.699830437E1,-2.499308395E1
8.581374214E1,-8.228581429E0,1.350284958E1,-1.585891151E1
8.586374214E1,6.768465042E-2,-1.041665459E1,4.626530838E1
8.591374214E1,-7.640902519E0,8.748632431E0,-1.395691299E1
8.596374214E1,-9.189937592E0,-2.219338036E1,-2.297895813E1
8.601374214E1,1.585148811E1,-3.178357697E1,-4.662951946E0
8.606374214E1,4.304001236E1,-3.459689713E1,-1.231111145E1
8.611374214E1,4.093480110E0,3.416031837E0,9.539291859E-1
8.616374214E1,3.713742733E0,2.038613129E1,1.631238556E1
8.621374214E1,7.127267361E0,6.441321373E0,5.591273308E-1
8.626374214E1,2.699437380E0,1.356803417E1,7.129305840E0
8.631374214E1,2.322851658E0,1.215793896E1,4.781336784E0
8.636374214E1,1.580701447E1,-7.113008499E0,6.425271034E-1
8.641374214E1,2.200294685E1,-7.047032928E1,-9.615334511E0
8.646374214E1,-6.963871002E0,-1.105317307E1,-3.753789425E0
8.651374214E1,-6.435099125E0,1.039712906E1,-9.092153549E0
8.656374214E1,-7.713551521E0,1.460414696E1,-2.533876419E1
8.661374214E1,-1.340818214E1,1.668314362E1,-1.131651020E1
8.666374214E1,-3.507122040E0,1.167040348E0,3.221176910E1
8.671374214E1,-5.801607132E0,-1.803553104E0,-7.375615120E0
8.676374214E1,-7.574186802E0,5.454586029E0,-1.069616222E1
8.681374214E1,1.082758904E0,-4.006903839E1,-1.306615067E1
8.686374214E1,3.378547287E1,-2.840474319E1,-6.953865051E0
8.691374214E1,1.699020767E1,1.734008789E0,2.908264923E1
8.696374214E1,-4.202723026E0,1.235256863E1,1.998729324E1
8.701374214E1,1.228892899E1,7.283887386E0,5.327058792E0
8.706374214E1,4.791174889E0,1.435452843E1,1.546861362E1
8.711374214E1,-3.366441250E0,1.020595932E1,6.101353645E0
8.716374214E1,3.472112656E0,2.713979721E0,-1.702233434E0
8.721374214E1,3.251675415E1,-5.295945740E1,1.077894306E1
8.726374214E1,-3.817098856E0,-2.728378487E1,-9.260468483E0
8.731374214E1,-5.027039528E0,1.340397358E1,-4.849172592E0
8.736374214E1,-7.134830952E0,7.183525085E0,-1.689092636E1
8.741374214E1,-1.042126656E1,1.500676155E1,-1.346775246E1
8.746374214E1,-1.092519855E1,1.297132206E1,-2.709355116E0
8.751374214E1,-9.260344505E-2,-5.042315006E0,-2.153884649E0
8.756374214E1,-6.175399303E0,8.768516541E0,-3.638036966E0
8.761374214E1,-1.065677929E1,-2.616558838E1,-1.803682327E1
8.766374214E1,1.136494827E1,-2.532287216E1,-9.194109440E-1
8.771374214E1,3.900483322E1,-2.300148392E1,-1.620161057E1
8.776374214E1,4.137216568E0,1.096233368E0,3.539590597E0
8.781374214E1,8.054252625E0,1.925945663E1,1.732284737E1
8.786374214E1,8.846883774E0,5.767283916E0,1.950449944E0
8.791374214E1,2.269877911E0,1.248813248E1,8.620815277E0
8.796374214E1,-3.012287855E0,1.002556896E1,3.675872326E0
8.801374214E1,8.451301575E0,-2.801882744E0,-2.143970966E0
8.806374214E1,3.383755875E1,-5.833071136E1,7.387524605E0
8.811374214E1,-7.344844818E0,-2.261565971E1,-6.561341286E0
8.816374214E1,-7.164167881E0,1.067228699E1,-7.103800774E0
8.821374214E1,-7.323851585E0,1.284174728E1,-1.785097313E1
8.826374214E1,-1.063228798E1,1.663560677E1,-1.483230782E1
8.831374214E1,-6.401683331E0,1.026396179E1,-8.022794724E0
8.836374214E1,-1.053762436E-1,-1.348077774E1,1.525701046E1
8.841374214E1,-8.325959206E0,5.808533192E0,-6.673042297E0
8.846374214E1,-1.005734062E1,-2.859396935E1,-2.235811424E1
8.851374214E1,1.911953163E1,-2.764929962E1,-1.688913107E-1
8.856374214E1,3.833260727E1,-2.009310532E1,4.651608467E-1
8.861374214E1,2.684294224E0,2.799404144E0,-2.770668030E0
8.866374214E1,1.015111256E1,2.144676208E1,1.914974213E1
8.871374214E1,8.151170731E0,5.736621857E0,1.470771194E0
8.876374214E1,2.407550812E0,1.388419914E1,1.160896587E1
8.881374214E1,9.540126920E-1,8.627885818E0,3.738341331E0
8.886374214E1,2.212472916E1,-2.055701065E1,6.354815483E0
8.891374214E1,1.750581741E1,-6.238248825E1,-8.130182266E0
8.896374214E1,-7.401404858E0,-7.292832375E0,-6.649166584E0
8.901374214E1,-4.951993942E0,1.240797329E1,-7.089939594E0
8.906374214E1,-7.109878063E0,1.056831932E1,-2.167988205E1
8.911374214E1,-1.403456116E1,1.069412041E1,-1.053579903E1
8.916374214E1,-5.055961609E0,5.443082809E0,4.173736572E1
8.921374214E1,-6.488794327E0,-7.069654465E-1,-1.365032005E1
8.926374214E1,-1.083551216E1,3.656013966E0,-1.194715214E1
8.931374214E1,-4.633238792E0,-3.405518723E1,-1.494536972E1
8.936374214E1,3.700653076E1,-3.478078842E1,-5.715202808E0
8.941374214E1,2.292322350E1,-8.734703064E-3,7.039726257E1
8.946374214E1,-1.978325605E0,9.571820259E0,4.558001518E0
8.951374214E1,1.048416042E1,1.486590958E1,3.747023344E0
8.956374214E1,6.111515045E0,1.324218941E1,1.518551636E1
8.961374214E1,-2.739631176E0,9.937332153E0,3.796301365E0
8.966374214E1,8.264484406E0,-1.569164276E0,-1.779028416E0
8.971374214E1,2.169341850E1,-4.137898254E1,2.923264503E0
8.976374214E1,-1.190096378E0,-3.019363785E1,-6.375655651E0
8.981374214E1,-6.623772144E0,6.815583706E0,-6.594477177E0
8.986374214E1,-8.590149879E0,1.013105869E1,-1.161913300E1
8.991374214E1,-1.017617035E1,1.497862053E1,-1.501068878E1
8.996374214E1,-7.626528740E0,1.250777435E1,-8.788186073E0
9.001374214E1,-1.708999157E0,-1.027585793E1,1.326726723E1
9.006374214E1,-8.997893333E0,9.373484612E0,-8.900344849E0
9.011374214E1,-1.035746574E1,-2.636766434E1,-2.401105881E1
9.016374214E1,1.357247925E1,-2.717250443E1,-1.612055659E0
9.021374214E1,3.557762909E1,-2.941925430E1,-1.213938713E1
9.026374214E1,7.391665459E0,3.896112442E0,1.182268620E0
9.031374214E1,1.669754624E0,2.150863075E1,1.788908958E1
9.036374214E1,7.645946503E0,6.917607307E0,2.769527197E0
9.041374214E1,2.058115244E0,1.254901314E1,1.153130245E1
9.046374214E1,3.538121223E0,5.649061680E0,3.559528112E0
9.051374214E1,1.890252304E1,-2.500941086E1,1.373394585E1
9.056374214E1,1.211841774E1,-5.551214218E1,-2.518127680E0
9.061374214E1,-9.093226433E0,-1.775996685E0,-8.753122330E0
9.066374214E1,-6.304096222E0,1.468337822E1,-6.956342697E0
9.071374214E1,-1.158876610E1,1.301604366E1,-1.880113983E1
9.076374214E1,-1.018908978E1,1.178568077E1,-5.937347412E0
9.081374214E1,7.149634361E-1,-1.242189407E-1,2.532526779E1
9.086374214E1,-4.963643551E0,6.539899826E0,-1.070554352E1
9.091374214E1,-8.873218536E0,-1.093758011E1,-1.503834248E1
9.096374214E1,3.725118637E0,-2.886322212E1,-8.665409088E0
9.101374214E1,2.596226883E1,-2.884324646E1,-3.941733360E0
9.106374214E1,7.595196247E0,-2.625211716E0,1.716594505E1
9.111374214E1,-8.533746004E-1,1.199480247E1,9.384971619E0
9.116374214E1,8.357253075E0,9.055739403E0,7.009606361E0
9.121374214E1,5.494467735E0,1.585122776E1,4.494469643E0
9.126374214E1,7.145467997E-1,8.868617058E0,2.622088909E0
9.131374214E1,-4.898579121E-1,-1.872677231E1,-1.188925385E0
9.136374214E1,3.549567461E0,-2.610340309E1,8.195466995E-1
9.141374214E1,1.456052780E0,-1.174548817E1,6.838679314E-2
9.146374214E1,-4.265975952E-1,4.778449059E0,-1.869516373E-1
9.151374214E1,-5.169340134E0,9.422159195E0,-9.740324020E0
9.156374214E1,-5.546598434E0,1.400474167E1,-1.053598499E1
9.161374214E1,-5.628499508E0,1.431308651E1,-1.084171200E1
9.166374214E1,-4.900018692E0,-4.205691338E0,-1.655606079E1
9.171374214E1,-1.035848045E1,-3.710987091E0,-1.415447617E1
9.176374214E1,-2.878881454E0,-1.264484119E1,-8.022520065E0
9.181374214E1,2.080514526E1,-2.064586258E1,-3.450829744E0
9.186374214E1,2.413243866E1,-1.488449287E1,5.386382294E1
9.191374214E1,8.169159293E-1,7.168109417E0,5.593093872E0
9.196374214E1,4.309170723E0,1.380605602E1,1.300238705E1
9.201374214E1,2.726556301E0,1.191599274E1,2.208883524E0
9.206374214E1,2.474026680E0,1.368668365E1,1.594728589E0
9.211374214E1,7.075603485E0,1.132939339E0,2.541217566E0
9.216374214E1,1.516036034E1,-5.840817261E1,3.968951225E0
9.221374214E1,5.822610855E-2,-2.267371368E1,-8.094378710E-1
9.226374214E1,-5.868614674E0,5.005583763E0,-2.555031300E0
9.231374214E1,-1.006113338E1,8.741703987E0,-8.331384659E0
9.236374214E1,-8.565396309E0,1.763437653E1,-1.460998154E1
9.241374214E1,-7.109156609E0,1.661853409E1,-8.767047882E0
9.246374214E1,3.739868164E0,-8.326402664E0,5.637928009E1
9.251374214E1,-4.183343887E0,3.422211170E0,-1.796019363E1
9.256374214E1,-7.881132126E0,-2.239729691E1,-1.302248764E1
9.261374214E1,7.756183147E0,-2.333956909E1,3.421205521E0
9.266374214E1,3.607183838E1,-2.141277695E1,4.071724319E1
9.271374214E1,1.603280902E0,3.631976128E0,6.128119469E0
9.276374214E1,-3.053575993E0,1.642649269E1,1.872648811E1
9.281374214E1,5.927042961E0,6.872752190E0,3.610528469E0
9.286374214E1,9.923717976E-1,1.218932533E1,6.146245956E0
9.291374214E1,2.309279442E0,1.005072975E1,3.938778400E0
9.296374214E1,1.734980392E1,-1.731396484E1,1.186516476E1
9.301374214E1,1.065975857E1,-5.298076630E1,2.949241400E0
9.306374214E1,-2.782713413E0,-3.712229729E0,-3.972599268E0
9.311374214E1,-4.270083427E0,1.049397469E1,-5.262948036E0
9.316374214E1,-6.402847767E0,1.042484093E1,-1.278575611E1
9.321374214E1,-6.125968933E0,1.640965271E1,-1.616840363E1
9.326374214E1,-5.566517353E0,1.189571190E1,-5.029306412E0
9.331374214E1,-9.006212234E0,1.224931240E0,-1.709378624E1
9.336374214E1,-3.193831921E0,4.671296120E0,-1.276462936E1
9.341374214E1,-2.499007940E0,-2.494551659E1,-1.191825390E1
9.346374214E1,3.122209167E1,-3.241125488E1,-1.508990192E1
9.351374214E1,1.298941422E1,-2.552366257E-1,3.747424316E1
9.356374214E1,-4.569871902E0,4.607729912E0,4.892542839E0
9.361374214E1,7.517361641E0,1.365139389E1,1.243074989E1
9.366374214E1,3.137452126E0,8.304883003E0,5.080862045E-1
9.371374214E1,-1.910168171E0,1.229817486E1,9.691200256E0
9.376374214E1,6.792462349E0,6.123911381E0,1.714808345E0
9.381374214E1,2.249921227E1,-3.464277267E1,1.657538223E1
9.386374214E1,3.944404602E0,-4.346236801E1,1.930096149E-1
9.391374214E1,-5.926185608E0,3.224184275E0,-6.770524979E0
9.396374214E1,-5.751496792E0,1.143512344E1,-8.474236488E0
9.401374214E1,-9.046922684E0,1.391514778E1,-1.886198997E1
9.406374214E1,-7.344304085E0,1.834218025E1,-1.211433983E1
9.411374214E1,-2.196053505E0,-2.632384300E-1,2.781440735E1
9.416374214E1,-6.619997978E0,6.155888081E0,-1.880360413E1
9.421374214E1,-8.974072456E0,-1.863404083E1,-1.618931770E1
9.426374214E1,5.832771778E0,-2.607049179E1,-3.556705475E0
9.431374214E1,3.523737335E1,-3.591018677E1,-1.657881927E1
9.436374214E1,7.788055420E0,1.036325455E0,9.155627489E-1
9.441374214E1,-5.789919853E0,1.826741791E1,1.815587997E1
9.446374214E1,8.425553322E0,8.517187119E0,4.617486000E0
9.451374214E1,2.216164589E0,1.068426800E1,8.066391945E0
9.456374214E1,-2.150206566E-1,8.532264709E0,2.731379986E0
9.461374214E1,1.814983368E1,-1.504403019E1,8.140989304E0
9.466374214E1,1.069651699E1,-6.282440186E1,5.419283867E0
9.471374214E1,-4.929018974E0,-6.864958763E0,-9.590201378E0
9.476374214E1,-4.540637016E0,1.315148544E1,-5.274409771E0
9.481374214E1,-6.503043175E0,1.396150398E1,-1.675021935E1
9.486374214E1,-6.281246185E0,1.760889244E1,-1.723497772E1
9.491374214E1,-6.287816048E0,1.137432289E1,-2.930027008E0
9.496374214E1,-4.354185104E0,-7.749901295E0,8.210554123E-1
9.501374214E1,-8.531723022E0,4.936204910E0,-1.467665958E1
9.506374214E1,-3.868834257E0,-3.314262772E1,-1.322294044E1
9.511374214E1,2.295183945E1,-2.386279297E1,-7.685332775E0
9.516374214E1,2.753006363E1,-4.973421097E-1,3.674921417E1
9.521374214E1,-3.682058811E0,5.996841431E0,4.220635891E0
9.526374214E1,1.143629742E1,1.356259346E1,1.222821617E1
9.531374214E1,6.181018353E0,1.115472412E1,2.229422092E0
9.536374214E1,-2.697773933E0,1.130384254E1,8.809114456E0
9.541374214E1,3.022276640E0,4.136474133E0,2.444011688E0
9.546374214E1,2.375928688E1,-2.968738937E1,1.229190922E1
9.551374214E1,5.048363209E0,-4.155142212E1,5.177631378E-1
9.556374214E1,-2.906477451E0,8.114556313E0,-4.272793770E0
9.561374214E1,-5.894806862E0,9.013818741E0,-1.077863693E1
9.566374214E1,-5.314033508E0,1.488244724E1,-2.053691864E1
9.571374214E1,-7.306075096E0,1.561455727E1,-1.315178967E1
9.576374214E1,2.989391804E0,-6.469546318E0,4.279269028E1
9.581374214E1,-1.025601101E1,3.353496075E0,-1.385991669E1
9.586374214E1,-7.861048698E0,-2.664146423E1,-1.846260643E1
9.591374214E1,1.521244621E1,-2.066659927E1,-7.462217331E0
9.596374214E1,3.943505096E1,-2.710636902E1,4.969207001E1
9.601374214E1,1.579469919E0,2.964423180E0,4.312412739E0
9.606374214E1,1.053118420E1,1.641831970E1,1.293643188E1
9.611374214E1,6.055675030E0,9.023940086E0,-8.889636993E-1
9.616374214E1,-8.675358295E-1,1.217147732E1,9.591306686E0
9.621374214E1,4.663932323E-2,9.737841606E0,2.376784801E0
9.626374214E1,1.980673027E1,-1.362443733E1,3.531926155E0
9.631374214E1,9.486845016E0,-5.618323517E1,9.014534950E-1
9.636374214E1,-7.160660744E0,-8.381658554E0,-5.835816383E0
9.641374214E1,-7.690509796E0,1.197898579E1,-4.112491131E0
9.646374214E1,-1.018614388E1,1.010470200E1,-9.496147156E0
9.651374214E1,-1.050267220E1,1.393673515E1,-1.068709183E1
9.656374214E1,-2.175275564E0,1.049569893E1,3.229993439E1
9.661374214E1,-5.340260029E0,3.858494759E0,-1.916403770E1
9.666374214E1,-7.991471291E0,-1.981139183E-1,-1.009831619E1
9.671374214E1,4.086517334E0,-3.041356659E1,-4.100614548E0
9.676374214E1,2.962794876E1,-2.947148895E1,-1.699246788E1
9.681374214E1,6.647112846E0,-1.270641327E0,-1.928522587E0
9.686374214E1,-3.070598125E0,1.625851059E1,2.001422310E1
9.691374214E1,1.041645432E1,6.896714687E0,5.735880852E0
9.696374214E1,-5.137171745E-1,1.017124367E1,7.018800735E0
9.701374214E1,-3.744841814E0,8.365253448E0,3.564944744E0
9.706374214E1,1.638432121E1,-1.041316795E1,-1.754879475E0
9.711374214E1,1.424160767E1,-5.934034348E1,5.118846893E-1
9.716374214E1,-5.723474979E0,-1.852330017E1,-1.091346550E1
9.721374214E1,-3.116309643E0,1.352733898E1,-3.986577034E0
9.726374214E1,-8.882464409E0,9.138090134E0,-1.190025711E1
9.731374214E1,-8.756910324E0,1.355594826E1,-1.099489403E1
9.736374214E1,-5.326982021E0,1.071382999E1,-6.859507084E0
9.741374214E1,2.160286903E-1,-4.046839237E0,-6.340972424E0
9.746374214E1,-7.127220154E0,5.835108757E0,-8.004963875E0
9.751374214E1,-2.809863567E0,-3.387527084E1,-1.282837200E1
9.756374214E1,2.586901665E1,-2.872275543E1,-6.905721188E0
9.761374214E1,1.737254906E1,-2.400967598E0,4.482684326E1
9.766374214E1,-5.102504730E0,7.455921650E0,8.378948212E0
9.771374214E1,1.366781521E1,1.144475174E1,1.070855236E1
9.776374214E1,5.847158432E0,1.147585869E1,3.977919102E0
9.781374214E1,-3.083465576E0,1.085648155E1,6.463713646E0
9.786374214E1,3.470873594E0,5.909604549E0,3.040368795E0
9.791374214E1,2.326448059E1,-3.231726456E1,1.585513687E1
9.796374214E1,-1.785798550E0,-3.730241394E1,-5.767641068E0
9.801374214E1,-8.433604240E-1,9.774317741E0,-3.233555794E0
9.806374214E1,-4.461934566E0,1.085458183E1,-1.049762344E1
9.811374214E1,-4.214866638E0,1.659442520E1,-2.539880753E1
9.816374214E1,-6.882200241E0,1.327640724E1,-1.223211098E1
9.821374214E1,-2.263451338E0,-1.749078274E0,3.465478516E1
9.826374214E1,-8.827226639E0,4.976682663E0,-1.578181171E1
9.831374214E1,-1.069113541E1,-2.322497177E1,-1.777794456E1
9.836374214E1,9.324420929E0,-2.285225105E1,-4.956302643E0
9.841374214E1,4.148547745E1,-3.312326813E1,-1.503054619E1
9.846374214E1,7.404177666E0,2.013171196E0,1.156538677E1
9.851374214E1,-1.660822034E0,1.786963272E1,1.417555523E1
9.856374214E1,5.846255302E0,8.691240311E0,2.166377544E0
9.861374214E1,2.699878216E-1,1.233689880E1,8.140347481E0
9.866374214E1,-3.547395468E-1,9.476925850E0,2.038054705E0
9.871374214E1,1.846129417E1,-1.643398666E1,8.310365677E0
9.876374214E1,1.452594566E1,-5.133773804E1,-7.793619156E0
9.881374214E1,-6.285659790E0,-1.125800610E1,-5.756897926E0
9.886374214E1,-6.809431076E0,1.002590561E1,-8.300670624E0
9.891374214E1,-8.661792755E0,1.004429436E1,-1.451673889E1
9.896374214E1,-9.116600990E0,1.357519341E1,-7.550143242E0
9.901374214E1,-1.463632584E-1,3.346190453E0,3.026298523E1
9.906374214E1,-5.908979893E0,5.146461487E0,-2.159025192E1
9.911374214E1,-8.591108322E0,-5.523190498E-1,-1.001186180E1
9.916374214E1,5.636563301E0,-2.894283295E1,-8.070056915E0
9.921374214E1,3.243078232E1,-3.388462067E1,-1.918165207E1
9.926374214E1,1.566355705E1,1.345309258E0,1.844140053E1
9.931374214E1,-4.472231865E0,1.285054016E1,9.800127029E0
9.936374214E1,7.764632225E0,9.646459579E0,4.737033367E0
9.941374214E1,3.677103281E0,1.244807625E1,1.037850475E1
9.946374214E1,-1.817638159E0,8.548058510E0,4.161807060E0
9.951374214E1,1.383104897E1,-5.530682564E0,1.790486813E0
9.956374214E1,2.135557365E1,-4.002521133E1,3.231080055E0
9.961374214E1,-5.349361420E0,-2.466270065E1,-7.227274895E0
9.966374214E1,-4.617455482E0,1.026621819E1,-4.543303490E0
9.971374214E1,-8.147320747E0,9.344252586E0,-9.767992020E0
9.976374214E1,-8.838535309E0,1.488292789E1,-7.126004219E0
9.981374214E1,-5.344762802E0,1.258010197E1,-7.519443989E0
9.986374214E1,2.278523445E-1,-4.211252213E0,2.306869030E0
9.991374214E1,-7.697949409E0,4.263905525E0,-9.842457771E0
9.996374214E1,-5.959896088E0,-3.324933624E1,-1.439444351E1
1.000137421E2,2.036208534E1,-2.264707375E1,-4.404463291E0
1.000637421E2,1.979715919E1,-2.163397789E0,5.931532288E1
1.001137421E2,-5.124732971E0,8.006694794E0,5.670945644E0
1.001637421E2,9.573703766E0,1.636070633E1,1.021549129E1
1.002137421E2,9.114425659E0,1.285318089E1,1.035869980E1
1.002637421E2,-1.003222585E0,1.139825439E1,5.887112617E0
1.003137421E2,5.683947086E0,7.502069473E-1,1.674858689E0
1.003637421E2,2.186931992E1,-3.940185928E1,1.253067780E1
1.004137421E2,-2.812385559E-3,-2.960730934E1,-4.607445717E0
1.004637421E2,-1.442280769E0,7.369778633E0,-4.482460022E0
1.005137421E2,-3.157865047E0,9.127258301E0,-1.100732994E1
1.005637421E2,-9.372892380E0,1.349775887E1,-2.541475487E1
1.006137421E2,-9.218420982E0,1.159809208E1,-1.109553337E1
1.006637421E2,-1.972083926E0,-5.530394077E0,2.655136490E1
1.007137421E2,-9.244873047E0,7.370316505E0,-1.393201637E1
1.007637421E2,-1.265400696E1,-2.870957947E1,-2.226652908E1
1.008137421E2,1.149009991E1,-2.641911697E1,-2.889652252E0
1.008637421E2,4.067533112E1,-3.493278122E1,-2.001428986E1
1.009137421E2,7.750689030E0,3.412424088E0,6.522700310E0
1.009637421E2,1.522243321E-1,2.023690224E1,1.351396179E1
1.010137421E2,7.768448353E0,7.274005413E0,3.320919275E0
1.010637421E2,4.138018131E0,1.252637291E1,1.011832237E1
1.011137421E2,4.012039185E0,7.882205009E0,3.738796234E0
1.011637421E2,1.945137024E1,-1.771998024E1,7.022726059E0
1.012137421E2,9.332351685E0,-6.742009735E1,-3.280431986E0
1.012637421E2,-7.856693745E0,-6.550049305E0,-7.722156525E0
1.013137421E2,-2.934232235E0,1.454534721E1,-3.704521656E0
1.013637421E2,-6.172603607E0,1.167444611E1,-1.578841972E1
1.014137421E2,-7.812554836E0,1.488160992E1,-1.264429092E1
1.014637421E2,1.261023045E0,5.430908680E0,7.347754669E1
1.015137421E2,-6.201687336E0,1.442434311E0,-1.944635582E1
1.015637421E2,-1.554068279E1,-1.724140549E1,-1.910855293E1
1.016137421E2,3.551490784E0,-2.441694260E1,-3.011532307E0
1.016637421E2,2.873745728E1,-3.446160507E1,-7.579999447E0
1.017137421E2,7.177822113E0,3.869237900E-1,1.764132977E-1
1.017637421E2,-6.284970284E0,1.562544250E1,1.690312004E1
1.018137421E2,1.026591206E1,6.930875778E0,5.893044949E0
1.018637421E2,5.603172302E0,1.139911461E1,7.446706772E0
1.019137421E2,2.014809608E0,9.521346092E0,5.392996311E0
1.019637421E2,1.543875313E1,-5.590379715E0,-5.955613852E-1
1.020137421E2,1.381885529E1,-5.519717789E1,-4.976761818E0
1.020637421E2,-3.503998756E0,-1.938310242E1,-7.098708153E0
1.021137421E2,-4.488530159E0,1.116135597E1,-5.045798779E0
1.021637421E2,-6.824742317E0,9.436017990E0,-1.256652832E1
1.022137421E2,-8.394673347E0,1.728852463E1,-1.397599697E1
1.022637421E2,-6.904045105E0,1.400098896E1,-1.128420544E1
1.023137421E2,-1.168008327E0,-9.634488106E0,4.235438824E0
1.023637421E2,-8.743153572E0,3.113040924E0,-6.282217979E0
1.024137421E2,-1.146562195E1,-3.393884277E1,-1.440354347E1
1.024637421E2,1.946877861E1,-2.342247581E1,-1.417508411E1
1.025137421E2,4.394789505E1,-9.889848709E0,6.851327515E1
1.025637421E2,1.824191809E0,3.707216263E0,1.221253395E0
1.026137421E2,8.502573013E0,1.818546295E1,1.373739433E1
1.026637421E2,6.692275047E0,7.698828697E0,-4.772186279E-3
1.027137421E2,7.821440697E-3,1.187235069E1,9.677043915E0
1.027637421E2,3.356899023E0,7.816364288E0,2.245611668E0
1.028137421E2,2.245700455E1,-2.431985474E1,1.251789665E1
1.028637421E2,8.117292404E0,-5.186699295E1,-5.638220787E0
1.029137421E2,-5.164797783E0,-4.017451763E0,-5.850849152E0
1.029637421E2,-7.461383343E0,1.199270821E1,-8.288036346E0
1.030137421E2,-6.714127541E0,1.274894524E1,-1.623968697E1
1.030637421E2,-9.135713577E0,1.611034775E1,-1.334500504E1
1.031137421E2,-1.102984667E0,6.697006226E-1,2.935050774E1
1.031637421E2,-8.188032150E0,2.221079350E0,-2.112313652E1
1.032137421E2,-8.901746750E0,-7.062715530E0,-1.374980736E1
1.032637421E2,4.456618786E0,-2.715561676E1,-9.491330147E0
1.033137421E2,3.366867828E1,-3.111868095E1,-1.864236259E1
1.033637421E2,1.018451691E1,3.058214188E-1,1.486410713E1
1.034137421E2,-3.023516178E0,9.315580368E0,8.450336456E0
1.034637421E2,1.081214333E1,9.704330444E0,1.077518654E1
1.035137421E2,4.875119209E0,1.290614319E1,7.196352005E0
1.035637421E2,-2.633536577E0,1.124635029E1,6.343644142E0
1.036137421E2,3.904094219E0,2.847262383E0,3.653779924E-1
1.036637421E2,2.587208939E1,-4.328014755E1,1.194854927E1
1.037137421E2,2.220385075E0,-3.522631836E1,-2.323338032E0
1.037637421E2,-3.010328054E0,1.013329983E1,-4.838375568E0
1.038137421E2,-6.990370750E0,8.943645477E0,-1.094661808E1
1.038637421E2,-6.215499878E0,1.735645294E1,-2.051249695E1
1.039137421E2,-9.409976959E0,1.598102093E1,-1.440240574E1
1.039637421E2,1.095438957E0,-1.228328514E1,4.074621582E1
1.040137421E2,-7.683408737E0,6.595222473E0,-1.303644180E1
