Time window,Time (s)_acc,Time (s)_gyro,Time (s)_mag,Time (s)_lin_acc,Time (s)_prox,Acceleration x (m/s^2),Acceleration y (m/s^2),Acceleration z (m/s^2),Gyroscope x (rad/s),Gyroscope y (rad/s),Gyroscope z (rad/s),Magnetic field x (µT),Magnetic field y (µT),Magnetic field z (µT),Linear Acceleration x (m/s^2),Linear Acceleration y (m/s^2),Linear Acceleration z (m/s^2),Distance (cm)
0.03,,0.053242295,,,,,,,0.2015796006,-0.36498123409999994,-0.7146912812999999,,,,,,,
0.06,0.071832139,,,,,2.911766052,3.6696925160000005,7.831708431,,,,,,,,,,
0.09,,0.10501088900000001,,0.113742139,,,,,0.11422843490000001,-0.5624375939,-0.4417952895,,,,0.12674450869999998,0.2373166084,0.7481980323999999,
0.12,0.121832139,,0.122978806,,,3.184846878,3.9807596210000002,8.880363464,,,,1.32980001,-45.26199722,-28.84079933,,,,
0.15,0.171832139,0.155811045,0.172978806,0.163742139,,2.8040890689999998,4.148257256,6.143871307,0.1230857223,-0.4611896873,-0.2559449971,1.439599991,-45.40839767,-28.63339996,-0.204501152,0.1560893059,-1.265532017,
0.18,,0.206612087,,,,,,,0.04459185153,-1.489703774,-0.1821851879,,,,,,,
0.21,0.22183213899999998,,0.222978806,0.213742139,,2.796910524,4.29691124,6.687341213,,,,1.15899992,-45.51819992,-28.32839966,-0.63595891,-0.06874227524,-0.6672606468,
0.24,,0.257413858,,0.263742139,,,,,-0.061542861160000004,-2.340308666,-0.16309621929999998,,,,-0.5407147407999999,-0.617036581,-0.09239912033,
0.27,0.271832139,,0.272978806,,,3.8168511389999997,3.075674295,6.576972007999999,,,,0.5367999673,-45.57920074,-27.92580032,,,,
0.3,0.32183213899999996,0.308214847,0.322978806,0.313742139,,5.93778944,3.885046721,6.375975132000001,-0.4046863019,-1.595533013,0.054823540149999996,-0.3659999967,-45.4937973,-27.48659897,1.4481582640000001,0.256664753,0.08040523529,
0.32999999999999996,,0.35901500399999997,,,,,,,-1.418692708,-0.7925743461,0.1072036922,,,,,,,
0.36,0.371832139,,0.372978806,0.36374213899999996,,5.226821899,3.3104701039999997,7.209275722999999,,,,-1.2078000309999999,-45.23759842,-27.44999886,0.3779368401,0.2885735035,0.08738040924000001,
0.39,,0.409815624,,0.413742139,,,,,-2.158428907,0.6879667044,-0.10201149429999999,,,,-1.073194265,-0.680685997,-0.2459344864,
0.42,0.421832139,,0.422978385,,0.428258385,4.223630905,2.446063042,7.120441914,,,,-1.6591999530000001,-44.63980103,-27.97459984,,,,5.0
0.44999999999999996,0.471832139,0.460617395,0.472978385,0.463742139,,5.073681355,1.213161111,8.157132149,-3.105700254,-1.193748236,-0.7330167294,-1.915399909,-43.73699951,-28.87739944,0.6805000305,-0.2929230928,0.7717666626,
0.51,0.521832139,0.511418385,0.522978385,0.513742139,,3.223132133,-0.8001000881,9.529116631,-1.907828689,-0.8031114340000001,-0.169204697,-2.696199894,-42.11439896,-30.24379921,-2.622232437,-2.7769179339999996,0.863697052,
0.54,,0.562218541,,0.563742139,,,,,-1.3334795240000001,0.01221694518,0.8773293495000001,,,,-2.843146801,-4.557638645,-2.112608433,
0.57,0.571832139,,0.572978385,,,2.4017956259999997,-4.994718075,4.025026798,,,,-3.635599852,-40.08919907,-31.84199905,,,,
0.6,0.621832139,0.613019635,0.622978385,0.613742139,,3.603590965,-3.5629129410000004,5.356034279,-2.86059761,-0.005192201585,1.25758183,-4.562799931,-37.45399857,-33.79399872,-0.03750991821000001,-3.574329376,-1.469793797,
0.6599999999999999,0.671832139,0.663821405,0.672978385,0.663742139,,7.829315662000001,-7.6091761589999996,6.076872348999999,-2.855100155,-0.6397097707,1.68578577,-5.551000117999999,-33.72079849,-36.19739914,1.095450401,-3.8762876989999997,-1.608175278,
0.69,,0.714622447,,0.713742139,,,,,-2.697196007,0.7774558663,0.596339643,,,,3.661390305,-2.286271095,2.1081104280000003,
0.72,0.7218321390000001,,0.722978385,,,7.867600918,-6.584449768,7.48445034,,,,-6.319600105,-29.12139893,-38.95459747,,,,
0.75,0.771832139,0.765422603,0.772978385,0.7637421390000001,,10.33101177,-5.226821899,10.02712345,-2.237380743,-0.345128715,1.057834744,-6.844199657000001,-23.89979935,-41.61420059,4.4979543689999995,-0.9741201401,3.00164175,
0.8099999999999999,0.8218321390000001,0.8162236970000001,0.822978385,0.813742139,,11.64556885,-4.247858524,9.885647774,-1.425564766,-0.9741486906999999,0.8156337737999999,-7.746999741000001,-18.28779984,-43.68819809,6.416357994,1.682215691,4.831235409,
0.84,,0.86702552,,0.8637421390000001,,,,,-0.8541171551000001,-1.105022669,0.1220167428,,,,4.592266083,3.1208817960000004,5.1409316060000005,
0.87,0.871832139,,0.872978385,,,10.21376324,-2.883052111,9.907182693,,,,-8.991399765,-12.73680019,-45.07899857,,,,
0.8999999999999999,0.921832139,0.917826562,0.922978385,0.913742139,,10.19462109,-1.61665082,11.02522945,0.2032594234,-1.752215385,-0.053449135269999996,-10.51639938,-7.722599982999999,-45.62799835,4.114554882,4.4466533660000005,6.1901788710000005,
0.96,0.9718321390000001,0.96862677,0.972978385,0.963742139,,7.055835724,-2.612663269,6.699305057999999,0.1522536725,-1.209935665,-0.6166502832999999,-12.29759979,-3.12319994,-45.72559738,0.7216062545999999,2.67345047,2.148721218,
0.99,,1.019427812,,1.013742139,,,,,0.0838387832,-0.7354601026,-0.9555178284999999,,,,-0.6325602531,1.42399025,1.630764961,
1.02,1.021832139,,1.022978385,,,6.512365817999999,-3.883850336,6.088836193,,,,-14.24959946,0.7197999954000001,-45.34740067,,,,
1.05,1.071832139,1.070229687,1.072978385,1.0637421390000001,,6.320940018,-4.712066173999999,5.451747417000001,0.054059982300000003,-0.6452074051,-1.128845692,-16.05520058,3.23300004,-44.46899796,-1.251085281,0.2801604271,1.999685287,
1.1099999999999999,1.1218321390000001,1.121030728,1.122978385,1.113742139,,9.033503532000001,-2.1122641559999997,5.60279417,0.1424801201,-0.7275190949,-0.9518527389,-17.94619942,4.6237998010000005,-43.24900055,-0.07732391357000001,1.079572201,1.9351673130000002,
1.14,,,,1.163742139,,,,,,,,,,,0.31594944,-0.5396358967,-1.228940487,
1.17,1.1718321390000002,1.171830937,1.172978385,,,9.222537041,-3.9221353530000003,3.608376503,-0.4521796703,0.1702736765,-0.8892409204999999,-19.98359871,5.0995998380000005,-41.79719925,,,,
1.2,1.221832139,1.22263203,1.222978385,1.213742139,1.227142135,5.789434432999999,-4.295714855,0.9125627279,-1.085933685,0.7870767117,-1.093721986,-21.69159889,4.697000027,-40.55279922,-1.264910698,-0.6077392101,-1.347292185,0.0
1.26,1.271832139,1.273433853,1.272978385,1.263742139,,6.52193737,-3.536591768,3.634697676,-1.251931429,1.585148692,-0.49035763740000005,-22.86279869,4.026000023,-39.73539734,-2.4319972990000003,-0.7355575562000001,-1.8688845630000002,
1.29,,,,1.3137421390000001,,,,,,,,,,,-0.07898664474,1.402894974,2.389367104,
1.3199999999999998,1.321832139,1.324234947,1.322978385,,,7.941778182999999,-2.988336325,5.6937212939999995,-0.32252734899999996,0.7704311012999999,-0.27976804969999997,-23.25319862,3.379400015,-39.46699905,,,,
1.3499999999999999,1.3718321390000001,1.375035155,1.372978385,1.363742139,,7.965706347999999,-2.526521683,5.691328526,0.32252734899999996,0.2267770469,0.055281676349999996,-23.05799866,2.793799877,-39.51580048,-0.5201420784,1.694547534,1.7749643330000002,
1.41,1.4218321390000002,1.425836249,1.422978385,1.413742139,,9.66550827,-3.9340994360000003,7.1156563760000004,0.1270562261,-0.8243383765000001,0.1432436854,-22.5821991,2.281399965,-39.86959839,2.1835737230000003,-0.690237999,2.065148354,
1.44,,,,1.463742139,1.460835885,,,,,,,,,,2.6331491469999997,-1.5324685569999998,0.4177384377,5.0
1.47,1.471832139,1.4766383840000001,1.472978645,,,10.28315544,-5.353940487,3.812065601,-0.353527844,-0.387124449,-0.33688226340000005,-22.15519905,1.988600016,-40.21120071,,,,
1.5,1.521832139,1.527439478,1.522978645,1.513742139,,8.391927719,-6.560521603,3.6490545269999997,-0.7333221436,0.3555130959,0.2716743052,-21.59399986,2.000799894,-40.79679871,-0.02051353455,-2.6340806480000003,-0.8880317211,
1.56,1.571832139,1.5782396859999999,1.572978645,1.5637421390000001,,7.561020374,-5.34676218,0.4100699723,-1.811620235,0.8912261723999999,-0.055892523379999996,-20.77659988,2.391200066,-41.62639999,0.1438388824,-1.1085984709999999,-3.907846451,
1.5899999999999999,,,,1.613742139,1.6105700509999998,,,,,,,,,,-1.105845451,-1.026756763,-3.264565945,0.0
1.6199999999999999,1.6218321390000001,1.629040728,1.622978541,,,7.647161961,-1.6214364769999998,-0.5620142221,-2.2689921859999997,0.1827960461,-0.20234315100000003,-19.86159897,3.367199898,-42.39500046,,,,
1.65,1.6718321390000002,1.6798426030000002,1.672978541,1.663742139,,7.99202776,-4.688137531000001,3.737588882,-1.9486027959999999,-1.8940846919999998,0.1844758689,-19.37360001,4.79460001,-42.66339874,-0.30119705199999997,1.270542622,-2.771911621,
1.71,1.721832139,1.7306436969999999,1.722978541,1.713742139,,7.558627605,-3.603590965,2.325225353,-1.7635160680000002,-1.5229948759999998,1.010799527,-19.61759949,6.587999821,-42.15100098,1.190304756,1.1469702720000001,0.88565135,
1.74,,,,1.763742139,,,,,,,,,,,-0.7832403183,0.5103998184,0.7260034084,
1.77,1.771832139,1.781443905,1.7729785409999999,,,7.479664326,-4.752744198,1.257428288,-0.7562289238,-0.8032641411,2.4997396469999997,-20.2276001,9.052399635,-41.01639938,,,,
1.7999999999999998,1.821832139,,1.822978541,1.8137421390000001,,8.396714211,-2.538485765,4.403391838,,,,-20.55699921,12.21220016,-39.64999771,-1.5653438569999998,4.263103962,2.318842649,
1.8299999999999998,,1.8322451030000002,,,,,,,-0.3564293683,1.94524312,3.5997228619999997,,,,,,,
1.8599999999999999,1.8718321390000001,1.883046978,1.872978541,1.863742139,,6.50758028,-5.190929413,-2.108675003,-1.2435323,1.25498569,0.6459710002,-19.77619934,15.90880013,-38.67399979,1.157621861,3.3893165589999996,-1.272171617,
1.89,,,,1.913742139,,,,,,,,,,,-0.2899942398,-1.037050247,-3.38371253,
1.92,1.9218321390000002,1.933848072,1.922978541,,,5.116752148,-8.806185722,-1.1126625540000001,-1.6140111680000002,-0.5570927261999999,0.3312319219,-18.59280014,19.87380028,-37.52719879,,,,
1.95,1.971832139,,1.972978541,1.963742139,,6.014658927999999,-5.47597456,0.3882354796,,,,-17.64119911,23.92420006,-35.85580063,0.2862148285,1.236800671,0.7330673933,
1.98,,1.984648332,,,,,,,-0.5401417017,-1.936080337,1.370588541,,,,,,,
2.01,2.0218321390000003,2.0354494780000003,2.022978541,2.013742139,,1.961217284,-6.460022926000001,-2.441576481,-2.0852799419999997,-4.133756161,3.834288359,-16.82379913,27.82819939,-33.70859909,-1.861119032,2.778984547,-1.713360906,
2.04,,,,2.063742139,,,,,,,,,,,5.219632149,-1.879635811,6.001085757999999,
2.07,2.071832139,2.086251405,2.072978541,,,10.54666519,-13.23051453,7.340880871,0.03955236077,-1.603474021,1.597518325,-15.55499935,31.6833992,-31.06119919,,,,
2.1,2.121832139,,2.1229785409999997,2.113742139,,5.308177948,-18.36820412,2.279761791,,,,-13.6395998,35.14820099,-28.91399956,4.736375809,-10.33453083,8.992546082,
2.13,,2.137052499,,,,,,,2.711703777,1.155570269,-0.004581354558,,,,,,,
2.16,2.171832139,2.187852811,2.172978541,2.163742139,,4.755136966999999,-11.26002502,2.796910524,2.9685649869999997,2.728043795,-0.1430909634,-11.15079975,37.51499939,-28.13319969,1.1186199190000001,-2.114940643,3.131069422,
2.19,,,,2.2137421390000003,,,,,,,,,,,6.44555378,-5.636279106,-7.646130562000001,
2.2199999999999998,2.221832139,2.238653957,2.222978541,,,9.605687141,-15.23420429,-7.454838753,2.534099817,1.2154333590000002,-0.7243121266,-8.344799995,38.69839859,-28.30399895,,,,
2.25,2.2718321390000003,,2.272978541,2.263742139,,8.08295536,-15.34906006,-3.492324591,,,,-6.136600017999999,38.72279739,-28.80419922,5.577103615,-7.283585548,-7.461847305,
2.28,,2.289455884,,,,,,,0.2348707765,1.429382563,-0.6997255087,,,,,,,
2.31,2.321832139,,2.322978541,2.313742139,,2.643769979,-12.30389404,3.684946775,,,,-4.001599789,38.30799866,-29.36540031,0.4633362293,-3.786253929,3.787267685,
2.34,,2.34025703,,2.363742139,,,,,1.5179554219999998,4.023039818,-0.1774511337,,,,-2.168889046,2.226629734,-8.266857147,
2.37,2.371832139,2.391057291,2.3729785409999997,,,0.05324030295,-6.067300797000001,-5.108377457,1.56651783,0.6059604882999999,-0.06597150117,-1.073599935,37.27099991,-30.41459846,,,,
2.4,2.421832139,,2.422978541,2.413742139,,1.896611094,-2.42572403,-2.201995134,,,,2.086199999,35.58739853,-32.15919876,-0.7206830978000001,5.452564716,-6.826393127,
2.4299999999999997,,2.441858489,,,,,,,-0.41232189539999997,1.786728263,-1.194817185,,,,,,,
2.46,2.471832139,,2.472978541,2.4637421390000003,,3.088835001,-4.420141697,-1.6680965419999998,,,,5.111799717,33.50119781,-34.44059753,2.62458539,4.642229557,-5.9009385110000006,
2.4899999999999998,,2.492660416,,2.513742139,,,,,-0.8205205798,1.5784293409999999,-0.6346703172,,,,0.2879319191,4.190624237,-3.627617598,
2.52,2.5218321390000003,2.543461561,2.522978541,,,0.3499503136,-4.992325306000001,1.6286149019999998,-0.7223268747,2.288539171,-0.9217684865000001,8.03979969,31.65899849,-36.35599899,,,,
2.55,2.571832139,,2.572978541,2.563742139,,-0.3490529954,-5.36111927,4.893920422,,,,10.67500019,30.53660011,-37.18560028,-3.260200024,3.034341812,-1.5933876040000001,
2.58,,2.594261874,,,,,,,-0.4234698713,1.748092175,-0.7434011102,,,,,,,
2.61,2.621832139,,2.6229795830000002,2.613742139,2.635850572,6.210870266000001,-14.5758791,11.06830025,,,,12.90759945,30.2071991,-36.81959915,2.9436166289999997,-4.337855339,6.551782131,5.0
2.6399999999999997,,2.645064114,,2.663742139,,,,,0.3817795515,0.0531437099,-1.6057647469999998,,,,2.452190399,-1.0728693009999999,4.310630322,
2.67,2.671832139,2.6958660930000002,2.672979583,,,5.145465851,-8.181359291,11.95663548,0.5496098399,1.364938259,-1.4057122469999999,14.60339928,30.68299866,-35.80699921,,,,
2.6999999999999997,2.7218321389999995,,2.7229795830000003,2.713742139,,3.1247272489999998,-15.52642822,-17.19392586,,,,15.81120014,31.36619949,-34.89199829,2.047784567,-5.916737556,-19.5961647,
2.73,,2.7466672389999998,,,,,,,-1.239409089,0.6015318632,-0.3657447994,,,,,,,
2.76,2.771832139,,2.772979583,2.7637421389999997,,-2.484647274,-8.059026718,-0.7465606928,,,,16.11619949,32.54959869,-33.65979767,-7.044195175,-1.2294731140000001,1.4100027080000002,
2.79,,2.7974675510000004,,2.813742139,,,,,-1.3934953209999998,1.031568289,0.271368891,,,,-3.321075439,-6.388332367,-4.680779457,
2.82,2.8218321389999996,2.848268801,2.822979583,,,-0.3873381615,-18.85663795,-1.51256299,-1.1395355459999998,0.4004103839,1.089598775,16.32359886,34.3429985,-31.64679909,,,,
2.85,2.871832139,,2.8729795830000002,2.8637421389999997,,10.18505001,-10.23529911,-0.08315058798,,,,16.61639977,36.06319809,-29.52400017,9.825425147999999,-2.2786502840000002,0.8034985065000001,
2.88,,2.8990707280000003,,,,,,,-3.097148418,0.028098974380000002,-0.5430431962,,,,,,,
2.9099999999999997,2.9218321389999997,,2.922979583,2.9137421389999996,,1.4488540890000001,-8.351249695,3.780958891,,,,16.50659943,37.80780029,-26.86439896,0.7644600868000001,1.004037857,-1.151786089,
2.94,,2.949871926,,2.963742139,,,,,-2.511498451,0.1319430023,-0.06963659078,,,,-3.792199135,4.655281544,5.88164854,
2.9699999999999998,2.9718321389999995,,2.9729795830000003,,,-1.1820544,-5.023432255,4.934897423,,,,16.1406002,39.51580048,-23.74119949,,,,
3.0,3.021832139,3.0006722389999996,3.022979583,3.0137421389999997,,2.499901533,-6.869195461,3.869493246,-0.7986828089,-2.942756653,0.7443174123999999,15.57940006,40.96759796,-20.86199951,-0.345906496,2.698194027,1.7087472680000002,
3.03,,3.0514734889999997,,,,,,,-0.5925218463,-2.391314268,0.5812211633,,,,,,,
3.06,3.0718321389999996,,3.072979583,3.063742139,,3.9987056260000005,-7.989634991,-0.7322037220000001,,,,15.31099987,42.21199799,-18.1901989,1.903835535,1.655948639,2.040577173,
3.09,,3.102275468,,3.1137421389999997,,,,,-0.7192726731,-2.3968119619999997,0.07956285775000001,,,,3.76440239,3.2712183,-2.0973131659999997,
3.12,3.121832139,,3.1229795830000002,,,5.073681355,-6.838088989,-2.7670001980000003,,,,11.08979988,42.73659897,-15.48180008,,,,
3.15,3.1718321389999997,3.153076666,3.172979583,3.1637421389999996,,1.87268281,-11.67188931,1.417747378,-1.141062737,-1.898818731,0.2707580328,11.16300011,43.77359772,-12.80999947,-1.005192876,-1.7103405,2.392175913,
3.1799999999999997,,3.203877031,,,,,,,-2.292051554,4.158801079,0.649941504,,,,,,,
3.21,3.2218321389999995,,3.2229795830000003,3.213742139,,7.587341309,-13.12493134,13.81675625,,,,11.08979988,44.60319901,-9.881999968999999,4.824501991,-2.4987716669999998,10.58797932,
3.2399999999999998,,3.2546782810000003,,3.2637421389999997,,,,,2.574263096,2.146517277,1.08517015,,,,-1.132777214,-6.091249466,13.98515511,
3.27,3.271832139,,3.272979583,,,3.294916868,-13.02443314,6.55782938,,,,10.83360004,45.32299805,-6.892999649,,,,
3.3,3.3218321389999996,3.30548026,3.322979583,3.313742139,,5.188536644,-11.31505966,-5.685346602999999,4.79224968,-1.165954709,-0.05772506446,10.95559978,45.33519745,-5.843800067999999,3.631492376,-1.751038551,-3.158942938,
3.33,,3.35628151,,,,,,,2.173699856,1.995179892,-0.38300123810000003,,,,,,,
3.36,3.371832139,,3.3729795830000002,3.3637421389999997,,4.2690944669999995,-13.30708504,0.022133609280000004,,,,11.3093996,45.24979782,-6.966199875,2.3241028790000002,-3.423033714,-4.162801743,
3.3899999999999997,,3.4070818739999997,,3.4137421389999996,,,,,1.9275285009999998,2.5414299959999997,-0.48898324369999996,,,,6.8885750770000005,-6.838456154,-0.5612561703,
3.42,3.4218321389999997,,3.422979583,,,5.846862316,-20.20439529,6.8500528339999995,,,,11.82180023,45.10339737,-8.466799736,,,,
3.4499999999999997,3.4718321389999995,3.457883124,3.4729795830000003,3.463742139,,5.435296535,-14.51127338,-0.2365903407,2.959096909,-2.467211962,-1.561783671,11.85839939,44.77399826,-10.76039982,0.3473129272,-8.415153502999999,0.019662380219999998,
3.48,,3.5086851560000003,,,,,,,0.31336465480000003,-1.24979353,-1.976854444,,,,,,,
3.51,3.521832139,,3.522979583,3.5137421389999997,,5.401497841,-9.227322577999999,-0.3346960545,,,,9.967399597,43.22459793,-12.59039974,3.212685347,-3.194063187,-5.909718513,
3.54,,3.559486353,,3.563742139,,,,,-0.885728538,-0.08750387281,-0.545486629,,,,-6.310801506000001,5.583220482000001,-5.439014912,
3.57,3.5718321389999996,,3.572979583,,,-3.2578279969999997,-1.47308147,-2.022533417,,,,9.198800087,42.80979919,-14.94499969,,,,
3.5999999999999996,3.621832139,3.61028677,3.6229795830000002,3.6137421389999997,,-1.158126116,1.936092615,-1.028913736,-1.0538642409999999,0.5549547076,1.1493091579999999,8.027600288,42.63899994,-18.20240021,-5.056373119,10.97103596,-5.497525215,
3.6599999999999997,3.6718321389999997,3.661088072,3.672979583,3.6637421389999996,,9.34457016,-0.02452643216,17.54926109,-0.224791795,0.5523586273,0.6342121959,7.161399841000001,42.61459732,-21.60619926,1.067216873,7.73455143,2.1959347719999998,
3.69,,3.711890051,,3.713742139,,,,,-0.03527642787,-0.1006370857,-1.313474298,,,,-5.069299698,1.916072845,0.3166236877,
3.7199999999999998,3.7218321389999995,,3.7229795830000003,,,1.0731809140000002,-4.503890514,2.89980197,,,,5.66079998,42.73659897,-23.70459938,,,,
3.75,3.771832139,3.7626913010000003,3.772979583,3.7637421389999997,,-0.5021936297,-10.63759232,-11.83340549,0.6235223413000001,2.5298240180000002,-1.447708011,4.196799755,43.1269989,-24.71719933,-3.32124114,0.5504808426,-14.54158211,
3.81,3.8218321389999996,3.8134917180000003,3.822979583,3.813742139,,5.454439162999999,-33.98017502,-2.640180588,-2.84028697,-1.165496588,1.3287454840000001,2.281399965,43.65159988,-25.54679871,-1.291769028,-33.24508667,-11.30028343,
3.84,,3.86429302,,3.8637421389999997,,,,,-8.484057426,1.754505992,1.420983434,,,,6.012924194,-12.07506561,-5.932814597999999,
3.8699999999999997,3.871832139,,3.8729795830000002,,,10.84337521,-21.61227417,-5.2163534160000005,,,,1.110199928,45.00579834,-23.22879982,,,,
3.9,3.9218321389999997,3.915095103,3.922979583,3.9137421389999996,,7.26431036,-18.24377632,8.875576973,-2.674594641,-0.3878880143,-0.47814068200000004,0.23179998989999998,45.53039932,-18.10479927,10.53752899,-9.084543228,25.44598389,
3.96,3.9718321389999995,3.965896353,3.9729795830000003,3.963742139,,-7.806583881,-9.371191025,6.299404621,-2.070619583,-0.9617789984,-0.1774511337,0.07320000231000001,46.60400009,-12.6147995,-7.956730843,-2.17818737,4.075666904,
3.9899999999999998,,4.01669677,,4.013742139,,,,,0.1714953631,-1.7615307569999998,0.9888089895000001,,,,-5.3288688660000005,10.61936665,16.21492958,
4.02,4.021832139,,4.022979583,,,-0.01615155302,1.35912323,11.79631615,,,,0.060999996960000004,47.33599854,-6.88079977,,,,
4.05,4.071832139,4.067498072,4.072979583,4.0637421389999995,,4.877470016,-4.348356723999999,-1.957927108,4.16658926,-2.83188796,0.1017060652,0.08540000021,50.77639771,-2.964599848,4.011696815,4.525968552,-0.19319605829999997,
4.109999999999999,4.1218321389999995,4.118300156,4.122979583,4.113742139,,3.2470602989999997,2.1110677719999997,-3.212364435,1.7803143259999998,-0.8128849864,-1.10548079,0.5978000164,51.76459885,0.2561999857,1.3907750840000002,10.2976656,-2.416401386,
4.14,,4.169101406,,4.163742139,,,,,2.881519318,2.70376277,-0.8616000414,,,,1.018585682,9.339689255,11.15487003,
4.17,4.171832139,,4.172979583,,,5.803791522999999,-2.655734062,7.510771275,,,,0.8051999806999999,52.76499939,2.781599998,,,,
4.2,4.221832139,4.219901874,4.222979583,4.213742139,,15.67478275,-25.73241425,2.4448664190000002,2.16041398,4.431696892,-3.1935095789999997,0.9515999556,53.69219971,4.294399738,10.81207657,-10.18334293,-2.534003735,
4.26,4.271832139,4.2707031760000005,4.272979583,4.263742139,,5.990730762,-55.28287888,8.631210327,4.357326031,1.231162667,-2.0102982519999997,0.14640000460000002,53.83860016,2.793799877,5.298977852,-45.01980591,8.153216362,
4.29,,,,4.3137421389999995,,,,,,,,,,,0.29644680019999997,-9.411618232999999,-5.441920757,
4.32,4.321832139,4.32150526,4.322979583,,,6.1845493320000005,-11.56899834,-1.275673628,2.37711215,-0.22647161780000002,-0.5500679612,-0.109799996,53.42379761,-2.281399965,,,,
4.35,4.3718321389999995,4.3723065619999995,4.372979583,4.363742139,,5.799005508,3.3248269560000003,-3.44446826,-0.7154548764,2.591672182,-0.5410579443,-0.9759999514,52.60639954,-8.515600204,1.762904644,8.826221466,-7.694615841,
4.41,4.421832139,4.423107031,4.422979583,4.413742139,,-2.175673962,-1.250249863,-6.00628376,-1.5564388040000001,1.0605835909999999,0.5453338622999999,-1.6957999469999998,52.14279938,-15.05480003,-4.717148781000001,6.293357372000001,-11.90856647,
4.4399999999999995,,,,4.463742139,,,,,,,,,,,-7.451034068999999,9.148071288999999,-10.27685738,
4.47,4.471832139,4.473908385,4.472979583,,,-2.855534792,2.738286495,-6.803392887,-1.880798697,-1.243685007,1.6703618759999999,-2.635200024,51.67919922,-20.11779976,,,,
4.5,4.521832139,4.524710468,4.522979583,4.513742139,,-0.674476862,2.357528448,-3.243471146,-1.350277901,-2.1733944419999998,0.46913069490000003,-3.062199831,50.84959793,-22.75300026,-3.4999847410000005,10.98845863,-8.113929749,
4.56,4.571832139,4.57551177,4.572979583,4.5637421389999995,,0.3547359705,-17.92762566,35.41886139,2.754462957,4.5860886569999995,-0.8098307252,-3.5745999810000004,50.33720016,-25.24180031,1.8358623980000002,-1.4171047209999998,49.47870255,
4.59,,,,4.613742139,,,,,,,,,,,-3.868108988,7.411156654,-17.69569206,
4.62,4.6218321389999995,4.626312239,4.622979583,,,-1.012163997,-1.228714466,-9.410672188,2.400629759,-5.559931755,-0.7229377031,-3.7087998389999997,49.39780045,-27.52319908,,,,
4.6499999999999995,4.671832139,4.6771135930000005,4.672979583,4.663742139,,-2.343171597,-27.12324333,-12.33858967,-0.12583453949999998,-4.306473255,1.3269129990000001,-4.184599876,48.28759766,-29.42639923,-7.79887867,-9.877270699,-17.3625164,
4.71,4.721832139,4.727915728,4.722979583,4.713742139,,17.5755806,-36.00061417,-0.6385845542,-7.362083912,0.6160394549,3.953708887,-5.8193998339999995,47.56779861,-27.98679924,9.702713013,-29.36638641,-5.482658386000001,
4.74,,,,4.763742139,,,,,,,,,,,23.81947708,-15.28597355,-5.811861037999999,
4.77,4.771832139,4.778717031,4.772979583,,,35.11945724,-18.26531219,47.38685989,-3.9752411839999997,-4.778505325,0.7973083854,-5.624199867000001,49.00740051,-24.6439991,,,,
4.8,4.821832139,4.829517551,4.822979583,4.8137421389999995,,5.011467934,-10.13958549,4.609174728,-2.214015961,1.097539783,-0.2249445021,-5.624199867000001,50.42259979,-20.5447998,6.209732056,-0.5558519363000001,7.004854202000001,
4.859999999999999,4.8718321389999995,4.880318906,4.872979583,4.863742139,,-6.964011192,-1.2454642059999999,9.308678627,-1.182447553,0.11224318300000001,0.8463288546,-6.087800026,51.47179794,-16.01860046,-7.777946472000001,4.589483738,6.297293663,
4.89,,,,4.913742139,,,,,,,,,,,1.8822429180000002,7.999520779,4.950503826,
4.92,4.921832139,4.931121041,4.922979583,,,5.042574406,-2.420938253,-0.94277215,2.9363427160000004,1.147323847,-0.137898773,-7.161399841000001,50.65439987,-11.60219955,,,,
4.95,4.971832139,,4.972979583,4.963742139,,3.141477108,3.31525588,-3.49471736,,,,-7.551799774,51.37419891,-8.710800171,0.40690708159999994,10.34144783,-2.512555599,
4.9799999999999995,,4.981922395,,,,,,,1.338060975,0.04001049697,0.3019112647,,,,,,,
5.01,5.021832139,5.032722864,5.022979583,5.013742139,,6.1462640760000005,0.001794616925,5.722435474,3.0563743110000003,2.9697866439999996,-0.7847860456,-7.8811998370000005,52.49659729,-5.538799762999999,1.9275341030000002,11.7300415,6.717597007999999,
5.04,,,,5.0637421389999995,,,,,,,,,,,6.1680407520000005,-3.092305183,-2.395440102,
5.069999999999999,5.071832139,5.08352427,5.072979583,,,11.21216869,-14.53759384,0.45314079520000006,1.8893505330000002,3.516189575,-3.394325495,-7.271199703,53.78979874,-2.9401998519999997,,,,
5.1,5.1218321389999995,,5.122979583,5.113742139,,12.69631672,-54.55007553,6.055336952,,,,-6.685599804,54.16799927,-2.171599865,12.42088318,-39.79982758,-2.7675240039999998,
5.13,,5.1343264060000005,,,,,,,3.2654366489999997,-0.3617742956,-2.1176548,,,,,,,
5.16,5.171832139,5.18512776,5.172979583,5.163742139,,3.076870918,-15.71067524,1.559223056,1.7792453769999999,-0.6962131858,-1.224901438,-7.649399757,53.0943985,-4.63599968,0.23766183850000003,-15.04039764,0.7784118651999999,
5.1899999999999995,,,,5.213742139,,,,,,,,,,,-4.566751957,5.040617943,-7.833810806000001,
5.22,5.221832139,5.2359282810000005,5.222979583,,,1.642971873,-0.13220344480000001,-3.231507063,-1.240325332,1.2268867490000002,0.6936170459000001,-9.088999747999999,51.44739914,-8.503399849,,,,
5.25,5.271832139,,5.272979583,5.263742139,,1.2215359209999999,0.9379864931,-3.4157543180000003,,,,-9.979599953,50.16640091,-13.0661993,-2.87778616,9.394523621,-6.789772511000001,
5.279999999999999,,5.286729687,,,,,,,-1.3994510169999999,0.1634016484,0.8962656259999999,,,,,,,
5.31,5.321832139,5.337531874,5.322979583,5.3137421389999995,,-1.124626637,-1.95164597,-3.2267212869999997,-2.145142794,0.060321167110000004,1.318513751,-10.73600006,48.77560043,-17.23859978,-6.352782726,5.975356102,-6.749078751,
5.34,,,,5.363742139,,,,,,,,,,,-1.539961815,7.833065987,-5.631828307999999,
5.37,5.3718321389999995,5.388333228,5.372979582999999,,,2.813660383,-0.33349967,-1.605883121,2.516537905,0.5544965863,-1.043632507,-11.24839973,48.06800079,-19.59319878,,,,
5.3999999999999995,5.421832139,,5.422979582999999,5.413742139,,1.642971873,-10.64716339,-4.107878208,,,,-11.98040009,47.11639786,-21.87459946,3.4360313419999997,-0.2259707451,19.46842766,
5.43,,5.439133749,,,,,,,0.5121954083,-0.8420529365999999,-0.34344887729999996,,,,,,,
5.46,5.471832139,5.4899352079999995,5.472979583,5.463742139,,-2.982354403,-15.79442406,-7.232007503999999,-1.651272893,-2.575637579,2.309308052,-12.9197998,46.05500031,-23.66799927,-6.490374087999999,-7.556641102,-11.08835602,
5.49,,,,5.513742139,,,,,,,,,,,-7.4152116779999995,-12.93005466,-9.293499947,
5.52,5.521832139,5.540737342999999,5.522979583,,,-1.780559182,-22.11237335,-4.718347073,-3.56017065,0.8373188972,2.797222376,-13.02960014,45.64019775,-24.0340004,,,,
5.55,5.571832139,,5.5729795829999995,5.5637421389999995,,17.29562187,-24.54019165,6.483652115,,,,-11.99259949,46.27460098,-22.42359924,9.878423691,-16.6282711,4.136357783999999,
5.58,,5.591538749,,,,,,,-4.911975384,0.1754658818,0.9300149679,,,,,,,
5.609999999999999,5.6218321389999995,,5.622979582999999,5.613742139,,6.347260952,-13.77398491,0.6302096844,,,,-10.22359943,47.51899719,-18.53179932,9.040278435,-9.156636237999999,3.3718624110000004,
5.64,,5.64233927,,5.663742139,,,,,-1.568655729,-1.7022786140000001,0.46134239439999997,,,,-3.687439442,0.6706190109000001,12.73596382,
5.67,5.671832139,5.6931407279999995,5.672979582999999,,,-1.680060625,-7.254739285,6.222834587,-0.2681619525,-0.7353073955,1.4205253119999999,-8.68639946,48.49499893,-14.34719944,,,,
5.7,5.721832139,,5.722979583,5.713742139,,2.523829699,2.350350142,1.1952148679999999,,,,-6.026799679,47.66539764,-10.32119942,-0.159843564,11.1387167,3.9398510460000002,
5.7299999999999995,,5.743942916,,,,,,,-0.5862606764,0.09804098308,0.4104893506,,,,,,,
5.76,5.771832139,,5.772979583,5.763742139,,10.27358437,7.4641113279999995,2.732304335,,,,-4.50180006,47.86059952,-7.17359972,6.835450172000001,15.3027401,3.174381495,
5.79,,5.794744322000001,,5.8137421389999995,,,,,2.008924007,0.4740174711,-1.9646375180000002,,,,-3.212866783,11.7981987,3.740328789,
5.819999999999999,5.821832139,5.845544843,5.8229795829999995,,,-2.118246317,1.10309124,1.257428288,2.459729195,2.381540775,-0.2635805905,-3.306200027,48.47060013,-3.92840004,,,,
5.85,5.8718321389999995,,5.872979582999999,5.863742139,,-0.111864455,-5.0904312130000005,4.506283283,,,,-2.000799894,49.23920059,-1.000399947,-3.6229050160000003,5.61802721,3.625132561,
5.88,,5.896346301,,,,,,,4.1798748969999995,5.067741394,0.0035123717969999997,,,,,,,
5.91,5.921832139,,5.922979582999999,5.913742139,,-1.3977075819999998,-62.62794495,-6.257530212000001,,,,-0.45139998200000003,49.25139999,0.109799996,-1.284670591,-40.67847443,-0.05614590645,
5.9399999999999995,,5.947148541000001,,5.963742139,,,,,3.2411556239999997,-2.8474645610000002,-1.312405348,,,,2.599560976,-14.5902462,1.461522102,
5.97,5.971832139,5.997949947,5.972979583,,,5.6937212939999995,-18.60987854,1.331605792,2.756142855,1.027292371,-2.582204103,0.09759999812,48.59259796,-1.061399937,,,,
6.0,6.021832139,,6.022979583,6.013742139,,4.954040051000001,-3.81445837,-0.8853443861,,,,-0.1586000025,47.23839951,-4.8677997589999995,1.6021208759999999,2.618747711,-4.987743855,
6.029999999999999,,6.04875052,,,,,,,0.3607053161,0.0035123717969999997,-0.2644968629,,,,,,,
6.06,6.071832139,,6.0729795829999995,6.0637421389999995,,0.2781656384,-1.144965649,-1.517348647,,,,-0.14640000460000002,45.70119858,-9.576999664,-2.96079421,6.07450676,-6.372122288,
6.09,,6.099551977999999,,6.113742139,,,,,-1.698613524,-1.1509889359999999,1.227192163,,,,-5.316731453,7.850077628999999,-5.368106365,
6.12,6.1218321389999995,,6.122979582999999,,,-1.251446247,0.20279172059999998,-1.026520967,,,,-0.9759999514,44.55439758,-13.85919952,,,,
6.1499999999999995,6.171832139,6.1503541660000005,6.172979582999999,6.163742139,,0.8120641707999999,3.798905134,-5.845964909,-2.691545725,-0.40880954270000003,2.012283564,-1.646999955,43.83459854,-17.54360008,-2.528926134,12.26341248,-8.859890938,
6.18,,6.201155624,,,,,,,2.336948872,-2.086348772,-0.20249587300000002,,,,,,,
6.21,6.221832139,,6.222979583,6.213742139,,3.014657497,-4.245465755,13.50808239,,,,-1.79339993,42.96839905,-20.80099869,6.698224545,6.671254157999999,34.8572197,
6.24,,6.251956197,,6.263742139,,,,,4.50728941,-1.3950223919999998,-2.312362194,,,,-13.76698971,-3.138638973,8.441394806,
6.27,6.271832139,,6.272979583,,,-5.33599472,-5.79661274,-5.900999546,,,,-2.4400000569999998,41.13840103,-24.79039955,,,,
6.3,6.321832139,6.302757708,6.3229795829999995,6.3137421389999995,,0.2685943544,-24.48036957,-11.47926712,-2.780424118,-3.2324509619999997,0.5233433843,-3.733199835,40.17459869,-27.37679863,-6.846886157999999,-9.802492142,-16.05615807,
6.33,,6.353559895,,,,,,,-3.119902372,-4.227826595,5.157841682,,,,,,,
6.359999999999999,6.3718321389999995,,6.372979582999999,6.363742139,,14.17837143,-32.11497116,-1.5077773330000002,,,,-5.026400089,40.07699966,-27.291399,4.982116699,-20.33815002,-6.491698265,
6.39,,6.404361353,,6.413742139,,,,,-6.347619057,-1.325996637,2.65321517,,,,20.95629311,-22.27832794,6.4037489889999994,
6.42,6.421832139,,6.422979582999999,,,25.990839,-23.75235367,23.17538452,,,,-5.172800064,41.05299759,-24.85140038,,,,
6.45,6.471832139,6.455161978,6.472979583,6.463742139,,5.533402443,-6.732804775,3.5700914860000004,-1.113421798,0.9588775039,0.3506263196,-4.940999985,42.38280106,-20.98399925,4.67552948,0.7753925323,4.387180328,
6.4799999999999995,,6.505963437,,,,,,,-2.089097738,2.0527522559999998,0.8926005362999999,,,,,,,
6.51,6.521832139,,6.522979583,6.513742139,,-4.948058128,-1.762612939,5.210072041,,,,-4.648200035,43.18799973,-17.04339981,-2.957808495,5.886729717000001,3.770824909,
6.54,,6.556765676,,6.5637421389999995,,,,,0.9930849075,-0.07727217673999999,1.162289619,,,,0.6480349302,9.200371742,4.361050606,
6.569999999999999,6.571832139,,6.5729795829999995,,,2.25104785,0.1333998591,-0.3873381615,,,,-4.28219986,43.73699951,-13.52979946,,,,
6.6,6.6218321389999995,6.607567135,6.622979582999999,6.613742139,,2.8543384080000003,4.7635116580000005,-0.6529414654,2.241809368,0.6783458591,-0.5399889946,-3.8917999269999997,44.2981987,-10.60179996,3.015971661,14.66366005,1.669732809,
6.63,,6.65836776,,,,,,,3.3556895260000004,-1.6471496819999998,-0.7293516396999999,,,,,,,
6.66,6.671832139,,6.672979582999999,6.663742139,,0.3837489188,-0.12741780279999998,2.172084808,,,,-3.0865998269999997,45.90859985,-7.051599979,-1.9183014630000002,11.10534859,3.19396615,
6.6899999999999995,,6.70916927,,6.713742139,,,,,3.375694752,1.827960372,-1.7700825930000001,,,,5.6547966,-1.227283478,4.948672295,
6.72,6.721832139,,6.722979583,,,10.36211872,-14.85583973,8.027919769,,,,-0.7807999848999999,46.9211998,-5.14839983,,,,
6.75,6.771832139,6.75997151,6.772979583,6.763742139,,11.79631615,-56.46074295,-3.9185462,2.322135925,1.8974442480000002,-3.5768160819999997,-0.01219999976,46.96999741,-5.184999943,11.79658985,-48.56136322,-7.1452703479999995,
6.81,6.821832139,6.810772967999999,6.8229795829999995,6.8137421389999995,,7.147062302,-16.01486206,2.140978098,2.46201992,-0.2707580328,-2.077338934,-0.6588000059,45.90859985,-7.600599766,3.01788044,-13.99009418,3.245269775,
6.84,,6.861573592999999,,6.863742139,,,,,-0.009315420873,0.36360684039999996,-1.217876673,,,,-1.7083809380000001,3.050412655,-5.4945344920000005,
6.87,6.8718321389999995,,6.872979582999999,,,2.1744775769999998,-3.663710594,-1.5221343040000002,,,,-1.85439992,44.48119736,-11.38259983,,,,
6.8999999999999995,6.921832139,6.912375103,6.922979582999999,6.913742139,,-2.685644388,-2.418545485,-2.144567251,-1.621646762,-0.05818320066,0.42392799259999997,-2.879199982,43.1026001,-15.89659977,-7.49253273,5.331958771,-5.525658607,
6.96,6.971832139,6.963177343,6.972979583,6.963742139,,-1.378564954,1.665703654,-2.568396091,-1.7797034980000002,-0.5989357233,2.3392395969999997,-4.453000069,42.39500046,-19.62979889,-6.619920731000001,8.800367355,-4.46625042,
6.989999999999999,,7.013978852999999,,7.013742139,,,,,-0.3826957941,-0.5315898061,1.541625738,,,,-3.0111761089999995,14.51191711,-6.339452744,
7.02,7.021832139,,7.022979583,,,0.4220340848,5.26391077,-3.727120399,,,,-5.611999989,41.89479828,-22.49679947,,,,
7.05,7.071832139,7.064779477999999,7.0729795829999995,7.0637421389999995,,1.95164597,-4.558925152,-8.73559761,6.247592926,2.1474335190000002,-1.959445238,-6.258599758,40.86999893,-25.38819885,3.162626743,1.939918995,16.15242577,
7.109999999999999,7.1218321389999995,7.115580989,7.122979582999999,7.113742139,,-2.905783892,-2.1266210080000003,-4.976771832,-2.69337821,-4.240348816,-0.9739959836,-7.307799816,39.68659973,-27.42560005,-8.708509445,4.066030025,-8.302140236,
7.14,,7.166383228,,7.163742139,,,,,-0.4726430774,-3.375083923,2.40841794,,,,-7.92356205,-18.13091278,-9.846031189,
7.17,7.171832139,,7.172979582999999,,,-1.4790635109999999,-32.29233932,-8.318946837999999,,,,-8.783999442999999,39.12540054,-28.01119995,,,,
7.199999999999999,7.221832139,7.2171847389999995,7.222979583,7.213742139,,14.15683651,-31.21257591,-3.030509949,-4.010517597,4.20354557,3.5786485669999997,-8.637599945,39.5890007,-27.44999886,7.429516792,-22.40031815,-3.4444506169999998,
7.26,7.271832139,7.267985363999999,7.272979583,7.263742139,,25.6076889,-22.26581383,64.37052155,-5.6362876889999995,-4.389090061,1.360051394,-7.368799686,40.99200058,-24.66839981,17.82483101,-20.02692032,-6.107385635,
7.29,,7.3187869260000005,,7.3137421389999995,,,,,-1.809635043,1.232537031,0.2550287247,,,,1.600971341,-0.5280151367,6.401364326,
7.319999999999999,7.321832139,,7.3229795829999995,,,1.467996716,-8.842078209,1.633400559,,,,-5.502200127,41.88259888,-21.21579933,,,,
7.35,7.3718321389999995,7.369589218,7.372979582999999,7.363742139,,-2.618645191,3.4157543180000003,11.13799095,-0.6384881139,-0.8733588456999999,1.183974743,-4.038199902,42.74879837,-17.53139877,-4.814823151000001,10.21976948,9.538664817999999,
7.41,7.421832139,7.420390676,7.422979582999999,7.413742139,,3.8001015189999996,-0.5632106066,-0.4495515525,1.234522343,1.9962488409999999,-0.33352261780000003,-2.83039999,43.37099838,-14.23740005,3.4385573860000003,9.123586655,2.7137043480000003,
7.4399999999999995,,,,7.463742139,,,,,,,,,,,2.368906975,13.81524849,2.887256145,
7.47,7.471832139,7.471191301,7.472979583,,,2.5573291780000003,4.366302967,2.459223509,1.911493778,-1.808718681,-0.6262711287,-2.13499999,44.54219818,-10.44320011,,,,
7.5,7.521832139,7.521992864,7.522979583,7.513742139,,4.467998028,-3.333201885,4.6211385730000005,3.8859047889999996,2.730487347,-0.7012526393,-0.9149999619,46.12820053,-6.941799641,1.855252862,8.794692039,5.4301004410000004,
7.56,7.571832139,7.572795156000001,7.5729795829999995,7.5637421389999995,,13.85294724,-20.84357834,7.544270515,2.169576645,3.933092833,-4.488200188,1.09799993,47.05540085,-5.5753998760000005,9.254037857,-6.822348595,2.986416101,
7.59,,,,7.613742139,,,,,,,,,,,8.512477875,-48.32934189,-5.787205696,
7.62,7.6218321389999995,7.623596666,7.622979582999999,,,9.208179474,-57.43252945,5.3679986,3.4993913169999997,0.01786728203,-2.601140261,1.317600012,47.32379913,-5.111799717,,,,
7.6499999999999995,7.671832139,7.674397291,7.672979582999999,7.663742139,,4.6761736869999995,-14.43709564,-1.0767701859999999,1.758323789,0.5415160656,-1.0714260340000001,0.2073999941,46.29899979,-7.539599895,-0.09752464294,-12.32380867,-2.471043825,
7.71,7.721832139,7.725198852999999,7.722979583,7.713742139,,0.24945175649999998,-2.5046870709999998,-2.403291225,-0.39888325329999996,0.3061871827,-0.11514470730000001,0.1951999962,43.74919891,-11.34599972,-3.403668404,3.405563354,-5.75477314,
7.739999999999999,,,,7.763742139,,,,,,,,,,,-7.71530056,6.198373318,-6.751882553,
7.77,7.771832139,7.776001145,7.772979583,,,-2.633002281,-1.1952148679999999,-2.910569668,-1.366923451,-0.6178719997,1.73999846,-1.26880002,42.56579971,-15.60379982,,,,
7.8,7.821832139,7.826802656,7.8229795829999995,7.8137421389999995,,-1.794916034,2.333600283,-2.496611357,-1.036913276,-0.04092676565,2.194621563,-2.635200024,41.73619843,-19.37360001,-6.503588676000001,10.3375206,-5.132945061,
7.859999999999999,7.8718321389999995,7.877603333,7.872979582999999,7.863742139,,0.26141586899999997,4.99352169,-4.404588223,0.5575508475,0.40972578530000003,0.2594573796,-3.23300004,41.08959961,-22.47239876,-3.060226202,14.21959496,-7.786967278,
7.89,,,,7.913742139,,,,,,,,,,,5.968224525,1.522425652,21.99577904,
7.92,7.921832139,7.928404895,7.922979582999999,,,5.011467934,-7.673782349,2.7825536730000002,4.50209713,-2.074589968,-2.345042706,-3.647799969,40.04039764,-25.5223999,,,,
7.949999999999999,7.971832139,7.979207187,7.972979583,7.963742139,,-3.131008387,-2.394617319,-3.7558343410000004,-1.557202339,-3.675162554,-0.12583453949999998,-5.075200081,38.84479904,-27.5719986,-12.11982059,1.2298622129999999,3.1614551539999995,
8.01,8.021832138999999,8.030008697000001,8.022979583,8.013742139,,0.08673982322000001,-35.84268951,-14.8142643,-0.8493831158,-0.3312319219,4.036631583999999,-6.258599758,38.05179977,-28.57239914,-8.003212929,-16.58901024,-10.15528107,
8.04,,,,8.063742139,,,,,,,,,,,12.22438526,-25.30981827,-8.26379776,
8.07,8.071832139,8.080809374,8.072979583,,,17.274086,-36.03889847,-12.10409355,-9.238301277,0.8938222528,2.861972094,-5.916999817000001,38.56419754,-27.97459984,,,,
8.1,8.121832139,,8.122979583,8.113742139,,21.71755791,-13.46740437,39.08646011,,,,-4.3309998510000005,39.91839981,-24.97340012,26.86099243,-17.72672653,63.56736374,
8.129999999999999,,8.131610937,,,,,,,-0.5464028716,-3.883308649,-0.09193251281999999,,,,,,,
8.16,8.171832139,8.182413228,8.172979583,8.163742139,,-0.8422735929,-6.548557281,3.2422747610000004,-2.856016397,1.664711475,1.58942461,-3.489199877,41.27259827,-21.21579933,-0.1621699333,0.1935100555,4.126543045,
8.19,,,,8.213742138999999,,,,,,,,,,,-5.159673691,12.79227448,15.41011333,
8.219999999999999,8.221832139,8.233214739,8.222979582999999,,,-2.7909286019999997,6.22642374,14.77448368,0.5572454333,-0.9961391687000001,1.139077425,-2.5497999190000002,42.24860001,-16.94579887,,,,
8.25,8.271832138999999,,8.272979583,8.263742139,,4.89182663,-1.958824396,-0.111864455,,,,-1.829999924,43.01720047,-13.15159988,4.759139061,7.261958599,3.0313415530000003,
8.28,,8.284015416,,,,,,,1.6095825430000001,2.170951128,-0.35597124700000005,,,,,,,
8.31,8.321832139,8.334817031,8.322979583,8.313742139,,3.09122777,4.004687786,3.790530205,2.288539171,-2.235090017,-0.029015244920000002,-1.085799932,43.56620026,-8.661999702000001,1.763884664,12.34130859,-0.07667756081,
8.34,,,,8.363742139,,,,,,,,,,,1.2819820640000001,10.82487297,3.8080744739999997,
8.37,8.371832139,8.385619322,8.372979583,,,3.515056372,0.3490529954,2.8232316969999998,4.037089348,2.776300907,-1.4386980530000002,0.6588000059,45.13999939,-5.2093997,,,,
8.4,8.421832139,,8.422979583,8.413742139,,15.27966785,-18.62423515,4.276273251,,,,2.793799877,46.38439941,-3.4647998810000002,10.30204868,-3.94721508,-0.5489220618999999,
8.43,,8.436420833,,,,,,,2.311140537,3.36179781,-5.723944187000001,,,,,,,
8.459999999999999,8.471832139,8.487221562,8.472979582999999,8.463742138999999,,13.37647724,-59.37908936,0.21355941890000002,3.5048887730000002,-1.271936655,-2.75278306,2.671799898,46.59180069,-3.196399927,13.51454449,-53.01011658,-5.155894756,
8.49,,,,8.513742139,,,,,,,,,,,-1.256135464,-13.65789413,-4.211430073,
8.52,8.521832138999999,8.538023124,8.522979583,,,3.991527319,-15.50249958,-1.646561027,0.569462359,0.7081246972,-0.8667922616,1.878799915,45.16439819,-6.258599758,,,,
8.549999999999999,8.571832139,,8.572979583,8.563742139,,2.737090111,0.6720840334999999,-0.5787639618,,,,0.2439999878,43.84679794,-10.13819981,-2.003518581,6.381980419,-4.576525688,
8.58,,8.588825468,,,,,,,-1.349056125,2.474236727,0.3016058207,,,,,,,
8.61,8.621832139,8.639626977999999,8.622979583,8.613742139,,-2.7670001980000003,-0.5799604058,-5.367101192,-1.9667754169999998,0.1330119967,1.9519624709999999,-1.415199995,42.8219986,-14.76200008,-6.817300797000001,7.660645485,-8.675601959,
8.64,,,,8.663742139,,,,,,,,,,,-6.686915873999999,10.34341812,-6.522393703,
8.67,8.671832139,8.690427708,8.672979583,,,-1.6106687780000002,3.128615618,-3.186043262,-2.216001034,-0.1502684206,1.6946430209999999,-2.866999865,42.2364006,-18.61719894,,,,
8.7,8.721832139,,8.722979582999999,8.713742138999999,,-1.079162955,4.818845748999999,-3.605086327,,,,-3.842999935,42.00460052,-21.33779907,-4.391926765,14.06658363,-7.76962471,
8.73,,8.74122927,,,,,,,3.2187068460000003,2.571361542,-0.629478097,,,,,,,
8.76,8.771832138999999,,8.772979583,8.763742139,,5.468796253,-15.76331711,6.656234264,,,,-4.73360014,41.49219894,-23.86319923,6.080920218999999,-4.844163895,46.26831055,
8.79,,8.792031613999999,,8.813742139,,,,,2.588007212,-2.908091068,-1.868734479,,,,-10.14409447,2.054233551,-11.59646416,
8.82,8.821832139,8.842833176000001,8.822979583,,,-4.730311394,-5.782256126,-4.277768612,-0.5453338622999999,-4.848752975,-0.062153708190000004,-6.185400008999999,40.4552002,-26.08359909,,,,
8.85,8.871832139,,8.872979583,8.863742139,,-1.792523265,-29.63002396,-8.54387188,,,,-7.454199791000001,39.97940063,-26.79119873,-10.52457047,-20.46173668,-14.02842808,
8.879999999999999,,8.893633852999999,,,,,,,-1.770846248,-0.8499939442000001,4.514466763,,,,,,,
8.91,8.921832139,,8.922979583,8.913742139,,15.76331711,-31.99772263,-3.511467218,,,,-8.405799866,40.4917984,-26.43739891,8.291845322,-24.58500862,-1.724952221,
8.94,,8.944435468,,8.963742138999999,,,,,-9.604198456,-0.3264978528,2.8123407360000003,,,,29.31754303,-24.22221375,3.338456631,
8.969999999999999,8.971832139,8.995237812000001,8.972979582999999,,,39.12743759,-24.61915398,62.05546188,0.8478559851999999,-4.763844967,0.1168245375,-6.978399754,42.11439896,-22.75300026,,,,
9.0,9.021832138999999,,9.022979583,9.013742139,,3.524627686,-7.419844151,5.6721858979999995,,,,-5.795000076,43.56620026,-18.84899902,4.625133514,0.5274505615,7.867260456,
9.03,,9.046039374,,,,,,,-2.75278306,2.373752356,1.586064935,,,,,,,
9.06,9.071832139,,9.072979583,9.063742139,,-2.79571414,5.740381717999999,14.15683651,,,,-6.941799641,42.99279785,-13.09060001,-3.974054813,11.51852989,7.981565475,
9.09,,9.096840103,,9.113742139,,,,,0.4524851143,0.9736905098,0.7548545003,,,,2.3659093380000003,9.33643055,3.036369801,
9.12,9.121832139,9.147641718,9.122979583,,,3.699303865,0.466301322,-0.006580262445,1.604695797,0.5615213513,-0.031458634879999996,-6.039000034,43.43199921,-9.210999488999999,,,,
9.15,9.171832139,,9.172979583,9.163742139,,4.319643021,5.33599472,3.8001015189999996,,,,-5.343599796,44.2859993,-5.124000072,2.483205318,14.69513893,4.99768734,
9.18,,9.198444062,,,,,,,3.961191654,-0.11880978939999999,-0.7192726731,,,,,,,
9.209999999999999,9.221832139,,9.222979582999999,9.213742138999999,,1.149751306,-3.2590243819999998,3.0672996039999996,,,,-3.98939991,45.85979843,-1.366400003,-0.5686300993,8.744829178,4.9895176889999995,
9.24,,9.249245624,,9.263742139,,,,,3.489617586,2.340919495,-2.739039183,,,,9.526612282,-8.810127258,6.309573174,
9.27,9.271832138999999,,9.272979583,,,15.2413826,-21.86830521,10.39801121,,,,-2.037400007,47.16519928,0.4635999799,,,,
9.299999999999999,9.321832139,9.300046352999999,9.322979583,9.313742139,,11.56391335,-58.35675812,0.7953144312,2.891598225,4.58074379,-5.353465557,-2.110599995,47.47019958,0.4757999778,12.34849072,-50.55570221,-5.964739799,
9.33,,9.350847968,,,,,,,3.563988447,-2.190498352,-2.275864124,,,,,,,
9.36,9.371832139,,9.372979583,9.363742139,,3.153441191,-15.78485298,-1.203589797,,,,-3.92840004,46.31119919,-2.976799965,-2.098932266,-17.93316269,-1.65988946,
9.389999999999999,,9.401650312000001,,9.413742139,,,,,-0.5627430081,1.029430389,-0.5115845799000001,,,,-2.899855137,8.515451431,-4.01495409,
9.42,9.421832139,,9.422979583,,,2.72512579,3.346362352,0.1345962733,,,,-6.209799767000001,44.77399826,-7.075999737,,,,
9.45,9.471832139,9.452451874,9.472979582999999,9.463742138999999,,-2.7358934880000003,-0.4986044168,-4.715954303999999,-1.9011093380000001,1.52956152,1.119377613,-8.381400108,43.81019974,-12.00479984,-7.355874062000001,7.5133609770000005,-8.319364548,
9.48,,9.503252656,,,,,,,-2.395590305,-1.469851255,2.5392920969999997,,,,,,,
9.51,9.521832138999999,,9.522979583,9.513742139,,-2.0943179130000003,2.63539505,-2.144567251,,,,-10.16259956,42.66339874,-16.39679909,-6.714015484,9.705939293,-5.69952631,
9.54,,9.55405427,,9.563742139,,,,,-0.8254073858,-2.013047218,1.499019146,,,,-4.647860527,13.34597969,-5.426679611,
9.57,9.571832139,,9.572979583,,,-0.6098706722,3.9544384480000003,-2.264208317,,,,-11.77299976,42.60239792,-19.54439926,,,,
9.6,9.621832139,9.604856614,9.622979583,9.613742139,,8.401499747999999,-8.846863747,6.960123062,4.0386166569999995,3.046906233,-1.337908268,-13.43219948,42.19979858,-22.10639954,2.511557579,-2.221001625,35.80084229,
9.629999999999999,,9.655658176000001,,,,,,,0.9663603902,-5.019179343999999,-0.9570449591,,,,,,,
9.66,9.671832139,,9.672979583,9.663742139,,0.342771858,-2.2366909980000003,-6.549753666,,,,-15.04259968,41.28479767,-24.3512001,-4.929978848,8.878316879,-13.55407715,
9.69,,9.706458957999999,,9.713742138999999,,,,,0.06459710002,-5.34659338,0.1484358907,,,,-7.013207912,-28.24745941,-9.856641769,
9.719999999999999,9.721832139,,9.722979582999999,,,-0.5883352757,-38.8471756,-7.849654675,,,,-16.66519928,42.05339813,-25.07099915,,,,
9.75,9.771832138999999,9.757260572,9.772979583,9.763742139,,14.26929855,-28.37319374,-0.27726832030000004,-2.442014694,-0.9181034565,4.900216578999999,-17.15320015,43.01720047,-23.64360046,6.356920242,-20.61697197,-7.655748367,
9.78,,9.808062968,,,,,,,-8.002404213,0.038636088369999995,4.052513599,,,,,,,
9.81,9.821832139,,9.822979583,9.813742139,,36.87220001,-22.80210495,37.7554512,,,,-15.78679943,45.10339737,-19.15399933,25.11382294,-20.20605087,-7.062849998,
9.84,,9.858864531,,9.863742139,,,,,-0.44729289409999995,-1.3382136820000001,-0.02153236605,,,,7.065493107000001,1.322820663,5.065436363,
9.87,9.871832139,,9.872979583,,,5.384748459,-8.44696331,6.387938976,,,,-14.20079994,46.72599792,-14.26179981,,,,
9.9,9.921832139,9.909665312000001,9.922979583,9.913742139,,-3.626621723,2.218744755,7.946564198,-2.090319395,2.11093545,1.4504568580000001,-14.3593998,47.28720093,-9.076799393,-2.459406853,7.570734024,5.501488686,
9.959999999999999,9.971832139,9.960466926,9.972979582999999,9.963742138999999,,3.9388852119999997,-1.803290963,0.7019943595,0.8351809382,1.214364409,-0.1718007922,-13.43219948,47.75079727,-4.5749998089999995,3.141114712,7.683565617,5.011571407,
9.99,,10.01126932,,10.01374214,,,,,1.786422849,0.3382566571,-0.1826433241,,,,-0.04907822609,12.46992874,3.4591546060000002,
10.02,10.02183214,,10.02297958,,,1.817647934,4.054936886,3.445664644,,,,-12.66359997,48.70240021,0.08540000021,,,,
10.049999999999999,10.07183214,10.06207088,10.07297958,10.06374214,,0.8024929166,-0.8383852243000001,1.518245935,4.141086102,0.4503471553,0.2516690791,-11.34599972,50.459198,4.526199818,-2.698149204,8.952143669,5.686193942999999,
10.11,10.12183214,10.11287167,10.12297958,10.11374214,,14.45384502,-16.10578918,3.73998189,3.916752577,2.340003252,-2.802261829,-8.771800041,52.11840057,6.368400097,5.66674757,-0.1795854568,0.5121045113,
10.139999999999999,,10.16367328,,10.16374214,,,,,3.03148222,2.7752318380000003,-4.8889160160000005,,,,16.62406158,-37.6938324,2.027873993,
10.17,10.17183214,,10.17297958,,,18.42323875,-56.98985672,1.559223056,,,,-7.97879982,52.87479782,6.246399879,,,,
10.2,10.22183214,10.21447474,10.22297864,10.21374214,,5.60279417,-22.35674095,0.6110670567,3.2541360860000004,-2.250208616,-1.9125627280000002,-9.906399727,51.95980072,2.110599995,2.902006149,-24.72314644,0.563488245,
10.26,10.27183214,10.26527635,10.27297864,10.26374214,,4.487140656,2.1254246230000002,0.1800599098,-1.057682037,2.204089642,0.1611109674,-12.83440018,50.69099808,-3.135400057,-1.905481815,5.206331253,-3.8426063060000004,
10.29,,10.31607708,,10.31374214,,,,,-2.071535826,3.0087282660000003,1.131747246,,,,-4.94321394,9.950008392,-7.286815166,
10.32,10.32183214,,10.32297864,,,-0.9762716293000001,1.51256299,-4.0597229,,,,-15.14019966,50.62999725,-9.101200104,,,,
10.35,10.37183214,10.36687875,10.37297864,10.36374214,,-3.576372623,1.189232826,-4.127020836,-2.413915634,-0.4715740979,2.2479178909999997,-16.88479996,50.50799942,-14.93279934,-7.652466774,8.496860503999999,-8.197583199,
10.41,10.42183214,10.41768114,10.42297864,10.41374214,,-0.7968099117,5.45085001,-5.2163534160000005,-1.368755937,-0.5456393361,1.35134685,-17.70219994,50.78860092,-19.30039978,-3.557783842,13.57186031,-8.778845787,
10.44,,10.46848276,,10.46374214,,,,,4.207363129,1.586370349,-1.5979764459999999,,,,-3.3426103589999996,6.248784065,19.31998253,
10.469999999999999,10.47183214,,10.47297864,,,4.329214573,-9.521938324,45.01916504,,,,-18.73920059,50.83739853,-22.78960037,,,,
10.5,10.52183214,10.51928348,10.52297864,10.51374214,,-5.623133182999999,-0.7187440990999999,-11.5773735,1.137550354,-5.562069892999999,-1.7102196219999999,-20.94739914,49.21479797,-25.87619972,-8.479710578999999,4.195374012,-19.72399902,
10.559999999999999,10.57183214,10.57008515,10.57297864,10.56374214,,-5.812465191,-33.43909836,-14.54357624,1.112963676,-2.937106371,1.333784938,-22.17959976,49.39780045,-27.70619965,-10.19981956,-6.856897354,-11.47437286,
10.59,,,,10.61374214,,,,,,,,,,,4.691621304,-23.26041985,-8.393040657,
10.62,10.62183214,10.62088755,10.62297864,,,12.19621658,-31.71776199,-6.66939497,-4.522713184,-1.296981454,5.989662647,-22.71640015,50.50799942,-27.52319908,,,,
10.65,10.67183214,10.67168916,10.67297864,10.66374214,,50.322258,-43.13511658,1.626222134,-5.748989105,-5.557488441,3.2758212089999996,-21.00839996,53.3628006,-23.22879982,33.80408478,-30.93677902,-14.40827847,
10.709999999999999,10.72183214,10.72248994,10.72297864,10.71374214,,5.305785179,-6.95055151,16.44556999,-1.128692985,1.488634825,0.2655658424,-17.36059952,56.9129982,-20.08119965,13.81695557,4.346299171,11.79409981,
10.74,,,,10.76374214,,,,,,,,,,,-0.278208077,7.471624374,-4.4185900689999995,
10.77,10.77183214,10.77329161,10.77297864,,,-1.945963025,0.7127620578,-5.189733028,-2.817227602,2.4710297580000002,1.6744850869999999,-16.31139946,58.69419861,-14.38379955,,,,
10.799999999999999,10.82183214,10.82409401,10.82297864,10.81374214,,4.628317356,2.312064886,0.0077766734180000005,0.9507837295999999,1.844453335,-0.2195995897,-15.60379982,59.74340057,-9.162199974,2.8199236389999998,13.94094753,8.394330978,
10.86,10.87183214,10.87489557,10.87297864,10.86374214,,3.828815222,3.0804600719999997,8.10449028,2.171714783,-0.5082249045,-1.104869962,-15.33539963,61.0243988,-4.135799885,3.6226291660000003,12.36671829,4.843613148,
10.889999999999999,,,,10.91374214,,,,,,,,,,,-4.38424015,7.880168915,7.01348877,
10.92,10.92183214,10.92569635,10.92297864,,,-1.5460625890000002,-1.9133608340000001,4.21405983,4.042434216,2.3535945419999997,-0.7351546884000001,-14.98159981,63.47660065,1.110199928,,,,
10.95,10.97183214,10.97649802,10.97297864,10.96374214,,11.96142101,-12.02602768,-2.369492531,3.0936360360000004,3.330339193,-3.3036146160000004,-13.23699951,65.68479919,3.8673999310000005,5.607375145,2.087874413,-0.8035975695,
11.01,11.02183214,11.02730041,11.02297864,11.01374214,,22.10997963,-51.06433105,10.62562847,3.566737175,2.8289864060000003,-4.50209713,-13.10279942,66.52659607,3.5745999810000004,19.73108292,-25.71269608,11.2696228,
11.04,,,,11.06374214,,,,,,,,,,,1.54743576,-35.15722656,3.784972668,
11.07,11.07183214,11.07810203,11.07297864,,,4.690530777,-33.06791306,3.055335522,3.202366829,-2.241962194,-2.224400282,-15.79899979,63.62299728,-1.671399951,,,,
11.1,11.12183214,11.12890281,11.12297864,11.11374214,,2.5740790369999997,-0.6086742878,-1.843071699,-1.52696538,2.457896709,0.36895173789999997,-20.77659988,59.79219818,-8.710800171,-3.844546556,1.746712685,-7.464671135,
11.16,11.17183214,11.17970448,11.17297864,11.16374214,,-1.878963947,2.132603168,-4.969593525,-1.9021784069999998,2.086654186,1.573695302,-23.97299957,55.77840042,-17.2996006,-4.9854540819999995,11.75280285,-7.003341675,
11.19,,,,11.21374214,,,,,,,,,,,-9.077386856,9.957285881,-11.3874712,
11.219999999999999,11.22183214,11.23050687,11.22297864,,,-4.7662034030000004,3.171686411,-8.340482712,-1.7751221659999998,-1.913784504,2.098565817,-26.14459991,52.67959976,-26.01039886,,,,
11.25,11.27183214,,11.27297864,11.26374214,,-3.059223652,5.115555763,-5.486742496000001,,,,-27.77939987,49.95899963,-33.42799759,-6.56061697,12.96222687,-8.388525963,
11.28,,11.28130848,,,,,,,-0.8660287261,-2.592130423,0.7595885396,,,,,,,
11.309999999999999,11.32183214,11.33210932,11.32297864,11.31374214,,5.198108196000001,-5.619544029,28.37050247,3.478622437,4.1452093119999995,-1.493521571,-28.87739944,46.70159912,-39.51580048,2.209071159,8.876181602,38.30231476,
11.34,,,,11.36374214,,,,,,,,,,,-5.779343128,5.56881237,-15.66233253,
11.37,11.37183214,11.38291098,11.37297864,,,-1.7638094430000002,0.9284151793000001,-7.564908981,2.25311017,-6.374343872000001,-0.48440188170000004,-29.29220009,41.89479828,-44.46899796,,,,
11.4,11.42183214,,11.42297864,11.41374214,,-4.294518471,-20.50379753,-12.1232357,,,,-30.42679977,36.97819901,-47.03099823,-9.245306969,0.01952600479,-12.64721775,
11.43,,11.43371338,,,,,,,-1.225970507,-2.334047318,0.6927008033,,,,,,,
11.459999999999999,11.47183214,11.484515,11.47297864,11.46374214,,13.25892925,-34.85863876,-3.0329027180000003,-7.165696621,0.2547233105,5.0573573110000005,-30.86599922,34.91640091,-46.9455986,3.3457098010000004,-34.68669891,-8.692640305,
11.49,,,,11.51374214,,,,,,,,,,,26.36667252,-30.64033127,-7.766931057000001,
11.52,11.52183214,11.53531578,11.52297864,,,35.41886139,-44.1933403,-11.08175945,-2.994220495,-5.2761931419999994,2.145448208,-29.99979973,37.18560028,-43.78580093,,,,
11.549999999999999,11.57183214,,11.57297864,11.56374214,,5.626722336,-9.591330528,4.0154557230000005,,,,-31.18319893,37.89319992,-37.25880051,12.66891098,-0.5161228179999999,3.155259132,
11.58,,11.5861175,,,,,,,-2.318318129,1.337602735,1.61446929,,,,,,,
11.61,11.62183214,11.63691989,11.62297864,11.61374214,,-2.745464802,6.346064567999999,6.862017155,-0.27961534260000004,-0.1406475753,1.423732281,-31.57359886,39.69879913,-32.19580078,-3.10976553,10.13474274,8.492670059,
11.639999999999999,,,,11.66374214,,,,,,,,,,,7.501070499,10.42994118,5.993999481,
11.67,11.67183214,11.68772151,11.67297864,,,7.544270515,-0.970289588,0.35234314200000005,1.009883285,2.562351465,-0.791810751,-31.40279961,40.68700027,-28.32839966,,,,
11.7,11.72183214,,11.72297864,11.71374214,,3.02662158,3.944867134,5.035396099,,,,-30.95139885,41.35799789,-25.29059982,1.9600512980000002,11.97127438,-0.19171357149999999,
11.73,,11.73852234,,,,,,,2.257996798,-0.9605573416,-0.4072824121,,,,,,,
11.76,11.77183214,11.78932401,11.77297864,11.76374214,,0.5560321807999999,-1.054038405,3.2662029269999997,4.231949806,3.2793335910000003,-1.045923233,-31.6833992,42.41939926,-21.7159996,-1.2252295020000001,10.03139782,7.049518585,
11.79,,,,11.81374214,,,,,,,,,,,7.335897446000001,-0.5700912476,-2.547471762,
11.82,11.82183214,11.84012645,11.82297864,,,14.2381916,-13.71625805,0.9101698995,2.562809706,2.4452216630000003,-5.933617592,-29.0237999,42.95619965,-20.78879929,,,,
11.85,11.87183214,,11.87297864,11.86374214,,19.76621056,-68.27320862,1.927717686,,,,-25.46139908,40.7480011,-21.7038002,21.49476242,-37.8876915,8.134699821,
11.879999999999999,,11.89092807,,,,,,,4.787668228,-1.824753523,-3.9421026710000002,,,,,,,
11.91,11.92183214,,11.92297864,11.91374214,,4.726422787,-22.08844566,-1.294816136,,,,-22.67980003,33.39139938,-25.2173996,3.195375443,-27.55906296,-0.45785713200000006,
11.94,,11.94172885,,11.96374214,,,,,0.5551074743,2.3459589480000003,-0.5372401475999999,,,,-1.350078106,8.169975281000001,-5.305592537,
11.969999999999999,11.97183214,11.99253057,11.97297864,,,4.930111885,3.944867134,-0.3179463148,-2.087570429,5.765176296,0.8842014074,-21.89900017,26.43739891,-31.41499901,,,,
12.0,12.02183214,,12.02297864,12.01374214,,-1.184447169,0.8638089895000001,-8.228019714,,,,-17.27519989,19.04419899,-36.20959854,-5.513531685,9.232798576,-11.69816399,
12.03,,12.04333302,,,,,,,-2.016559601,1.938676476,1.4696985480000002,,,,,,,
12.059999999999999,12.07183214,,12.07297864,12.06374214,,-1.589133382,6.125925064,-11.35454178,,,,-12.56599998,12.18779945,-40.13800049,-6.527145386,10.68873787,-14.68086433,
12.09,,12.09413463,,12.11374214,,,,,-2.820129156,-3.255052328,0.26678752899999997,,,,-8.278308868,13.51882935,-13.29880714,
12.12,12.12183214,12.14493547,12.12297864,,,-4.342374802,5.000699997,-7.086045265,1.6908252240000001,-0.2565558553,-1.332868695,-8.295999527000001,6.380599976,-42.8219986,,,,
12.15,12.17183214,,12.17297864,12.16374214,,7.391129971,-16.14886093,49.29992294,,,,-2.696199894,1.85439992,-45.43280029,-0.390625,0.8082718848999999,21.58133698,
12.18,,12.19573718,,,,,,,1.7276287080000001,-0.07559234649,-0.6409314871,,,,,,,
12.209999999999999,12.22183214,,12.22297864,12.21374214,,-0.4351946115,2.853141785,-11.3258276,,,,1.878799915,-2.36680007,-45.03020096,-4.179793835,7.814399242,-22.44270706,
12.24,,12.24653963,,12.26374214,,,,,1.621341348,-6.183301449,-1.761683464,,,,-13.01920795,-11.71981144,-16.88754654,
12.27,12.27183214,12.2973413,12.27297864,,,-8.47208786,-30.37209702,-16.2074852,-1.73114109,-5.0709486010000004,3.6201863289999996,4.709199905,-5.026400089,-43.87120056,,,,
12.299999999999999,12.32183214,,12.32297864,12.31374214,,11.44905853,-33.89612579,-3.2506494519999998,,,,6.795399666000001,-5.184999943,-42.87080002,1.28272438,-28.02364731,-3.51890254,
12.33,,12.34814213,,,,,,,-8.232541084,0.1568350345,6.567677021000001,,,,,,,
12.36,12.37183214,,12.37297864,12.36374214,,60.42295837,-39.05086517,62.33332825,,,,6.441599846,-2.354599953,-41.07740021,37.55371475,-37.12718201,-16.91839218,
12.389999999999999,,12.3989438,,12.41374214,,,,,0.3035911024,-2.6878807539999996,1.0033166409999998,,,,13.53561974,3.1620492939999996,4.1488776210000005,
12.42,12.42183214,12.4497463,12.42297864,,,9.4310112,-5.87318325,-1.0863415,-1.528950691,0.6517740488,1.693879485,5.782799721,-0.8783999681,-39.52799988,,,,
12.45,12.47183214,,12.47297864,12.46374214,,-3.198007345,7.555038452000001,6.811768055,,,,4.7579998969999995,0.4635999799,-37.97859955,-8.64276886,14.82854652,15.63311577,
12.48,,12.50054796,,,,,,,0.1814216375,1.075702071,0.6928535104000001,,,,,,,
12.51,12.52183214,,12.52297864,12.51374214,,5.574080467000001,0.8084749579,-0.8805587292,,,,4.684800148,1.0247999429999999,-36.51459885,4.394742012,10.12044621,2.908683538,
12.54,,12.55134875,,12.56374214,,,,,1.83376348,-0.46378576759999995,-0.8466343284000001,,,,0.7985967398,11.53893661,7.036896706,
12.57,12.57183214,,12.57297864,,,0.5392823815,2.2139592169999998,3.268595695,,,,4.587199688,2.330199957,-35.02619934,,,,
12.6,12.62183214,12.60215052,12.62297864,12.61374214,,0.32362926010000004,-2.059622049,1.61665082,3.594988823,1.102121115,-0.2593046725,4.4651999469999994,2.9523999689999996,-33.75740051,-3.0288939480000003,8.303821564,3.8471763130000003,
12.629999999999999,,12.65295296,,,,,,,3.9530980589999998,1.83742857,-2.090166569,,,,,,,
12.66,12.67183214,,12.67297864,12.66374214,,20.17568207,-22.14826584,3.9221353530000003,,,,6.331799984,3.513599873,-31.89079857,13.83720112,-7.2230873110000005,-1.396320939,
12.69,,12.70375463,,12.71374214,,,,,3.1258580680000003,3.899343491,-6.111068726,,,,15.64011574,-34.73589706,3.2506885530000003,
12.719999999999999,12.72183214,,12.72297864,,,14.09701538,-54.10231781,3.02662158,,,,9.247599602000001,4.3309998510000005,-29.24339867,,,,
12.75,12.77183214,12.75455547,12.77297864,12.76374214,,6.692126751,-23.8313179,-1.4192429780000002,3.938132286,-2.7485072610000003,-3.249402046,13.13939953,4.257800102,-28.30399895,3.030788422,-27.63179779,-3.366669893,
12.78,,12.80535718,,,,,,,-0.8298360109,2.8311243060000004,-0.8664868473999999,,,,,,,
12.809999999999999,12.82183214,,12.82297864,12.81374214,,2.619841576,2.123031855,-0.4447658956,,,,14.94499969,4.538399696,-26.63259888,-2.981033802,6.2327528,-5.286847115,
12.84,,12.85615968,,12.86374214,,,,,-2.4259798530000003,3.35446763,1.0761601920000001,,,,-8.351214408999999,8.066365242,-12.29050732,
12.87,12.87183214,,12.87297864,,,-3.6338002680000003,0.7151548862,-6.978368282000001,,,,16.45779991,5.184999943,-24.81480026,,,,
12.9,12.92183214,12.90696135,12.92297864,12.91374214,,-2.25703001,5.663811207,-7.299006462,-2.493631124,-1.980061412,1.8980551959999998,17.2996006,6.258599758,-22.78960037,-7.790376662999999,12.15266514,-11.10589886,
12.93,,12.95776218,,,,,,,-2.291135311,-3.4024193289999998,0.9329164623999999,,,,,,,
12.959999999999999,12.97183214,,12.97297864,12.96374214,,-3.087937593,5.225625515,-2.8579275610000003,,,,18.27560043,8.722999573,-19.99580002,-7.746603966,13.84745979,-6.7022895810000005,
12.99,,13.00856395,,13.01374214,,,,,2.6997921469999997,7.446380615,-1.265217423,,,,-1.37954545,2.789234638,7.628615379,
13.02,13.02183214,,13.02297864,,,8.209774017,-14.35813236,41.04977036,,,,18.29999924,11.28499985,-17.53139877,,,,
13.049999999999999,13.07183214,13.05936645,13.07297864,13.06374214,,0.8479565381999999,1.117448211,-7.746763229,0.7882983684999999,-6.6046333310000005,0.10185877980000001,17.5802002,14.63999939,-15.42079926,-3.2109026910000003,7.617468833999999,-18.36080933,
13.11,13.12183214,13.11016812,13.12297864,13.11374214,,-6.343671799,-29.0386982,-11.91476154,1.579803705,-3.9304966930000003,-2.133689404,15.95759964,17.69000053,-15.07919979,-10.78068924,-8.21117115,-11.64591885,
13.139999999999999,,13.16096901,,13.16374214,,,,,-1.5025315280000002,-2.230814219,4.517673492,,,,0.5349516869,-24.81669998,-6.927033423999999,
13.17,13.17183214,,13.17297864,,,9.919445992,-29.9626255,-5.082056046,,,,15.06699944,20.42280006,-13.51760006,,,,
13.2,13.22183214,13.21177073,13.22297864,13.21374214,,31.59064293,-39.82883072,-18.53450584,-8.515058517,-0.7556180358,5.30810976,15.33539963,21.9843998,-12.24879932,21.09753799,-25.21062088,-5.587774277,
13.26,13.27183214,13.26257322,13.27297864,13.26374214,,11.8274231,-8.219644547,-2.388635159,-0.12659808990000002,-1.646386027,1.006065488,16.06739998,22.875,-10.8579998,14.5619545,0.9709501266,-3.99343729,
13.29,,13.31337494,,13.31374214,,,,,-2.07810235,1.253153205,2.386274815,,,,-4.6644907,8.18735981,9.704322815,
13.32,13.32183214,,13.32297864,,,-3.248256683,1.809273005,5.98803854,,,,16.76280022,23.65579987,-9.625800133,,,,
13.35,13.37183214,13.36417578,13.37297864,13.36374214,,9.160323143,2.247458696,8.169096947,0.07589777559,-0.4941754341,0.8289197087000001,17.92179871,22.875,-7.673799992,5.73649025,16.52394485,12.62550163,
13.41,13.42183214,13.41497755,13.42297864,13.41374214,,3.3714871410000002,-2.0931215290000003,-1.845464468,0.9755230545999999,3.5620031360000004,-0.7243121266,18.95879936,23.32639885,-5.95359993,3.3437061310000002,6.039997101,2.004252911,
13.44,,13.46578005,,13.46374214,,,,,2.165911674,-1.835595965,0.1055238619,,,,-1.300514936,12.48042297,9.728313446,
13.469999999999999,13.47183214,,13.47297864,,,-1.3235300779999999,2.745464802,10.49372387,,,,19.91040039,23.91199875,-4.05039978,,,,
13.5,13.52183214,13.51658172,13.52297864,13.51374214,,5.088038445,-3.558127165,0.3499503136,4.436278343,2.624352455,-1.252694964,21.50860023,24.68059921,-1.768999934,2.402053118,7.3724255560000005,2.077952147,
13.559999999999999,13.57183214,13.5673826,13.57297864,13.56374214,,19.77578163,-38.18406677,14.72662735,2.278460264,4.447578907,-5.252217293,22.41139984,27.38899994,0.2683999836,14.0540638,-22.35089302,14.95869064,
13.59,,13.61818437,,13.61374214,,,,,5.149289608,-0.841136694,-2.7660691739999996,,,,6.420144081,-52.7129364,5.239778519,
13.62,13.62183214,,13.62297864,,,9.514760017,-51.71308517,8.159524917999999,,,,20.89859962,30.08519936,1.000399947,,,,
13.65,13.67183214,13.66898687,13.67297864,13.66374214,,4.338785648,-11.14277649,-2.867498875,1.5573550459999999,0.511737287,-1.3211098909999999,18.06819916,32.8667984,-0.5611999631,-1.80190897,-10.73313332,-7.30029726,
13.709999999999999,13.72183214,13.71978859,13.72297864,13.71374214,,1.35074842,5.668596745,-3.523730516,-1.821393847,3.7675530910000004,0.03695625812,14.98159981,35.64839935,-2.622999907,-2.757622242,11.77732468,-8.035283089,
13.74,,,,13.76374214,,,,,,,,,,,-7.1860628129999995,9.102027892999999,-10.23995399,
13.77,13.77183214,13.77058948,13.77297864,,,-2.944069147,1.9552352430000002,-5.7571311,-1.866291046,0.1922641695,1.022558331,12.4684,39.0155983,-3.537999868,,,,
13.799999999999999,13.82183214,13.82139125,13.82297864,13.81374214,,-2.652144909,4.526622295,-7.315756321,-2.780424118,-2.703915358,0.5790832043,9.284199715,42.17539978,-5.538799762999999,-6.535330772000001,12.99205875,-10.01749706,
13.86,13.87183214,13.87219375,13.87297864,13.86374214,,-1.4479568,2.400599241,-0.5739783049,0.3840702176,0.0838387832,-1.216655016,5.9779996870000005,45.33519745,-6.685599804,-6.900830269,11.10221291,-4.743170261,
13.889999999999999,,,,13.91374214,,,,,,,,,,,8.383800507,-12.0393219,12.90378475,
13.92,13.92183214,13.92299547,13.92297864,,,5.0042896269999995,-11.83220863,1.910967946,2.399713516,2.962151051,-0.8394568563,2.1959998609999998,48.22660065,-7.832399845,,,,
13.95,13.97183214,13.97379635,13.97297864,13.96374214,,-2.319243431,4.354339123,-3.559622765,2.371461868,-4.9950509069999995,-0.7133168578,-0.7075999975,50.94720078,-10.33339977,-6.5485239029999995,10.39897823,-9.087940216,
14.01,14.02183214,14.02459812,14.02297864,14.01374214,,-4.354339123,-37.85834122,-15.84108448,-1.5926314590000001,-3.5184803010000003,1.105175376,-3.672199965,52.25259781,-11.90719986,-9.727794647,-21.70267868,-16.91784668,
14.04,,,,14.06374214,,,,,,,,,,,4.816245556,-24.82194138,-1.684043646,
14.07,14.07183214,14.07540062,14.07297864,,,13.55115318,-32.2465744,-0.08075776696,-4.614492893,-1.432894945,5.811295509,-4.843400002,54.61940002,-11.28499985,,,,
14.1,14.12183214,14.12620239,14.12297864,14.11374214,,33.26651764,-36.59672546,-10.11446095,-5.670342445,-1.8242952819999998,2.924736738,-4.379799843,56.29079819,-7.039400101,24.42825317,-25.78501892,-9.840154648,
14.16,14.17183214,14.17700328,14.17297864,14.16374214,,5.61715126,-11.33420277,-3.3966116910000004,-1.760614514,-1.986780763,0.607029438,-3.452600002,56.26639938,-3.58679986,9.769244194,-1.117032051,-3.105531693,
14.19,,,,14.21374214,,,,,,,,,,,-4.614086151,9.716901779,12.29536247,
14.219999999999999,14.22183214,14.22780505,14.22297864,,,-2.11585331,4.8236312869999995,8.96889782,-1.275754452,0.5964923501,1.9829629659999999,-1.939799905,56.68119812,1.061399937,,,,
14.25,14.27183214,14.27860755,14.27297864,14.26374214,,6.986443996,-2.255833626,-0.3538386524,0.9747595190999999,0.7733326554000001,-0.7771504520999999,0.1829999983,56.68119812,4.9897999760000005,7.692854404,9.629858017,9.103910446,
14.309999999999999,14.32183214,14.32940927,14.32297864,14.31374214,,5.11196661,6.154638767000001,7.316952705,1.9383710619999999,-0.7944068313,-0.6881194115000001,2.232599974,57.02280045,9.625800133,1.009539723,10.89122772,1.183883429,
14.34,,,,14.36374214,,,,,,,,,,,-2.329249382,8.322225571,7.51381588,
14.37,14.37183214,14.38021015,14.37297864,,,-0.2389831543,-2.749054193,2.624328136,4.438721657,1.734500766,-0.7884510756,4.379799843,58.79179764,13.57859993,,,,
14.399999999999999,14.42183214,,14.42297864,14.41374214,,15.86381626,-19.83081627,6.483652115,,,,6.990599632,60.65839767,16.61639977,7.672814369,-2.5364446640000002,2.173513889,
14.43,,14.43101198,,,,,,,3.305752754,4.0888586039999995,-4.366947174,,,,,,,
14.459999999999999,14.47183214,14.48181448,14.47297864,14.46374214,,12.66042423,-61.60321808,-3.8778681760000002,5.342775345,-0.012980503959999999,-3.559254169,7.2223997120000005,62.59819794,17.12879944,12.12701607,-40.91989517,-3.752352953,
14.49,,,,14.51374214,,,,,,,,,,,1.296564579,-25.93099594,-2.861020565,
14.52,14.52183214,14.53261625,14.52297864,,,5.552545071,-23.57049942,-4.1222352980000005,2.6935310360000004,-1.343863964,-1.738776684,3.977200031,64.00119781,12.30980015,,,,
14.549999999999999,14.57183214,,14.57297864,14.56374214,,6.273083687000001,4.9791646,0.7378866673000001,,,,-0.5367999673,63.45219803,7.868999958,-2.005450726,6.61368084,-6.31095171,
14.58,,14.58341713,,,,,,,-1.566212416,3.47526288,0.5683933496,,,,,,,
14.61,14.62183214,14.6342189,14.62297864,14.61374214,,0.02691925503,2.460419893,-6.401398659,-1.962652206,3.686157703,1.3603568080000001,-4.977600098,65.22119904,0.2805999815,-4.4623608589999995,10.57045746,-9.531382561000001,
14.639999999999999,,,,14.66374214,,,,,,,,,,,-6.508115292,10.3140955,-13.8481369,
14.67,14.67183214,14.68502145,14.67297864,,,-1.936391711,4.648656368,-11.51276684,-2.085432529,-0.6668924689,1.191304922,-8.771800041,67.50260162,-7.319999695,,,,
14.7,14.72183214,,14.72297864,14.71374214,,-2.616252422,3.1190443039999995,-10.96929741,,,,-11.8828001,69.89379883,-14.02999973,-5.977483749,11.92917156,-13.65578079,
14.729999999999999,,14.73582317,,,,,,,-1.499935389,-4.125814915,-0.9405520558,,,,,,,
14.76,14.77183214,14.78662411,14.77297864,14.76374214,,8.449356079,-11.44427204,51.2844696,2.913283348,7.802199364,-2.0591661930000003,-18.22679901,70.90639496,-16.7262001,3.249009609,4.277490616000001,53.68762207,
14.79,,,,14.81374214,,,,,,,,,,,-10.21008205,1.315009117,-25.81196976,
14.82,14.82183214,14.83742588,14.82297864,,,-3.544966698,-1.750648856,-17.51456451,1.762599707,-7.647807597999999,-0.7870767117,-21.27680016,71.41880035,-22.26499939,,,,
14.85,14.87183214,,14.87297864,14.86374214,,-5.204090118,-15.2102766,-9.570991516,,,,-24.74160004,71.10160065,-26.29100037,-9.404396057000001,-0.05695056915,-10.78473663,
14.879999999999999,,14.88822843,,,,,,,1.8723995690000002,-5.462654113999999,1.639666796,,,,,,,
14.91,14.92183214,14.9390302,14.92297864,14.91374214,,10.2592268,-36.75734329,-2.218744755,-5.316509247,3.104325771,6.08113718,-27.37679863,71.78479767,-27.62080002,0.1630616188,-27.81093597,-6.798708438999999,
14.94,,,,14.96374214,,,,,,,,,,,27.93222618,-31.69138527,-13.31182671,
14.969999999999999,14.97183214,14.98983109,14.97297864,,,32.83311462,-41.64109421,-19.04926109,-5.2447347639999995,-6.8107943529999995,1.9034000640000002,-24.38780022,76.04259491,-25.8029995,,,,
15.0,15.02183214,,15.02297864,15.01374214,,9.804291725,-12.86889935,5.758327484,,,,-22.81399918,79.21459961,-19.53219986,16.34370422,-0.638874054,11.61648846,
15.03,,15.04063291,,,,,,,-2.28075099,0.5175403357,0.9300149679,,,,,,,
15.059999999999999,15.07183214,,15.07297864,15.06374214,,-2.288136721,2.580360174,7.551449299,,,,-22.10639954,82.56959534,-13.60299969,-4.252972603,8.307808876000001,7.245751381,
15.09,,15.09143541,,15.11374214,,,,,-1.418387294,0.5192201734,2.04114604,,,,7.864343166,12.91758156,12.3619709,
15.12,15.12183214,15.14223718,15.12297864,,,8.91146946,-0.6924230456,3.397808075,0.9811733961,1.316681266,-0.5302154421999999,-20.70339966,84.08239746,-7.197999954,,,,
15.149999999999999,15.17183214,,15.17297864,15.16374214,,4.7024946210000005,1.761416554,2.50707984,,,,-18.70260048,85.6805954,-1.7201999430000001,3.8395779130000003,8.603281975,1.466963291,
15.18,,15.19303812,,,,,,,2.019919157,-0.8451071978,-0.9588775039,,,,,,,
15.209999999999999,15.22183214,,15.22297864,15.21374214,,-2.652144909,0.5117649436,4.7814579010000005,,,,-17.50699997,88.05960083,4.513999939,-2.482412815,9.95598793,5.876929283,
15.24,,15.24383989,,15.26374214,,,,,4.113140106,1.9516569380000002,0.1241547018,,,,0.8267259598000001,8.727935791,0.3558175564,
15.27,15.27183214,15.29464244,15.27297864,,,5.114359379,-2.375474691,0.5871388315999999,3.679132938,2.1437685490000002,-2.222720385,-14.05439949,90.9265976,7.795799732000001,,,,
15.299999999999999,15.32183214,,15.32297864,15.31374214,,21.51386833,-32.23461151,15.21266937,,,,-10.39439964,93.26899719,8.015399933,16.93715477,-14.28648376,4.169653416,
15.33,,15.34544422,,,,,,,3.689212084,3.7495331760000004,-4.906477928,,,,,,,
15.36,15.37183214,,15.37297864,15.36374214,,9.907182693,-60.22883987,8.784351349,,,,-11.4435997,91.68299866,2.793799877,5.183414459,-60.53252411,3.548872471,
15.389999999999999,,15.39624515,,15.41374214,,,,,3.8206968310000002,-3.262535095,-2.737053871,,,,-3.35869503,-9.951994896,-7.25083828,
15.42,15.42183214,15.44704698,15.42297864,,,4.029812336,-8.463712692,-2.38624239,-1.33210516,4.568831921,0.2124221325,-15.71360016,87.31539917,-7.063799857999999,,,,
15.45,15.47183214,,15.47297864,15.46374214,,4.479962349,7.706085205,0.3092723191,,,,-18.81239891,82.49639893,-17.92179871,0.1716694832,13.9305563,-3.3553540710000003,
15.479999999999999,,15.49784948,,,,,,,-1.6224102969999998,5.75555563,1.473058224,,,,,,,
15.51,15.52183214,,15.52297864,15.51374214,,0.1704886109,3.6000015739999998,-8.031807899,,,,-19.97139931,78.26300049,-29.67039871,-2.421700478,10.71890259,-13.4498682,
15.54,,15.54865125,,15.56374214,,,,,-2.100551128,0.6270347238,0.0109952502,,,,-4.817027092,15.02208138,-15.21875572,
15.57,15.57183214,15.59945218,15.57297864,,,-3.020938635,6.633502482999999,-5.951249122999999,-3.33675313,-3.3805813789999997,-1.5536899569999998,-19.666399,74.01739502,-40.23559952,,,,
15.6,15.62183214,,15.62297864,15.61374214,,-2.661715984,1.65613234,-4.318446636,,,,-20.55699921,70.38179779,-47.92160034,-7.245549202,11.39850426,-10.57681847,
15.629999999999999,,15.65025401,,,,,,,2.401546001,1.63371098,-2.296174765,,,,,,,
15.66,15.67183214,,15.67297864,15.66374214,,5.080859661,-26.49123764,31.91397285,,,,-22.46019936,65.92880249,-52.58200073,-1.825644016,-7.432209492,32.71552658,
15.69,,15.70105656,,15.71374214,,,,,2.004037142,-3.438917398,-0.1487413049,,,,-8.774601936,5.157962799,-23.28966331,
15.719999999999999,15.72183214,,15.72297864,,,-5.8579287529999995,0.15732808410000002,-10.91665554,,,,-23.91199875,60.03619766,-55.98579788,,,,
15.75,15.77183214,15.75185833,15.77297864,15.76374214,,-0.2006980032,-42.03620911,-16.13091469,0.5888567567,-4.889832497,0.5654918551,-25.02219963,55.7173996,-56.0345993,-9.357722282000001,-23.3230648,-18.79161453,
15.78,,15.80265927,,,,,,,-1.439614296,-6.325781345,5.353465557,,,,,,,
15.809999999999999,15.82183214,,15.82297864,15.81374214,,13.34058475,-32.79243851,1.95164597,,,,-25.69319916,55.33919907,-52.39899826,7.232696056,-25.47443008,-0.7521569133,
15.84,,15.85346109,,15.86374214,,,,,-8.887827872999999,2.616411448,4.731775761000001,,,,37.29343796,-30.61621094,-14.19760895,
15.87,15.87183214,,15.87297864,,,42.17260361,-31.57867813,-20.25105667,,,,-25.63220024,57.84019852,-45.98180008,,,,
15.899999999999999,15.92183214,15.90426364,15.92297864,15.91374214,,3.668197155,-10.01515961,4.094418526,0.6458182931,-5.618725777000001,0.7064448595,-27.30360031,60.47539902,-37.56380081,8.434394836000001,-0.06462287903,14.55181694,
15.93,,15.95506541,,,,,,,-2.346264362,2.5113458630000003,2.4853847030000003,,,,,,,
15.959999999999999,15.97183214,,15.97297864,15.96374214,,1.736291885,7.4952178,8.137989998,,,,-26.99860001,60.54859924,-26.02260017,-3.1043205260000004,15.02021313,14.69082069,
15.99,,16.00586635,,16.01374214,,,,,1.476723194,0.22066856920000003,-0.47936239840000006,,,,7.205402374,7.162505627000001,2.370803356,
16.02,16.02183214,,16.02297864,,,6.502794743,-2.219941139,-0.518943429,,,,-26.59599876,61.07320023,-19.87380028,,,,
16.05,16.07183214,16.05666817,16.07297864,16.06374214,,3.251846075,3.3296127319999997,7.8341012,0.7890619636,-0.2341072112,-0.7227849959999999,-25.32719994,61.75639725,-14.24959946,3.0556564330000002,12.19384384,6.673893929,
16.08,,16.10747073,,,,,,,3.356605768,0.5322006940999999,-0.58503896,,,,,,,
16.11,16.12183214,,16.12297864,16.11374214,,-3.34875536,1.67288208,5.595615864,,,,-24.16819954,63.54979706,-8.33259964,-3.06690836,11.1903944,8.242793082999999,
16.14,,16.1582725,,16.16374214,,,,,4.6048722269999995,1.606528282,-0.9680401683,,,,2.546451092,7.115408897000001,0.5554486513,
16.169999999999998,16.17183214,,16.17297864,,,5.535795212000001,-5.822933674,0.8599206209,,,,-21.22799873,64.90399933,-4.697000027,,,,
16.2,16.22183214,16.20907343,16.22297864,16.21374214,,29.79273605,-49.89364243,22.83051872,3.197021723,2.186069727,-6.592416286000001,-17.76319885,63.51319885,-5.111799717,23.68435097,-27.72703552,12.90556335,
16.23,,16.25987531,,,,,,,3.476942539,-0.001985253533,-4.392449856,,,,,,,
16.259999999999998,16.27183214,,16.27297864,16.26374214,,7.73599577,-44.42783737,0.1250249892,,,,-16.9946003,58.16959763,-8.796199799,5.786226749,-46.31680679,-1.089967966,
16.29,,16.31067786,,16.31374214,,,,,0.6587987542,1.5669759509999999,-0.8246437906999999,,,,-5.047670364,-0.03821992874,-5.563364983,
16.32,16.32183214,,16.32297864,,,1.784148335,-0.6708876491,-1.648953915,,,,-17.604599,51.20339966,-14.51799965,,,,
16.349999999999998,16.37183214,16.36147963,16.37297864,16.36374214,,-2.606681108,3.942474365,-5.6566329,-1.726254344,5.678588867,0.5050179958,-18.70260048,44.05419922,-23.49720001,-6.334114075,12.11683464,-8.625572205,
16.41,16.42183214,16.41228057,16.42297864,16.41374214,,-3.10947299,5.7355957029999995,-9.585348129,-2.177670479,2.244558334,1.726101637,-17.56799889,38.46659851,-29.58499908,-6.015151024,12.0500679,-13.46156311,
16.439999999999998,,16.46308239,,16.46374214,,,,,-3.11379385,-3.225273609,-0.155766055,,,,-4.819391727,15.02484417,-9.893608093,
16.47,16.47183214,,16.47297864,,,-2.029711723,5.944070339,-5.670989512999999,,,,-16.29920006,34.09899902,-34.41619873,,,,
16.5,16.52183214,16.513885,16.52297864,16.51374214,,-0.480658263,0.8949156404,0.9750752449,-1.075396657,-3.4584643839999996,-1.135565042,-15.94539928,30.76840019,-37.11240005,-5.608149528999999,10.12936306,-3.589289188,
16.56,16.57183214,16.56468677,16.57297864,16.56374214,,4.51346159,-11.95902824,0.6158527136,2.595337391,0.8922951221,-1.387539506,-15.93319988,27.49880028,-38.96680069,3.7031059269999997,-8.76584816,8.433525085,
16.59,,16.6154877,,16.61374214,,,,,2.629239321,-6.299820423,-1.185043693,,,,-7.867683411000001,-0.1671538353,-7.849644661,
16.62,16.62183214,,16.62297864,,,-1.936391711,-18.28684807,-8.666205406,,,,-16.20159912,24.98559952,-38.97900009,,,,
16.65,16.67183214,16.66628953,16.67297864,16.66374214,,1.927717686,-31.85175896,-2.544467688,-0.0823116675,-6.651362896,3.862234592,-17.18980026,24.00959969,-36.79520035,-7.898600578,-33.45635605,-9.9192276,
16.71,16.72183214,16.71709213,16.72297864,16.71374214,,20.86750793,-28.74886703,-3.147758245,-5.995465755,4.715588093,6.291115761,-17.3239994,25.72979927,-33.51340103,10.8541069,-17.17819405,-2.493588448,
16.74,,16.7678939,,16.76374214,,,,,-1.83590138,-5.732648848999999,2.7740101810000004,,,,45.59820175,-8.481498718,53.38011169,
16.77,16.77183214,,16.77297864,,,26.38356209,-8.336893082000001,21.80130577,,,,-17.604599,28.54800034,-28.4503994,,,,
16.8,16.82183214,16.81869489,16.82297864,16.81374214,,0.05324030295,-5.34676218,-2.532503605,-2.9140467639999996,4.306931496,1.83590138,-18.86120033,30.96360016,-22.97259903,1.951082706,2.690555573,6.122457504,
16.86,16.87183214,16.86949672,16.87297864,16.86374214,,7.1422762870000005,5.12273407,6.921837807,0.20432840289999998,-0.52929914,0.6468872428,-19.33699989,32.5739975,-17.87299919,4.011352062,16.59719467,10.2679615,
16.89,,,,16.91374214,,,,,,,,,,,5.1245927810000005,8.147277832,1.84991622,
16.919999999999998,16.92183214,16.92029927,16.92297864,,,4.7024946210000005,1.0863415,-4.8427739139999995,0.44103172420000003,1.9516569380000002,-1.057834744,-18.58059883,33.48899841,-14.0788002,,,,
16.95,16.97183214,16.97110109,16.97297864,16.96374214,,-0.6816553473,1.335195065,3.871886253,2.7026937010000003,-0.184781298,-0.9086353183,-17.93400002,34.70899963,-10.08939934,-0.4892010689,11.31914234,8.794370651,
17.009999999999998,17.02183214,17.02190203,17.02297864,17.01374214,,0.09152546525000001,-0.3933202326,1.523031592,4.021818161000001,1.880493283,-0.5741963983,-16.25040054,36.27059937,-7.2223997120000005,-3.26492691,8.793551445,3.4542551039999996,
17.04,,,,17.06374214,,,,,,,,,,,9.128715515,-4.0304384230000005,0.05890184641,
17.07,17.07183214,17.0727039,17.07297864,,,16.68515205,-21.46601105,8.20498848,2.739191771,2.219513416,-4.296088696,-13.0661993,37.20999908,-6.892999649,,,,
17.099999999999998,17.12183214,17.12350645,17.12297864,17.11374214,,19.11027718,-71.08388519,-0.7465606928,4.151623249,0.7959339619,-5.220606327,-10.57740021,35.56299973,-8.100799561,20.26212311,-51.87296677,5.879713535,
17.16,17.17183214,17.17430828,17.17297864,17.16374214,,2.784946442,-19.48146439,-2.63539505,1.509250879,-0.974606812,-1.806428075,-10.00399971,31.46379852,-11.00440025,-2.796044827,-20.34316826,-5.655484676,
17.189999999999998,,,,17.21374214,,,,,,,,,,,-3.374211788,9.5677948,-2.001230717,
17.22,17.22183214,17.22510922,17.22297864,,,2.303689957,4.828416824,1.4344971180000001,-1.77542758,4.854097843,0.4482091665,-9.747799873,27.32799911,-14.31059933,,,,
17.25,17.27183214,17.27591109,17.27297864,17.26374214,,-4.148556232,-0.2518445849,-6.803392887,-1.311641812,3.39356184,1.720756769,-9.162199974,23.52159882,-17.94619942,-8.847131728999999,7.150772572,-11.51002884,
17.31,17.32183214,17.32671364,17.32297864,17.31374214,,-1.52931273,6.564110756,-10.08574772,-1.561020136,0.1792836636,1.599656224,-7.8079996110000005,20.19099998,-20.93519974,-6.118756294,13.05511093,-13.56071472,
17.34,,,,17.36374214,,,,,,,,,,,-5.750095367,12.96465683,-12.51882648,
17.37,17.37183214,17.37751547,17.37297864,,,-3.4995031360000004,5.0700922010000005,-8.129914284,-1.48787117,-4.632359982,-0.09590301662999999,-6.136600017999999,17.37279892,-23.18000031,,,,
17.4,17.42183214,17.4283164,17.42297864,17.41374214,,5.571687698,-2.883052111,47.40361023,1.701515079,2.7686653139999997,-1.392273664,-5.0507998469999995,15.16459942,-24.08279991,-4.1230678560000005,10.64240456,-0.6360559464,
17.46,17.47183214,17.47911828,17.47297864,17.46374214,,0.8001000881,-3.742673635,-12.11845016,2.8928198810000003,-5.767467022000001,-0.7893673778,-3.916199923,13.44439983,-23.88759995,-4.134818077,0.11512327189999999,-19.74650574,
17.49,,,,17.51374214,,,,,,,,,,,-8.736950874,-19.55939484,-17.17283058,
17.52,17.52183214,17.52992088,17.52297864,,,-5.3168520930000005,-38.87828445,-16.78206253,1.072342396,-7.2654170989999995,2.192483425,-3.135400057,12.33419991,-23.15559959,,,,
17.55,17.57183214,,17.57297864,17.56374214,,7.175776005,-24.73879433,1.331605792,,,,-4.221199989,11.37039948,-22.56999969,-0.9736213684,-20.76276779,-1.8834728,
17.58,,17.5807227,,,,,,,-3.6185064319999998,2.759349823,5.346898556,,,,,,,
17.61,17.62183214,17.63152364,17.62297864,17.61374214,,36.19443512,-36.16811371,-20.19602203,-6.46200037,-5.7497525220000005,3.9706599710000003,-2.647399902,12.11460018,-20.44719887,27.92310715,-24.53776169,-6.987975121,
17.64,,,,17.66374214,,,,,,,,,,,14.9143343,-2.9937047960000003,20.43167305,
17.669999999999998,17.67183214,17.68232552,17.67297864,,,6.26590538,-14.10658646,17.274086,-1.377766013,2.011978149,1.417471051,-1.817799926,12.94419956,-17.82419968,,,,
17.7,17.72183214,,17.72297864,17.71374214,,1.4946168659999999,2.867498875,4.166203499,,,,-1.232200027,13.57859993,-14.98159981,0.2838048935,7.492770195,5.834172249,
17.73,,17.73312812,,,,,,,-1.151141644,0.1514901221,1.731446505,,,,,,,
17.759999999999998,17.77183214,17.78392994,17.77297864,17.76374214,,7.269095898,-2.188834429,1.5206388240000002,0.7379034757999999,2.452399015,-1.227192163,-0.23179998989999998,13.84700012,-12.33419991,7.555360317000001,9.563545227,9.405605316,
17.79,,,,17.81374214,,,,,,,,,,,5.2866745,11.60453987,1.809802055,
17.82,17.82183214,17.83473088,17.82297864,,,5.435296535,4.165007114,6.194120407000001,1.5145957469999998,-0.6116108297999999,-1.1022738220000001,1.366400003,14.20079994,-9.881999968999999,,,,
17.849999999999998,17.87183214,,17.87297864,17.86374214,,-2.97039032,1.292124271,4.101597309,,,,2.915799856,15.04259968,-7.417599677999999,-1.629682064,11.03604889,4.8476409910000005,
17.88,,17.88553276,,,,,,,3.4163160319999997,1.321568012,-0.3147390485,,,,,,,
17.91,17.92183214,17.93633536,17.92297864,17.91374214,,1.590329766,-1.432403445,-0.2365903407,3.581397533,0.8448017836,-1.839719176,5.2825999260000005,16.33580017,-5.136199951,-0.7393175364,8.676562309,0.8636317253,
17.939999999999998,,,,17.96374214,,,,,,,,,,,18.83152771,-17.13809586,8.820900917000001,
17.97,17.97183214,17.98713718,17.97297864,,,28.58376122,-38.95246124,18.74387741,3.21794343,2.625268698,-7.014969826000001,8.088600159,17.97060013,-3.330600023,,,,
18.0,18.02183214,,18.02297864,18.01374214,,12.30150127,-50.37011337,5.47597456,,,,8.906000137000001,19.86159897,-2.525399923,9.868326187000001,-56.0364418,-1.884489179,
18.029999999999998,,18.03793817,,,,,,,2.546316862,-1.780925155,-2.969022989,,,,,,,
18.06,18.07183214,18.08874005,18.07297864,18.06374214,,2.5477578640000003,-5.9213385579999995,-2.0416758059999998,-1.199398637,4.420396328,-0.2712161839,8.161799431,21.88679886,-3.184200048,-5.114509583,-4.17599678,-5.0433321,
18.09,,,,18.11374214,,,,,,,,,,,-6.49282074,11.4863472,-6.435489177999999,
18.12,18.12183214,18.13954265,18.12297864,,,-2.439183474,3.377469063,-4.213162422,-1.327981949,4.593724251,1.052795291,6.795399666000001,24.3512001,-4.367599964,,,,
18.15,18.17183214,,18.17297864,18.16374214,,-3.9664025310000004,4.337589264,-11.5773735,,,,5.392399788,27.20599937,-5.489999771,-8.285757065,10.0334549,-14.36583233,
18.18,,18.19034448,,,,,,,-2.492562294,0.04566083103,0.9265025854000001,,,,,,,
18.21,18.22183214,,18.22297864,18.21374214,,-4.50269413,6.13549614,-4.768596649,,,,3.940599918,30.43899918,-6.185400008999999,-7.78482151,15.3367691,-8.723052979,
18.24,,18.24114547,,18.26374214,,,,,-2.5985441209999998,-1.7751221659999998,-0.750120461,,,,-9.285335541,11.49764633,-5.688792229,
18.27,18.27183214,18.29194734,18.27297864,,,1.247856975,0.5979065299,30.4319191,2.963220119,3.6901283260000004,-1.732362866,1.903199911,34.12339783,-5.782799721,,,,
18.3,18.32183214,,18.32297864,18.31374214,,3.088835001,-10.08215809,-4.761417866,,,,-1.061399937,38.25920105,-5.95359993,3.4401640889999996,-9.494045258,6.381354808999999,
18.33,,18.34274994,,,,,,,1.906454325,-6.487656116,0.12140589210000001,,,,,,,
18.36,18.37183214,,18.37297864,18.36374214,,-0.5404788256,-3.6852459910000004,-8.18734169,,,,-4.648200035,42.34619904,-6.453799725,-7.522941588999999,7.965067863,-12.05457783,
18.39,,18.39355177,,18.41374214,,,,,0.7571451664,-3.794583082,-0.2310529798,,,,-6.8336043360000005,-42.35791016,-20.54219055,
18.419999999999998,18.42183214,18.44435281,18.42297864,,,3.986741543,-44.48765945,-10.78235817,-3.330644608,-6.904406548,6.382437706,-7.8079996110000005,45.92079926,-6.648999691,,,,
18.45,18.47183214,,18.47297864,18.46374214,,20.28096581,-35.47389603,0.9460622668,,,,-8.015399933,49.22699738,-4.123600006,12.11908054,-24.42945099,5.287396908,
18.48,,18.49515468,,,,,,,-3.894456625,-2.280598164,5.546798706000001,,,,,,,
18.509999999999998,18.52183214,,18.52297864,18.51374214,,29.9243412,-5.430510998,-4.284946918,,,,-6.026799679,51.37419891,-0.1586000025,40.45608521,0.5053873061999999,20.42542648,
18.54,,18.54595729,,18.56374214,,,,,-0.9213103652,0.1021642014,0.6644490957,,,,-0.8187403083,6.026195049,8.40230751,
18.57,18.57183214,18.59675911,18.57297864,,,-3.78933382,-2.1242282390000002,0.8383852243000001,-0.9915578365000001,0.49661880729999996,2.287470341,-1.512799978,54.65599823,-0.37819999460000003,,,,
18.599999999999998,18.62183214,,18.62297864,18.61374214,,6.26590538,2.9727830889999995,3.086441994,,,,0.8295999765000001,55.79059982,3.342799902,3.861957073,16.24856567,8.715813637,
18.63,,18.64756015,,,,,,,1.127929449,0.8919897079000001,-0.4770717025,,,,,,,
18.66,18.67183214,,18.67297864,18.66374214,,6.215655804,0.9643075466,-3.1190443039999995,,,,3.501399994,57.01059723,5.8193998339999995,6.5474295620000005,8.398558617,-0.035450935360000005,
18.689999999999998,,18.69836203,,18.71374214,,,,,0.8393041492000001,-0.9141329527,-0.635891974,,,,1.857501984,11.92495155,9.361484528,
18.72,18.72183214,18.74916463,18.72297864,,,1.310070395,2.297708035,3.9652061460000003,2.102383614,2.255400896,-0.15271180869999998,6.380599976,58.43799973,9.003600121,,,,
18.75,18.77183214,,18.77297864,18.76374214,,1.156929731,0.8973084687999999,2.0593230719999998,,,,9.467200279,60.29240036,12.12679958,-1.172384024,11.72914505,4.117086411,
18.779999999999998,,18.79996651,,,,,,,3.487785101,2.534252644,-1.46282649,,,,,,,
18.81,18.82183214,,18.82297864,18.81374214,,15.33709621,-14.82473278,-1.3737792969999998,,,,12.41959953,62.74459839,13.84700012,9.268606186,-0.8835172653,-3.3236112589999998,
18.84,,18.8507675,,18.86374214,,,,,2.717812061,3.916294575,-6.7874293329999995,,,,24.79970551,-43.28658295,13.77303123,
18.87,18.87183214,,18.87297864,,,20.87229347,-57.48517227,2.847159863,,,,11.10200024,65.41639709,12.22439957,,,,
18.9,18.92183214,18.90156942,18.92297864,18.91374214,,3.4911282060000004,-27.11367226,-1.615454435,3.653782845,-0.6412369013,-2.9455053810000003,5.001999855,67.83200073,6.917399883,0.4284911156,-30.26232529,-0.8253207207,
18.93,,18.95237203,,,,,,,0.11056335269999999,1.765959382,0.1994416267,,,,,,,
18.96,18.97183214,,18.97297864,18.96374214,,7.019943237000001,3.8706896310000003,2.270190477,,,,-0.9393999577,68.71039581,1.036999941,-0.8399348259,7.896965027,-4.557356834,
18.99,,19.0031739,,19.01374214,,,,,-1.543152928,6.469177723,1.026070714,,,,-1.4678151609999999,9.373159409,-13.10817337,
19.02,19.02183214,,19.02297864,,,0.646959424,0.5069792867,-10.83769226,,,,-6.380599976,70.7477951,-6.783199787,,,,
19.05,19.07183214,19.05397489,19.07297864,19.06374214,,-4.478765965,6.090032578,-11.17986584,-2.107117653,1.4612993,0.39689800140000003,-10.71159935,73.72460175,-14.33500004,-6.657046795,13.34641075,-19.53525162,
19.08,,19.10477682,,,,,,,-2.2214987280000003,-0.15759859980000002,-0.1102579311,,,,,,,
19.11,19.12183214,,19.12297864,19.11374214,,-5.228018284,2.664108992,-9.417850494,,,,-14.70099926,75.38379669,-20.64239883,-8.610383987,10.66185951,-13.19813347,
19.14,,19.15557948,,19.16374214,,,,,2.037328243,-0.8733588456999999,-1.5371971130000002,,,,3.556364059,3.759301662,40.54553986,
19.169999999999998,19.17183214,,19.17297864,,,2.576471806,-14.02044487,34.39891815,,,,-20.37400055,76.06700134,-25.08320045,,,,
19.2,19.22183214,19.20638135,19.22297864,19.21374214,,-5.235197067,0.2721835673,-15.30239964,1.9896821980000001,-1.5109306569999998,-0.8999307156,-24.99779892,75.18859863,-31.24419975,-8.130336761,4.460072994,-19.05804062,
19.23,,19.25718239,,,,,,,1.244295835,-1.258039951,-0.2987042964,,,,,,,
19.259999999999998,19.27183214,,19.27297864,19.26374214,,-1.550848126,-25.64148712,-14.73021603,,,,-27.8769989,73.40740204,-36.51459885,-5.480306625,-5.139352322,-17.27691078,
19.29,,19.30798432,,19.31374214,,,,,-3.9039249419999997,-6.314480782,4.53187561,,,,5.570217133,-27.78596497,-13.43667984,
19.32,19.32183214,,19.32297864,,,14.62852097,-35.76133347,-6.051747799,,,,-29.0237999,73.96859741,-37.50279999,,,,
19.349999999999998,19.37183214,19.35878698,19.37297864,19.36374214,,43.214077,-50.94229507,-15.43669701,-9.073983192,-3.713798523,4.527294636000001,-26.55939865,77.07959747,-34.97739792,35.58815384,-37.74486542,-17.49120712,
19.38,,19.40958885,,,,,,,0.02489202656,-3.499543905,0.8469397426,,,,,,,
19.41,19.42183214,,19.42297864,19.41374214,,7.546663284,-12.16271782,5.820540905,,,,-25.83959961,79.62940216,-26.9863987,10.63560486,-3.663549423,15.80063152,
19.439999999999998,,19.46038989,,19.46374214,,,,,-2.020377398,2.144990206,2.7908084389999996,,,,-2.345917225,14.98562908,16.98563957,
19.47,19.47183214,,19.47297864,,,0.7259225845,9.527920723,7.027122021,,,,-25.85179901,81.39839935,-18.39760017,,,,
19.5,19.52183214,19.51119182,19.52297864,19.51374214,,7.34327364,-0.19920247789999998,0.07716853172,1.370741248,-0.3031329513,-1.018435121,-25.13199997,82.59400177,-11.33379936,8.651536942,11.61073685,5.944826126000001,
19.56,19.57183214,19.56199453,19.57297864,19.56374214,,1.602293849,3.722334623,9.380462646,0.9727742672,0.4262186885,-1.845674992,-24.47319984,83.16739655,-5.258199692,2.524748325,13.85790443,13.03447914,
19.59,,19.6127964,,19.61374214,,,,,3.4627404210000003,0.8809944391,-0.7530219555,,,,-7.038598537,7.974421978,6.538754462999999,
19.62,19.62183214,,19.62297864,,,-4.256233215,-2.004587173,3.687339783,,,,-24.38780022,85.13159943,1.195600033,,,,
19.65,19.67183214,19.66359744,19.67297864,19.66374214,,7.685746193,-9.098110199,0.931705296,4.426352024,1.9221836330000002,-1.10807693,-23.72900009,87.15679932,4.916599751000001,1.852199793,4.2632341380000005,1.392795086,
19.71,19.72183214,19.71439942,19.72297864,19.71374214,,28.53351212,-48.87130737,14.90130329,3.459991693,3.446247578,-5.734481335,-23.39959908,85.72940063,3.623399973,24.90489006,-36.59278107,16.36042023,
19.74,,19.76520213,,19.76374214,,,,,3.780839205,-1.687618256,-3.369586229,,,,2.280637741,-41.5138855,-1.715171814,
19.77,19.77183214,,19.77297864,,,3.21356082,-41.84239197,-2.573181629,,,,-25.13199997,79.37319946,-4.209000111,,,,
19.8,19.82183214,19.81600401,19.82297864,19.81374214,,3.843172312,-1.765005827,1.051645517,-0.053449135269999996,0.9129112362999999,-0.6575770974,-29.26779938,70.82099915,-14.56680012,-3.5432829860000004,-1.59433651,-4.678457737,
19.86,19.87183214,19.8668051,19.87297864,19.86374214,,-2.17806673,3.815654755,-5.129912853,-2.063136578,4.953818321,1.112200141,-31.93959999,62.76899719,-26.42519951,-5.855736732,12.33308029,-8.429189682,
19.89,,19.91760708,,19.91374214,,,,,-2.164079189,1.222916245,2.214168549,,,,-7.494330406,10.09979916,-11.95023727,
19.919999999999998,19.92183214,,19.92297864,,,-3.9305102830000003,3.830011845,-11.23250771,,,,-32.78139877,55.35139847,-38.10059738,,,,
19.95,19.97183214,19.96840979,19.97297864,19.96374214,,-3.265006542,6.389135361,-5.328815937,-3.1376168730000003,0.03023693897,0.5598415136,-31.71999931,48.71459961,-48.45840073,-5.746696472000001,15.13275528,-8.596351624,
20.009999999999998,20.02183214,20.01921172,20.02297864,20.01374214,,-0.2054836452,-0.20398813489999998,6.3113689420000005,0.9987352490000001,-0.805249393,-1.546665311,-29.79240036,42.80979919,-56.47380066,-5.033454418,10.33497238,-5.328531265,
20.04,,,,20.06374214,,,,,,,,,,,-0.7710201740000001,-2.8901348110000002,4.626322269,
20.07,20.07183214,20.07001281,20.07297864,,,1.133001566,-5.061717033,-2.484647274,2.307170153,-4.880822182,-1.7702353,-28.4625988,35.53860092,-61.58559799,,,,
20.099999999999998,20.12183214,20.12081479,20.12297864,20.11374214,,-0.8494520187000001,-4.944468975,-6.913762093,2.122083426,1.494895935,-0.7618792653,-27.05959892,28.71879959,-63.70839691,-8.327466011,7.493985652999999,-9.411626816,
20.16,20.17183214,20.1716175,20.17297864,20.16374214,,3.627519131,-41.74877167,-14.59861088,-2.286706686,-6.923037529,3.795652151,-24.9368,24.22920036,-63.79380035,-4.901517868,-42.83215714,-24.79078102,
20.189999999999998,,,,20.21374214,,,,,,,,,,,10.23080921,-20.73429108,2.699468374,
20.22,20.22183214,20.22241942,20.22297864,,,20.07518387,-32.38087082,2.375474691,-6.68755579,-2.7454531189999996,5.821985245,-23.81439972,24.72939873,-61.86619949,,,,
20.25,20.27183214,20.27322057,20.27297864,20.26374214,,36.61586761,-11.63839054,21.1956234,0.002596100792,-5.854054927999999,2.698112249,-24.24139977,27.91359901,-56.38839722,54.93408966,-14.60373116,53.35664749,
20.31,20.32183214,20.32402255,20.32297864,20.31374214,,3.95802784,-2.548057079,-8.455337523999999,-2.609081268,4.580896378,2.16514802,-26.41300011,30.48779869,-50.28839874,7.363490105,6.288339615,-0.8067846298000001,
20.34,,,,20.36374214,,,,,,,,,,,1.866394162,17.8502388,8.095560074,
20.37,20.37183214,20.37482526,20.37297864,,,5.181358337,6.877570629,3.4743785860000003,0.2773246467,0.38620817659999995,0.1910424829,-27.88920021,32.20800018,-45.16439819,,,,
20.4,20.42183214,20.42562724,20.42297864,20.41374214,,7.180561543,2.798106909,2.129014015,0.9115368128,1.45396924,-1.3064495329999999,-28.7553997,32.51300049,-41.6629982,5.772711277000001,8.954677582,2.6804566380000003,
20.46,20.47183214,20.47642833,20.47297864,20.46374214,,-1.3187444209999999,-0.22073788940000003,1.987538338,2.866706133,0.6856760383,-0.8157865405,-28.53579903,33.42799759,-38.47879791,-0.5639901757,9.405917168,4.643204212,
20.49,,,,20.51374214,,,,,,,,,,,-3.1608896260000003,8.724565506,3.5351362230000003,
20.52,20.52183214,20.52723036,20.52297864,,,0.9053842425,-0.5751747489,1.56879437,3.934467077,2.8453264239999996,-0.07009471953,-26.77899933,34.19659805,-36.61219788,,,,
20.55,20.57183214,20.57803307,20.57297864,20.56374214,,17.86301994,-18.90449524,2.5740790369999997,3.996926308,0.44194799659999995,-4.875782967,-23.96080017,33.67200089,-35.45319748,9.538351059,-2.737805367,-1.843179226,
20.61,20.62183214,20.62883505,20.62297864,20.61374214,,19.81167412,-59.30730438,-1.4192429780000002,2.7877540589999996,0.5250232220000001,-5.630637169,-18.51959991,28.37719917,-36.70980072,19.25575256,-50.53883743,12.02170753,
20.64,,,,20.66374214,,,,,,,,,,,-2.144163609,-20.6512661,-1.685569525,
20.669999999999998,20.67183214,20.67963619,20.67297864,,,2.375474691,-17.53490257,6.158228397,-0.23456534739999998,0.01527118124,-0.8677085042,-12.62699986,19.81279945,-40.1989975,,,,
20.7,20.72183214,,20.72297864,20.71374214,,4.649852753,3.5784661769999997,-0.2700898647,,,,-6.990599632,11.67539978,-43.55400085,-1.148284912,10.1964941,-0.8128561973999999,
20.73,,20.73043822,,,,,,,-2.058707952,6.557139874,0.7540909648,,,,,,,
20.759999999999998,20.77183214,20.78124098,20.77297864,20.76374214,,-3.47557497,-1.037288666,-9.745966911,-2.232646704,1.9712041619999998,1.6651695969999998,-0.9271999598,4.379799843,-45.4571991,-8.110202789,5.65491581,-14.66966629,
20.79,,,,20.81374214,,,,,,,,,,,-6.361480713,12.80963135,-12.78599167,
20.82,20.82183214,20.83204291,20.82297864,,,-3.52582407,5.034199715,-5.889035702,-1.947686434,-0.7424848676000001,0.7496622801,5.062999725,-1.878799915,-46.0428009,,,,
20.849999999999998,20.87183214,,20.87297864,20.86374214,,-5.800201893,5.726024627999999,-6.0397834779999995,,,,10.89459991,-6.6977996829999995,-45.62799835,-8.626693726000001,14.11690998,-10.11271763,
20.88,,20.88284406,,,,,,,-0.7852441669,-1.68945086,-1.2687298059999998,,,,,,,
20.91,20.92183214,20.93364609,20.92297864,20.91374214,,4.101597309,-16.4336071,41.74877167,3.880407095,1.29148376,-1.980214119,16.38459969,-9.723400116,-43.71260071,-1.6255249980000002,0.3065748215,20.23818398,
20.939999999999998,,,,20.96374214,,,,,,,,,,,-7.14926815,5.906880856,-18.75692749,
20.97,20.97183214,20.98444885,20.97297864,,,-2.451147795,0.9451649189,-12.02034473,2.5733468530000003,-5.242596626,-0.07589777559,20.8253994,-10.77260017,-40.7845993,,,,
21.0,21.02183214,,21.02297864,21.01374214,,-5.242674351000001,-40.83920288,-20.27498436,,,,23.74119949,-10.10159969,-38.36899948,-10.21795845,-17.29629135,-17.5079155,
21.029999999999998,,21.03525083,,,,,,,-1.13357985,-4.307389259,3.770454645,,,,,,,
21.06,21.07183214,21.08605203,21.07297864,21.06374214,,16.95793343,-35.35186005,-4.306482315,-9.208522797,0.8480086923000001,5.282454491,25.72979927,-8.94260025,-36.80739975,8.90694809,-27.89375305,-4.650364399,
21.09,,,,21.11374214,,,,,,,,,,,42.74124146,-37.62501526,-17.65617561,
21.119999999999997,21.12183214,21.13685406,21.12297864,,,55.18207932,-33.46302795,78.25157928,-0.7623373865999999,-7.75440073,1.447860718,27.19379997,-6.917399883,-35.27019882,,,,
21.15,21.17183214,,21.17297864,21.16374214,,2.8064818380000003,-6.917052269,-2.324028969,,,,25.98600006,-5.2093997,-34.83099747,6.219944954,1.083802223,11.3378191,
21.18,,21.18765682,,,,,,,-2.8963322639999998,3.7841987610000003,2.411166906,,,,,,,
21.21,21.22183214,21.2384588,21.22297864,21.21374214,,4.685744762,10.91396332,6.830910206,0.8858812451000001,-0.5654918551,0.25029465559999997,25.01000023,-3.501399994,-34.06240082,1.85029161,19.64992523,11.80724716,
21.24,,,,21.26374214,,,,,,,,,,,6.564004897999999,6.296904087000001,2.454073906,
21.27,21.27183214,21.28926,21.27297864,,,5.851647853999999,-2.385046005,-1.03848505,0.1516428292,1.435185671,-0.8637380004,24.32679939,-2.208199978,-33.25719833,,,,
21.3,21.32183214,,21.32297864,21.31374214,,0.9197412133,2.340778828,6.567400932000001,,,,23.77779961,-0.9759999514,-32.35440063,2.164971352,12.90022659,13.14484787,
21.33,,21.34006203,,,,,,,3.17579484,-0.41339087490000004,-0.47142136100000004,,,,,,,
21.36,21.37183214,,21.37297864,21.36374214,,-2.9919257160000003,-0.1250249892,3.428914785,,,,23.26539993,0.2805999815,-31.70779991,-5.025835991,9.482266426,7.077619553,
21.39,,21.39086479,,21.41374214,,,,,4.330601692,1.807038903,-0.1421747059,,,,3.992201567,3.9332790369999997,0.8657938242000001,
21.419999999999998,21.42183214,21.44166682,21.42297864,,,9.222537041,-12.49532032,1.631007791,3.6236987110000003,1.273921967,-5.260769367,23.72900009,1.3054000140000002,-30.29259872,,,,
21.45,21.47183214,,21.47297864,21.46374214,,26.65873528,-56.75984573,18.46391678,,,,24.52199936,2.927999973,-28.32839966,27.79132271,-36.42862701,16.41015434,
21.48,,21.49246797,,,,,,,4.431086063,-0.9761339426000001,-5.829162598,,,,,,,
21.509999999999998,21.52183214,,21.52297864,21.51374214,,3.1510484219999997,-33.07987595,-3.202793121,,,,24.43659973,4.294399738,-27.09619904,-0.3183989525,-35.41149521,-5.710477828999999,
21.54,,21.54327,,21.56374214,,,,,0.8131904006,0.1180462316,-1.57537508,,,,-2.972106695,5.572172165,-2.423832893,
21.57,21.57183214,21.59407281,21.57297864,,,4.249952316,3.425325632,2.93090868,-1.8239898680000002,6.5294990539999995,0.293664813,24.65620041,5.502200127,-25.97379875,,,,
21.599999999999998,21.62183214,,21.62297864,21.61374214,,-1.340279818,0.5548357368,-7.007081985,,,,24.54640007,6.856400012999999,-24.87579918,-5.383674145,9.764924049,-9.808960915,
21.63,,21.64487484,,,,,,,-1.549108624,3.698680162,1.57797122,,,,,,,
21.66,21.67183214,,21.67297864,21.66374214,,-3.298506021,5.393422127000001,-14.9219408,,,,24.54640007,8.405799866,-23.39959908,-6.007956505,11.14240456,-21.32193756,
21.689999999999998,,21.69567598,,21.71374214,,,,,-2.842577696,-1.768097401,0.765697062,,,,-7.005131721000001,12.92439556,-12.12452698,
21.72,21.72183214,21.74647802,21.72297864,,,-4.186841488,4.840381145,-8.105985641,-2.071535826,-3.665694475,-1.274990916,24.26580048,10.12599945,-22.05760002,,,,
21.75,21.77183214,,21.77297864,21.76374214,,5.820540905,-2.143370867,43.74319077,,,,23.37520027,12.73680019,-20.5326004,-7.032736301,9.658729552999999,-2.358458042,
21.779999999999998,,21.79728083,,,,,,,3.5273375510000005,1.951198816,-2.236006498,,,,,,,
21.81,21.82183214,,21.82297864,21.81374214,,-0.2724826932,-6.541378975,-12.20698452,,,,21.48419952,16.20159912,-19.62979889,-2.8563256260000003,-4.51140213,-11.38407516,
21.84,,21.84808286,,21.86374214,,,,,2.4485812190000003,-5.32414484,-0.44729289409999995,,,,-10.2069931,-3.2007694239999998,-12.53231621,
21.869999999999997,21.87183214,21.89888401,21.87297864,,,-5.223232746,-17.51336861,-11.29711437,-0.8110524416,-0.9161182045999999,3.2771954539999997,18.86120033,19.20279884,-19.76399994,,,,
21.9,21.92183214,,21.92297864,21.91374214,,8.921041489,-33.0368042,-2.44396925,,,,17.39719963,21.19140053,-19.47119904,-2.568516254,-26.3621769,-9.276313782,
21.93,,21.94968609,,,,,,,-9.106511116,2.44537425,4.342513084,,,,,,,
21.96,21.97183214,,21.97297864,21.96374214,,31.38485909,-46.04388809,-15.36491203,,,,17.55579948,22.93599892,-17.42160034,25.04724312,-36.15943146,-5.348882198,
21.99,,22.0004889,,22.01374214,,,,,-2.672456741,-8.821092606,0.9918632506999999,,,,15.65695,-6.437361717000001,15.90970993,
22.02,22.02183214,,22.02297864,,,9.241679192000001,-15.6987114,7.252346516,,,,17.71439934,24.21699905,-15.7013998,,,,
22.05,22.07183214,22.05129093,22.07297864,22.06374214,,-0.5285146832000001,5.948856354,14.32194042,-2.938938856,1.646080613,2.534099817,17.64119911,25.30279922,-14.0909996,-1.61453104,7.993364334,11.2823534,
22.08,,22.10209213,,,,,,,1.160457134,-1.321262598,0.3541387022,,,,,,,
22.11,22.12183214,,22.12297864,22.11374214,,8.051848412,-2.006979942,-0.2796611488,,,,17.86079979,26.08359909,-12.49279976,9.021308899,9.284137726,6.385041237,
22.14,,22.15289416,,22.16374214,,,,,0.3837648034,2.2592186930000002,-0.794559598,,,,1.5354855059999999,9.08669281,0.3732230663,
22.169999999999998,22.17183214,,22.17297864,,,1.745863199,0.5045864582,-2.056032896,,,,18.22679901,26.63259888,-10.8579998,,,,
22.2,22.22183214,22.20369698,22.22297864,22.21374214,,-1.438385487,2.585145712,4.867599487,1.986780763,-1.746870399,0.3324536085,19.0564003,27.13279915,-8.991399765,-1.023749352,12.65189457,8.213411331,
22.23,,22.25449901,,,,,,,4.400238037,1.703652978,0.3723114133,,,,,,,
22.259999999999998,22.27183214,,22.27297864,22.26374214,,1.453639746,-1.0995019670000001,0.5608177781,,,,20.72780037,27.47439957,-7.234600067000001,0.24860799309999998,9.123617172000001,1.4735000130000002,
22.29,,22.3053002,,22.31374214,,,,,3.4596862789999996,-0.22830416260000003,-4.6716070180000004,,,,18.55292702,-19.99327469,10.46021557,
22.32,22.32183214,,22.32297864,,,25.60290337,-40.0657196,18.31526184,,,,21.86240005,28.07219887,-6.270800114,,,,
22.349999999999998,22.37183214,22.35610229,22.37297864,22.36374214,,15.54078484,-56.14937973,2.385046005,4.010365009,0.9999569654000001,-6.536523819,20.21539879,29.01159859,-7.759199618999999,13.39059925,-56.84276199,-10.92111206,
22.38,,22.4069051,,,,,,,1.27789247,0.9683456421,-1.924779654,,,,,,,
22.41,22.42183214,,22.42297864,22.41374214,,2.062014818,-8.432605743,-0.542871654,,,,17.22640038,29.64599991,-10.4066,-4.7788715360000005,-6.722505569,-4.79585743,
22.439999999999998,,22.45770713,,22.46374214,,,,,-1.152974248,6.415270805,0.3214583695,,,,-5.077505588999999,11.36778831,-6.763347626,
22.47,22.47183214,,22.47297864,,,-1.189232826,3.8515472410000005,-4.069293976,,,,14.49359989,30.28039932,-13.70059967,,,,
22.5,22.52183214,22.50850833,22.52297864,22.51374214,,-2.036890268,4.34476757,-13.0833559,-1.5791928769999999,4.809505939,1.5927842859999999,12.72459984,31.0855999,-16.90919876,-5.251998901,9.496463776,-16.58259583,
22.529999999999998,,22.55931041,,,,,,,-2.9815454480000003,-2.63916564,0.3884988427,,,,,,,
22.56,22.57183214,,22.57297864,22.56374214,,-4.064508438,6.899106026,-10.51196861,,,,11.43139935,31.81760025,-19.6541996,-6.312476158,15.60649014,-15.74106407,
22.59,,22.61011328,,22.61374214,,,,,-1.112200141,-2.646190405,-1.584537745,,,,-7.435689926,12.43614578,6.248277664,
22.619999999999997,22.62183214,,22.62297864,,,3.30927372,0.6840481758,36.28536224,,,,9.430600166,32.8667984,-21.47200012,,,,
22.65,22.67183214,22.66091531,22.67297864,22.66374214,,2.619841576,-10.40788078,-3.1405797,2.7740101810000004,1.346001983,-1.788560748,6.868599892000001,33.83060074,-23.28979874,1.247757435,-11.42897224,7.5723443029999995,
22.71,22.72183214,22.71171651,22.72297864,22.71374214,,-1.601097465,-1.113858938,-4.847559452,1.471378326,-3.2942993639999996,0.5428904890999999,4.0991997719999995,34.3064003,-24.70499992,-8.501181602,9.413669586000001,-10.26772308,
22.74,,22.76251859,,22.76374214,,,,,-0.9599464536,-5.210680008,1.354706526,,,,-8.42438221,-35.23680496,-24.79820061,
22.77,22.77183214,,22.77297864,,,1.3770694730000002,-42.02903366,-12.01077366,,,,2.708400011,34.3307991,-25.32719994,,,,
22.8,22.82183214,22.81332145,22.82297864,22.81374214,,26.12244415,-40.45365906,-2.855534792,-6.61410141,-2.4717934130000003,6.4445915220000005,2.488800049,35.209198,-24.21699905,11.98587894,-26.39487267,-4.981012344,
22.86,22.87183214,22.86412348,22.87297864,22.86374214,,27.12084961,-9.476474762,10.69262695,-1.297897696,-5.480674267,2.741177082,3.29399991,36.50239944,-21.00839996,40.69541931,-2.8024244310000004,50.3949585,
22.89,,22.91492468,,22.91374214,,,,,-2.76316762,3.3391964439999997,2.118876457,,,,-1.292135239,5.945397377000001,0.9068217278,
22.919999999999998,22.92183214,,22.92297864,,,-4.47397995,1.4048860069999998,7.486843109,,,,3.196399927,37.49060059,-18.03159904,,,,
22.95,22.97183214,22.96572682,22.97297864,22.96374214,,6.649055958,2.690429926,2.761018276,0.6572716236,-0.3281776905,0.4876088202,0.5367999673,45.32299805,-12.6026001,5.177912235,18.21569443,10.96800995,
23.009999999999998,23.02183214,23.01652963,23.02297864,23.01374214,,4.977968216,1.026520967,-2.283350945,0.5370874405,1.011104941,-0.8669449687,1.342000008,45.4937973,-10.52859974,4.368406773,7.935522079,-0.2763574123,
23.04,,23.06733172,,23.06374214,,,,,2.960318565,-0.3341334462,-0.8270871639,,,,-0.7098540664,10.69941807,6.664458275,
23.07,23.07183214,,23.07297864,,,-1.866700768,1.318445325,5.133502007,,,,2.281399965,45.85979843,-8.149600029,,,,
23.099999999999998,23.12183214,23.11813291,23.12297864,23.11374214,,1.863111496,-0.9367900491,0.6996015309999999,3.952639818,2.5290603640000002,-0.08063183724999999,3.806399822,46.29899979,-6.319600105,-1.4403564930000001,9.431038857,1.692136884,
23.16,23.17183214,23.16893505,23.17297864,23.16374214,,20.57049751,-26.16581535,9.112466812000001,3.221913815,0.8254073858,-4.7956089969999995,6.612400055,46.88459778,-6.661200047,15.66553879,-9.53032589,3.780353546,
23.189999999999998,,23.21973786,,23.21374214,,,,,3.9894435410000004,1.2528476720000001,-5.370416164,,,,16.80794716,-57.36407089,-1.829455733,
23.22,23.22183214,,23.22297864,,,13.92473221,-60.7268486,-3.3248269560000003,,,,7.2223997120000005,46.22579956,-7.698199749,,,,
23.25,23.27183214,23.27053994,23.27297864,23.26374214,,1.762612939,-14.68834209,-0.02093719877,1.287055135,0.7423321605,-1.091278672,5.611999989,44.50559998,-11.41919994,-4.217376709,-18.61785507,-5.455327511,
23.31,23.32183214,23.32134114,23.32297864,23.31374214,,1.144965649,5.678168297000001,0.314057976,-1.639666796,6.350978851,0.6004628539,4.013800144,42.77320099,-15.48180008,-3.1987175939999997,11.70162964,-3.946727037,
23.34,,,,23.36374214,,,,,,,,,,,-3.4676556589999996,9.272770882,-14.56766891,
23.369999999999997,23.37183214,23.37214328,23.37297864,,,-0.6050850153,1.7135601040000001,-8.927022934,-1.5907989740000001,4.455061913,1.371962905,2.073999882,41.10179901,-19.11739922,,,,
23.4,23.42183214,23.42294614,23.42297864,23.41374214,,-2.108675003,7.511967659,-11.7783699,-2.905189514,-0.9480349422,-0.5424323678,2.269199848,39.93059921,-22.67980003,-3.860062122,14.98756218,-20.36585045,
23.46,23.47183214,23.47374822,23.47297864,23.46374214,,-2.175673962,2.1637098790000002,-6.3511495589999996,-1.9021784069999998,-5.546187878,-1.622563004,2.183799982,39.3083992,-24.88799858,-6.441627979,11.46437359,-13.97773075,
23.49,,,,23.51374214,,,,,,,,,,,-1.677515984,-6.755688667,30.36593246,
23.52,23.52183214,23.52454942,23.52297864,,,4.144668102,-20.56361961,23.13949203,3.900565147,2.580677032,-2.0478653909999998,1.232200027,38.64960098,-26.66919899,,,,
23.55,23.57183214,23.57535156,23.57297864,23.56374214,,-1.15094769,1.81645143,-12.68584824,1.5142903330000002,-3.7684693339999997,0.1693574041,0.6222000122,37.53939819,-26.58379936,-4.953529835,8.369169235,-22.00987625,
23.61,23.62183214,23.62615442,23.62297864,23.61374214,,-3.492324591,-40.66422653,-19.99741745,-1.5907989740000001,-7.205401421,2.130482435,0.08540000021,36.74639893,-27.19379997,-8.173781395,-31.45372772,-22.33462524,
23.64,,,,23.66374214,,,,,,,,,,,4.029203892,-22.02244568,2.290982723,
23.669999999999998,23.67183214,23.67695651,23.67297864,,,10.72612667,-30.71696281,6.072086334,-5.030021667,-2.310224295,6.4467291829999995,-0.14640000460000002,37.34420013,-25.92499924,,,,
23.7,23.72183214,23.72775776,23.72297864,23.71374214,,48.35176849,-28.27957535,37.29094315,-2.8836572169999997,-2.31465292,2.947948933,0.42699998619999996,38.91799927,-22.55780029,43.27128983,-36.35594559,-1.9733462330000002,
23.759999999999998,23.77183214,23.77855989,23.77297864,23.76374214,,-0.595513761,-7.92742157,7.58494854,-2.7045261860000003,2.7239205839999996,1.5914098019999998,1.036999941,40.16239929,-18.11700058,1.97952497,0.5746927261,19.09317589,
23.79,,,,23.81374214,,,,,,,,,,,-6.152390957000001,15.92205906,15.31235123,
23.82,23.82183214,23.82936276,23.82297864,,,-0.18604196609999998,9.108877182,7.486843109,-0.058641336860000004,-1.004691005,0.8568660021,0.42699998619999996,41.11399841,-14.33500004,,,,
23.849999999999998,23.87183214,,23.87297864,23.86374214,,6.00987339,-4.051347733,-1.46470654,,,,0.5123999714999999,41.49219894,-11.61439991,6.301123142000001,5.05413866,1.531683445,
23.88,,23.88016484,,,,,,,1.09662354,1.130525589,-1.117697716,,,,,,,
23.91,23.92183214,23.93096609,23.92297864,23.91374214,,4.336392879,4.203291893,12.20578861,2.396659136,-0.9662076234999999,-0.6303943992000001,1.183400035,42.15100098,-8.783999442999999,6.5647096629999995,14.21691418,15.4373045,
23.939999999999998,,,,23.96374214,,,,,,,,,,,-3.916042089,10.79339123,5.833949566,
23.97,23.97183214,23.98176823,23.97297864,,,-1.938784599,0.8805587292,3.1989047530000003,3.7486169339999997,1.05752933,-0.309394151,0.7563999891,43.07819748,-5.4533996579999995,,,,
24.0,24.02183214,,24.02297864,24.01374214,,9.598508835,-11.52114201,-0.6792625189,,,,2.220399857,44.01760101,-3.769799948,4.138585567,4.469859123,0.9192401171,
24.029999999999998,,24.03257114,,,,,,,3.77641058,0.4524851143,-3.925304413,,,,,,,
24.06,24.07183214,24.08337323,24.07297864,24.06374214,,31.70789146,-57.44449234,20.8890419,3.8034405710000003,1.743052602,-7.034975052,3.049999952,43.17580032,-3.794199944,26.33762932,-38.2902298,19.85783958,
24.09,,,,24.11374214,,,,,,,,,,,7.086858749,-37.36188889,-3.6435739989999996,
24.119999999999997,24.12183214,24.13417448,24.12297864,,,7.508378506000001,-32.47658539,-3.9975092410000004,1.212837219,-0.09773556142999999,-2.250972033,1.7201999430000001,41.38240051,-6.783199787,,,,
24.15,24.17183214,,24.17297864,24.16374214,,1.896611094,2.350350142,-0.542871654,,,,-0.1829999983,39.2961998,-10.44320011,-4.326301098,4.574180603,-3.62741065,
24.18,,24.18497666,,,,,,,-1.754047871,7.223421574,0.7203416228,,,,,,,
24.21,24.22183214,24.23577953,24.22297864,24.21374214,,-1.2610175609999998,1.627418518,-10.5598259,-1.644553542,5.210680008,1.57537508,-0.6953999996,37.97859955,-15.42079926,-5.817672253,9.300356865,-14.26324463,
24.24,,,,24.26374214,,,,,,,,,,,-5.089855194,15.4471035,-21.14940834,
24.27,24.27183214,24.28658166,24.27297864,,,-3.940081596,10.34656525,-11.16790104,-3.0298023219999997,-1.787186384,-0.7217160463,-0.6344000101,36.59999847,-19.33699989,,,,
24.3,24.32183214,,24.32297864,24.31374214,,-8.613563538,5.398207664,-9.774680137999999,,,,-0.6710000038,35.62400055,-22.24059868,-10.88465023,13.98221397,-15.03082275,
24.33,,24.33738291,,,,,,,-1.913020849,-5.068199635,-1.584537745,,,,,,,
24.36,24.37183214,24.3881851,24.37297864,24.36374214,,1.266999602,-7.307381153,16.79043579,2.776911736,3.041561127,-1.513984919,-1.768999934,35.11159897,-23.93639946,-2.207901716,3.475322247,26.76058197,
24.39,,,,24.41374214,,,,,,,,,,,1.297780991,-4.6500172619999995,-2.334047794,
24.419999999999998,24.42183214,24.43898797,24.42297864,,,2.215155602,-6.1821565629999995,-13.03998566,1.627755284,-6.723748683999999,0.6287145614999999,-3.12319994,33.90380096,-24.75379944,,,,
24.45,24.47183214,,24.47297864,24.46374214,,-2.084746838,-20.04407692,-9.353244781,,,,-4.196799755,33.35480118,-25.2052002,-6.818955421,0.9257440567,-7.584871292000001,
24.48,,24.4897901,,,,,,,1.44984591,-5.039489746,0.9223793745000001,,,,,,,
24.509999999999998,24.52183214,,24.52297864,24.51374214,,7.254739285,-34.82035446,-6.387042046,,,,-4.477399826,33.79399872,-24.60739899,-2.2681324480000002,-29.37402153,-10.36469936,
24.54,,24.5405914,,24.56374214,,,,,-5.3820223810000005,0.273812294,6.35525465,,,,29.20817566,-29.59477234,-8.682325363,
24.57,24.57183214,24.59139359,24.57297864,,,43.21646881,-44.48765945,-15.42234039,-3.7046358589999997,-6.2194938660000005,4.092370987,-3.940599918,34.52600098,-22.37479973,,,,
24.599999999999998,24.62183214,,24.62297864,24.61374214,,6.905087947999999,-11.99252796,20.05364799,,,,-3.3183999060000002,36.20959854,-19.21500015,20.91126633,-0.3448419571,8.354487419,
24.63,,24.64219645,,,,,,,-3.072408915,3.6412606239999996,2.358175755,,,,,,,
24.66,24.67183214,,24.67297864,24.66374214,,-1.095912814,7.3372917179999995,9.148359299,,,,-3.7575998310000003,37.67359924,-15.55499935,-3.38258338,12.99520874,13.8660717,
24.689999999999998,,24.69299859,,24.71374214,,,,,0.5635066032,-1.26643908,0.8214368223999999,,,,8.383743286,8.980916977,4.0166678430000005,
24.72,24.72183214,24.74379989,24.72297864,,,6.9912295339999995,-1.4060823919999998,0.33798620100000004,-0.07773031294,2.0015938280000003,-1.3521103859999999,-3.4159998889999996,38.52759933,-12.50500011,,,,
24.75,24.77183214,,24.77297864,24.76374214,,4.223630905,3.865904093,9.143573761,,,,-2.269199848,39.12540054,-9.94299984,7.8119907379999995,15.58575821,19.30823708,
24.779999999999998,,24.79460208,,,,,,,2.869607687,0.5575508475,-1.4929107430000002,,,,,,,
24.81,24.82183214,,24.82297864,24.81374214,,-7.287042141000001,-2.054836512,3.407379389,,,,-1.707999945,40.56499863,-7.258999825,-7.10862875,7.65929985,5.050554276000001,
24.84,,24.845405,,24.86374214,,,,,4.0807652469999995,0.08628217876000001,-0.3161134422,,,,0.32687389850000004,6.81589222,1.937361956,
24.869999999999997,24.87183214,24.89620713,24.87297864,,,5.310570717,-4.451248168999999,1.762612939,3.6487433910000004,1.3359229559999999,-4.642897129,-0.07320000231000001,41.41899872,-5.709599972,,,,
24.9,24.92183214,,24.92297864,24.91374214,,31.53560829,-45.21567535,18.87308884,,,,1.6347999569999998,41.90699768,-5.355799675,23.51631546,-24.61701584,11.92699051,
24.93,,24.94700843,,,,,,,3.986541986,1.680898905,-5.982332706,,,,,,,
24.96,24.97183214,,24.97297864,24.96374214,,13.80000687,-45.99603271,1.310070395,,,,1.573799968,40.5039978,-7.33220005,10.4151535,-42.69805145,-3.835925579,
24.99,,24.99781062,,25.01374214,,,,,1.532921195,-0.8211314082,-2.2298979759999997,,,,-4.20025444,-4.568669796,-3.7042231560000003,
25.02,25.02183214,25.04861359,25.02297864,,,4.324428558,-3.416950703,2.976372242,-2.14529562,7.356128216,0.5106683372999999,-1.15899992,37.14899826,-10.32119942,,,,
