"Time (s)","Acceleration x (m/s^2)","Acceleration y (m/s^2)","Acceleration z (m/s^2)"
7.257995000E-2,2.176870346E0,4.746761799E0,8.090133667E0
1.225799500E-1,1.721935034E0,4.586442947E0,8.056633949E0
1.725799500E-1,2.049751759E0,4.603192329E0,7.214061260E0
2.225799500E-1,2.629412889E0,4.653441906E0,7.726424217E0
2.725799500E-1,2.634198666E0,4.253840446E0,8.291429520E0
3.225799500E-1,2.095514536E0,4.282554150E0,8.580961227E0
3.725799500E-1,1.738684773E0,3.425325632E0,9.730113983E0
4.225799500E-1,3.843172312E0,4.342374802E0,8.870791435E0
4.725799500E-1,3.958027840E0,5.453242779E0,8.375178337E0
5.225799500E-1,4.942076206E0,4.713262558E0,7.450950623E0
5.725799500E-1,3.670589924E0,3.949652910E0,8.434998512E0
6.225799500E-1,4.221238136E0,3.827618837E0,8.561818123E0
6.725799500E-1,6.184549332E0,5.572884083E0,5.420640469E0
7.225799500E-1,4.511068821E0,1.299302697E0,1.298106313E-1
7.725799500E-1,5.736792088E0,-3.620340586E0,1.542473316E0
8.225799500E-1,8.820542336E0,-2.499901533E0,3.984348774E0
8.725799500E-1,9.600901604E0,-8.913264424E-2,8.339285851E0
9.225799500E-1,9.945767403E0,-1.219143152E0,9.895218849E0
9.725799500E-1,1.130788136E1,-1.345962733E-1,1.192792225E1
1.022579950E0,9.780363083E0,-5.488536954E-1,9.416654587E0
1.072579950E0,9.224929810E0,-2.954836845E0,-3.456432343E0
1.122579950E0,1.106142044E1,-1.987837434E0,-2.467897415E0
1.172579950E0,1.805444527E1,3.786941051E0,2.324477577E1
1.222579950E0,1.101326561E1,-3.330809116E0,1.149751306E0
1.272579950E0,8.645566940E0,-2.579163790E0,-1.118644550E-1
1.322579950E0,6.694519520E0,-2.550449848E0,2.231307179E-1
1.372579950E0,9.739685059E0,-5.262714386E0,-3.290131316E-2
1.422579950E0,8.595317841E0,-5.973980904E0,-5.787639618E-1
1.472579950E0,6.766304016E0,-6.661019802E0,3.188436031E-1
1.522579950E0,4.970789909E0,-6.380760670E0,-3.090330362E0
1.572579950E0,4.791028976E0,-1.053470039E1,7.019943595E-1
1.622579950E0,3.859921932E0,-6.558128834E0,-1.887338907E-1
1.672579950E0,4.499104977E0,-5.626722336E0,-5.261218548E-1
1.722579950E0,3.800101519E0,-1.176521015E1,-5.367101192E0
1.772579950E0,4.795814991E0,-1.221296692E1,3.613162279E0
1.822579950E0,2.930908680E0,-1.004148006E1,2.028216362E0
1.872579950E0,8.670991063E-1,-6.488736629E0,8.383852243E-1
1.922579950E0,-1.912463546E0,-2.068565178E1,8.144569993E-1
1.972579950E0,-3.901796341E0,-4.096811295E0,-6.864410043E-1
2.022579950E0,-2.833999395E0,-7.731209755E0,-1.112662554E0
2.072579950E0,-2.939283609E0,-9.423832893E0,-2.211566210E0
2.122579950E0,-3.284149170E0,-7.613961697E0,-4.471587241E-1
2.172579950E0,-1.689631939E0,-7.848458290E0,1.491924882E0
2.222579950E0,-4.064807594E-1,-6.431009769E0,2.559721947E0
2.272579950E0,-2.312064886E0,-6.790232658E0,2.832803011E0
2.322579950E0,-8.805587292E-1,-7.036992073E0,4.087240219E0
2.372579950E0,9.391828626E-2,-7.913064480E0,7.302595615E0
2.422579950E0,-7.295117974E-1,-1.217946720E1,7.891529083E0
2.472579950E0,-2.467897415E0,-4.558925152E0,4.297808647E0
2.522579950E0,-9.547062874E0,-1.655833244E1,-4.021437645E0
2.572579950E0,-4.234697819E0,-4.927719116E0,-1.174875975E0
2.622579950E0,1.441675574E-1,-8.384749413E0,-9.927821159E0
2.672579950E0,2.136192322E0,-1.599571991E1,4.637888432E0
2.722579950E0,2.931207791E-2,-6.450152397E0,-6.672984362E-1
2.772579950E0,-3.487539053E0,-6.629913330E0,2.901297510E-1
2.822579950E0,-3.260220766E0,-9.655936241E0,2.494517565E-1
2.872579950E0,-1.246660590E0,-8.188538551E0,-1.241874933E0
2.922579950E0,-8.135597110E-1,-1.166949654E1,5.799604058E-1
2.972579950E0,3.294916868E0,-1.278515053E1,2.212762833E0
3.022579950E0,-8.949156404E-1,-1.404915905E1,5.504688263E0
3.072579950E0,-1.313958764E0,-1.351765347E1,1.262213945E0
3.122579950E0,-5.196911812E0,-1.770269966E1,-6.549753666E0
3.172579950E0,-6.889534473E0,-1.352961731E1,3.967599154E0
3.222579950E0,-3.652942896E0,-9.584152222E0,-2.154138565E0
3.272579950E0,1.063609719E0,-5.892325878E0,-3.394817114E-1
3.322579950E0,2.198405743E0,-2.839981318E0,8.335995674E-1
3.372579950E0,-1.265803218E0,-1.709970832E0,-1.586740494E0
3.422579950E0,-3.224328518E0,-2.332403898E0,7.689933777E-1
3.472579950E0,-7.990831375E0,-1.147537899E1,1.191117191E1
3.522579950E0,-2.350350142E0,-1.274447250E1,9.169894218E0
3.572579950E0,-2.249851465E0,-4.855934620E0,1.362712502E0
3.622579950E0,-6.178566933E0,-1.371147156E1,-3.712763548E0
3.672579950E0,-1.052842021E0,-7.671389580E0,-4.699204445E0
3.722579950E0,-1.790130496E0,-1.248335552E1,1.161715388E0
3.772579950E0,1.307677627E0,-9.201001167E0,-4.543372095E-1
3.822579950E0,-1.447956800E0,-6.375975132E0,-2.102692872E-1
3.872579950E0,-1.447956800E0,-8.138288498E0,1.302891970E0
3.922579950E0,-1.402493119E0,-8.461319923E0,-1.419242978E0
3.972579950E0,-3.873381615E-1,-1.013001442E1,2.222334146E0
4.022579950E0,3.218346357E0,-1.190160084E1,2.095514536E0
4.072579950E0,3.837489188E-1,-1.438923931E1,3.498306751E0
4.122579950E0,-3.123830080E0,-1.429801273E1,5.006682396E0
4.172579950E0,-3.107080221E0,-1.758515358E1,-6.360720634E0
4.222579950E0,-6.365506649E0,-1.457587910E1,2.753839731E0
4.272579950E0,-3.631407499E0,-1.115713406E1,-3.430111170E0
4.322579950E0,-1.615454435E0,-5.533402443E0,-1.081555843E0
4.372579950E0,3.223132133E0,-3.333201885E0,-1.672882080E0
4.422579950E0,-1.069591761E0,-5.751747489E-1,-1.689631939E0
4.472579950E0,-1.687239051E0,-4.483551383E-1,8.001000881E-1
4.522579950E0,-9.492028236E0,-1.646949959E1,1.246421337E1
4.572579950E0,-1.692024708E0,-9.550652504E0,7.673482895E0
4.622579950E0,-5.553741455E0,-1.316082382E1,5.722435474E0
4.672579950E0,-3.195614576E0,-3.979563236E0,-8.599205971E0
4.722579950E0,1.228714466E0,-1.159053421E1,-8.553443909E0
4.772579950E0,2.176870346E0,-1.251924801E1,4.750350952E0
4.822579950E0,-4.399802685E-1,-7.645068169E0,3.020938635E-1
4.872579950E0,-3.061616659E0,-5.938088417E0,1.188036442E0
4.922579950E0,-7.510471940E-1,-8.358428955E0,1.247856975E0
4.972579950E0,-6.146563292E-1,-8.820542336E0,-2.292922258E0
5.022579950E0,-1.498206019E0,-1.097767162E1,1.930110574E0
5.072579950E0,2.820838690E0,-1.142273712E1,3.742374659E0
5.122579950E0,2.255235314E-1,-1.506431389E1,5.813362598E0
5.172579950E0,-6.218347549E-1,-1.590449429E1,1.836790442E0
5.222579950E0,-5.726024628E0,-1.788933945E1,-9.178568840E0
5.272579950E0,-5.453242779E0,-1.462373543E1,4.285844326E0
5.322579950E0,-4.734797776E-1,-9.493225098E0,-3.760619879E0
5.372579950E0,4.148556292E-1,-4.954040051E0,-2.509472668E-1
5.422579950E0,1.985145450E0,-2.732304335E0,-9.475577474E-1
5.472579950E0,-9.260223508E-1,-1.489532143E-1,-2.623430967E0
5.522579950E0,-1.747059584E0,-1.336391449E0,4.592424870E0
5.572579950E0,-1.072492981E1,-2.788236618E1,1.991217232E1
5.622579950E0,-1.711167336E0,-3.366701365E0,6.079265118E0
5.672579950E0,-7.179365158E0,-1.744397545E1,-4.488337040E0
5.722579950E0,-2.621038198E0,-4.776971340E0,-6.616752625E0
5.772579950E0,1.256231871E-2,-1.139880848E1,-7.629515171E0
5.822579950E0,2.562114954E0,-1.250010586E1,3.107977629E0
5.872579950E0,-1.854437590E-2,-6.002694607E0,1.307677627E0
5.922579950E0,-2.101496458E0,-6.294619083E0,1.776670814E-1
5.972579950E0,-2.417349100E0,-8.739186287E0,-1.715952992E0
6.022579950E0,-5.955137610E-1,-9.718150139E0,2.679662228E0
6.072579950E0,4.001098633E0,-1.278275776E1,2.279761791E0
6.122579950E0,8.766704202E-1,-1.402762318E1,2.586043119E0
6.172579950E0,-1.981855392E0,-1.417119312E1,3.287738323E0
6.222579950E0,-4.885844707E0,-1.651974869E1,-5.175376415E0
6.272579950E0,-8.208877563E0,-1.435813236E1,2.492722988E0
6.322579950E0,-3.913760424E0,-9.744471550E0,-3.274577856E0
6.372579950E0,-4.725824669E-2,-5.631507874E0,-1.306780219E0
6.422579950E0,3.704089403E0,-4.068097591E0,-1.361815214E0
6.472579950E0,-2.653042078E-1,-8.407780528E-1,-2.029711723E0
6.522579950E0,-1.455135226E0,-1.027717352E0,-3.801597059E-1
6.572579950E0,-9.025128365E0,-1.429083443E1,1.513609886E1
6.622579950E0,-2.668894529E0,-1.075723362E1,8.312965393E0
6.672579950E0,-8.125128746E0,-9.268299103E0,2.911766052E0
6.722579950E0,-3.832404613E0,-8.322536469E0,-8.982057571E0
6.772579950E0,1.439282775E0,-1.152592754E1,-7.490731239E0
6.822579950E0,7.785646915E-1,-1.383619785E1,3.984348774E0
6.872579950E0,6.469594240E-1,-7.259524822E0,-1.381855011E-1
6.922579950E0,-2.051247120E0,-6.246762753E0,3.188436031E-1
6.972579950E0,-2.132603168E0,-7.544270515E0,-4.280161560E-1
7.022579950E0,4.148556292E-1,-8.322536469E0,1.542473316E0
7.072579950E0,2.487937450E0,-1.438684654E1,2.461616278E0
7.122579950E0,3.079263687E0,-1.261735344E1,2.487937450E0
7.172579950E0,-3.578765392E0,-1.515045547E1,5.425426006E0
7.222579950E0,-2.566003084E0,-1.608904076E1,1.753041744E0
7.272579950E0,-5.678168297E0,-1.696511269E1,-6.298208237E0
7.322579950E0,-4.768596649E0,-1.349611759E1,5.416752100E-1
7.372579950E0,-2.520539522E0,-7.642675400E0,-1.287637711E0
7.422579950E0,2.480758905E0,-4.822434902E0,-3.526123285E0
7.472579950E0,-4.782654345E-1,-1.532902002E0,-1.558026671E0
7.522579950E0,-1.898106575E0,5.787639618E-1,-1.100698471E0
7.572579950E0,-4.361517429E0,-6.503093719E0,1.104437160E1
7.622579950E0,-3.923331738E0,-2.043410683E1,1.229193020E1
7.672579950E0,-4.023830414E0,-7.843672752E0,4.099204063E0
7.722579950E0,-5.572884083E0,-1.015155029E1,-5.498706341E0
7.772579950E0,-1.091127157E0,-7.364809036E0,-6.942475796E0
7.822579950E0,6.254240274E-1,-1.372582912E1,5.310570717E0
7.872579950E0,3.297309637E0,-8.430212975E0,7.956135273E-2
7.922579950E0,-1.835594058E0,-5.533402443E0,-4.187439568E-3
7.972579950E0,-2.573181629E0,-8.736793518E0,1.262213945E0
8.022579950E0,-1.912463546E0,-8.214859009E0,-2.139781713E0
8.072579950E0,-7.824530005E-1,-1.127198887E1,1.501496196E0
8.122579950E0,4.970789909E0,-1.301964664E1,1.918146491E0
8.172579950E0,1.974078640E-2,-1.466441345E1,3.639483213E0
8.222579950E0,-2.417349100E0,-1.550249958E1,3.455235958E0
8.272579950E0,-5.048556805E0,-1.685504341E1,-8.869595528E0
8.322579950E0,-6.466004848E0,-1.472902012E1,4.005884171E0
8.372579950E0,-5.165506005E-1,-9.316155434E0,-2.383849621E0
8.422579950E0,8.335995674E-1,-5.109573841E0,-1.955534339E0
8.472579950E0,2.361117840E0,-2.837588549E0,-7.657032609E-1
8.522579950E0,-1.100698471E0,-6.732804775E-1,-2.091925144E0
8.572579950E0,-1.414457321E0,-1.705185294E0,6.234798431E0
8.622579950E0,-9.482457161E0,-2.424318123E1,2.097996902E1
8.672579950E0,-2.355135679E0,-4.882255554E0,6.584449768E0
8.722579950E0,-7.746763229E0,-1.773380661E1,-5.312066078E0
8.772579950E0,-2.912962437E0,-4.080061913E0,-6.767500877E0
8.822579950E0,-1.333998591E-1,-1.291197014E1,-7.026224613E0
8.872579950E0,3.819244146E0,-1.229432297E1,2.677269459E0
8.922579950E0,1.058823988E-1,-6.096014977E0,5.368895531E-1
8.972579950E0,-2.881855726E0,-6.182156563E0,3.547359705E-1
9.022579950E0,-1.991426587E0,-7.872386456E0,-1.071984529E0
9.072579950E0,3.355933726E-1,-1.107338524E1,1.633400559E0
9.122579950E0,4.930111885E0,-1.208375454E1,3.864707708E0
9.172579950E0,1.061216831E0,-1.498295784E1,2.052144527E0
9.222579950E0,-1.672882080E0,-1.529881096E1,3.936492443E0
9.272579950E0,-5.589633465E0,-1.619671822E1,-6.341578007E0
9.322579950E0,-7.954938889E0,-1.592602921E1,4.391427994E0
9.372579950E0,-8.315058798E-2,-1.034297562E1,-4.007080555E0
9.422579950E0,-6.242275834E-1,-5.042574406E0,5.383851007E-3
9.472579950E0,3.577269793E0,-2.588735104E0,-1.057627559E0
9.522579950E0,-1.304088354E0,1.214357466E-1,-2.139781713E0
9.572579950E0,-1.871486425E0,-1.255035520E0,1.235892892E0
9.622579950E0,-9.887143135E0,-1.539930916E1,1.222014523E1
9.672579950E0,-2.252244234E0,-8.631210327E0,7.908278942E0
9.722579950E0,-5.778666496E0,-1.186810112E1,-2.563610315E0
9.772579950E0,-4.083651066E0,-7.379166126E0,-6.930511475E0
9.822579950E0,2.107478619E0,-1.081705379E1,-9.180961609E0
9.872579950E0,1.820040703E0,-1.290479183E1,5.961717606E0
9.922579950E0,1.846361756E0,-7.541877747E0,1.441675574E-1
9.972579950E0,-2.857927561E0,-5.437689304E0,1.147358418E0
1.002257995E1,-2.015354872E0,-8.688637733E0,6.613163352E-1
1.007257995E1,-1.150947690E0,-8.411070824E0,-2.039283037E0
1.012257995E1,1.317248821E0,-1.206700420E1,3.891028643E0
1.017257995E1,4.633102894E0,-1.297179031E1,2.638086975E-1
1.022257995E1,-1.644168258E0,-1.629721642E1,5.736792088E0
1.027257995E1,-4.038187504E0,-1.502124310E1,1.776969910E0
1.032257995E1,-5.939284801E0,-1.822433472E1,-7.741977692E0
1.037257995E1,-4.189234257E0,-1.369472218E1,7.857431173E-1
1.042257995E1,-7.462615371E-1,-8.169395447E0,-2.673680305E0
1.047257995E1,1.824826360E0,-5.186143875E0,-2.944069147E0
1.052257995E1,9.990034699E-1,-2.286940336E0,-1.213161111E0
1.057257995E1,-1.435992718E0,-9.152546525E-2,-2.223530531E0
1.062257995E1,-1.426421404E0,-4.139882088E0,5.693721294E0
1.067257995E1,-8.101200104E0,-2.430539513E1,1.518156242E1
1.072257995E1,-5.082056046E0,-5.521438122E0,4.886742115E0
1.077257995E1,-7.959724426E0,-1.769073677E1,2.698804855E0
1.082257995E1,-1.687239051E0,-2.081157446E0,-9.614062309E0
1.087257995E1,1.475175142E0,-1.248096275E1,-1.046650505E1
1.092257995E1,2.248655081E0,-1.419272804E1,5.040181637E0
1.097257995E1,1.635793328E0,-7.149455070E0,7.283154130E-1
1.102257995E1,-2.929712296E0,-5.562116146E0,1.640578985E0
1.107257995E1,-2.161317110E0,-8.947361946E0,1.211964726E0
1.112257995E1,-1.095912814E0,-8.624032021E0,-1.998605132E0
1.117257995E1,1.669292927E0,-1.184656620E1,3.239881754E0
1.122257995E1,4.058526516E0,-1.375484180E1,1.910967946E0
1.127257995E1,-2.225923300E0,-1.465962791E1,7.326523781E0
1.132257995E1,-6.481558084E-1,-1.509542084E1,1.016949583E-2
1.137257995E1,-5.268995285E0,-1.838495445E1,-7.976474285E0
1.142257995E1,-5.036592484E0,-1.437009621E1,1.391426325E0
1.147257995E1,-4.519443810E-1,-8.344071388E0,-2.400898457E0
1.152257995E1,1.796112537E0,-5.504688263E0,-2.585145712E0
1.157257995E1,1.958824396E0,-3.036192894E0,-1.194018483E0
1.162257995E1,-1.258624673E0,-2.422732860E-1,-2.300100803E0
1.167257995E1,-2.422134638E0,-1.683649778E0,5.609972477E0
1.172257995E1,-1.121097183E1,-2.996023369E1,1.589970779E1
1.177257995E1,-2.249851465E0,-1.475474238E0,5.289035320E0
1.182257995E1,-8.539086342E0,-1.918206215E1,-4.768596649E0
1.187257995E1,-1.333101273E0,-5.586044312E0,-5.920142174E0
1.192257995E1,3.765704632E-1,-1.157617664E1,-5.355136871E0
1.197257995E1,3.732803345E0,-1.199970627E1,2.835195780E0
1.202257995E1,-2.333002165E-2,-5.602794170E0,1.089930773E0
1.207257995E1,-2.664108992E0,-7.496414185E0,-2.988037169E-1
1.212257995E1,-2.079961061E0,-8.899505615E0,-9.786644578E-1
1.217257995E1,9.846464992E-1,-1.073809052E1,3.256631613E0
1.222257995E1,5.983551979E0,-1.237807178E1,2.200798512E0
1.227257995E1,-2.811566554E-2,-1.440598869E1,3.582055569E0
1.232257995E1,-1.972284079E0,-1.375005627E1,3.589233875E0
1.237257995E1,-4.109972000E0,-2.001296997E1,-9.645169258E0
1.242257995E1,-5.391029358E0,-1.500688648E1,3.567698479E0
1.247257995E1,-1.794916034E0,-9.751649857E0,-2.345564365E0
1.252257995E1,3.284149170E-1,-4.820042133E0,-3.969094455E-1
1.257257995E1,3.314059258E0,-2.902194738E0,-1.378564954E0
1.262257995E1,-8.757730722E-1,1.412064433E0,-2.845963478E0
1.267257995E1,-1.445564032E0,-8.407780528E-1,1.295713425E0
1.272257995E1,-1.254945755E1,-2.419532585E1,1.391755390E1
1.277257995E1,-1.953141451E0,-5.926124573E0,5.389533997E0
1.282257995E1,-6.956832886E0,-1.323290730E1,5.942574978E0
1.287257995E1,-1.632204175E0,-5.564508915E0,-1.065793133E1
1.292257995E1,3.765704632E-1,-1.109970570E1,-9.879964828E0
1.297257995E1,1.444068432E0,-1.421904945E1,5.446961880E0
1.302257995E1,2.349153519E0,-8.003992081E0,-5.572285652E-1
1.307257995E1,-3.657728434E0,-6.115157604E0,1.592722535E0
1.312257995E1,-1.960319996E0,-8.461319923E0,5.982056609E-4
1.317257995E1,-5.333003402E-1,-8.885149002E0,-1.397707582E0
1.322257995E1,2.490330219E0,-1.151396370E1,3.067299604E0
1.327257995E1,3.143869877E0,-1.486541080E1,1.365105271E0
1.332257995E1,-4.543372095E-1,-1.502124310E1,6.806982040E0
1.337257995E1,-2.070389748E0,-1.424058533E1,1.851147413E0
1.342257995E1,-5.072484970E0,-1.822433472E1,-8.151449203E0
1.347257995E1,-5.393422127E0,-1.372582912E1,2.672483683E0
1.352257995E1,-2.728715181E0,-8.518747330E0,-1.354636669E0
1.357257995E1,2.667698145E0,-4.793721199E0,-2.841177702E0
1.362257995E1,2.229512453E0,-2.897409201E0,-7.079764009E-1
1.367257995E1,-1.323530078E0,-8.195417374E-2,-1.797308922E0
1.372257995E1,-1.469492197E0,-3.156133175E0,7.683054447E0
1.377257995E1,-8.824131966E0,-2.706102943E1,1.568914032E1
1.382257995E1,-5.742774487E0,-6.790232658E0,7.237989426E0
1.387257995E1,-8.050951004E0,-1.219861031E1,-9.374779701E0
1.392257995E1,-1.234696507E0,-5.657829285E0,-2.367099762E0
1.397257995E1,-3.083750308E-1,-1.507149220E1,-1.313958764E0
1.402257995E1,3.400201082E0,-1.031426239E1,1.434497118E0
1.407257995E1,-1.787737608E0,-5.830112457E0,9.391828626E-2
1.412257995E1,-2.601895571E0,-6.787839413E0,1.271785259E0
1.417257995E1,-1.397707582E0,-8.669495583E0,2.566302419E-1
1.422257995E1,-4.567300081E-1,-8.703293800E0,-1.421635747E0
1.427257995E1,2.148156643E0,-1.262722397E1,4.841278553E0
1.432257995E1,2.437688112E0,-1.377877045E1,1.930110574E0
1.437257995E1,-2.270190418E-1,-1.448495197E1,3.625126362E0
1.442257995E1,-4.598406792E0,-1.695554161E1,-2.146960020E0
1.447257995E1,-7.145865917E0,-1.656551170E1,-1.107876897E0
1.452257995E1,-4.153341770E0,-1.301246834E1,-1.155733347E0
1.457257995E1,-1.694417477E0,-6.399903297E0,-2.245065928E0
1.462257995E1,2.780160904E0,-3.337987661E0,-3.758227110E0
1.467257995E1,1.417747438E-1,-1.494616866E0,-2.056032896E0
1.472257995E1,-1.938784599E0,1.615155302E-2,-3.418745399E-1
1.477257995E1,-7.993224144E0,-1.015155029E1,1.001037312E1
1.482257995E1,-2.419741869E0,-1.509302807E1,9.081359863E0
1.487257995E1,-2.810070992E0,-7.563413143E0,6.160621166E0
1.492257995E1,-5.436492920E0,-1.210050392E1,-6.037390709E0
1.497257995E1,-7.609176040E-1,-6.936194420E0,-6.576074600E0
1.502257995E1,5.656034350E-1,-1.404437351E1,3.627519131E0
1.507257995E1,3.644268990E0,-9.660722733E0,2.039881349E-1
1.512257995E1,-2.554039001E0,-5.909374714E0,1.752742529E-1
1.517257995E1,-2.774178743E0,-7.697710514E0,1.013360381E0
1.522257995E1,-1.471885085E0,-8.157431602E0,-2.312064886E0
1.527257995E1,6.110670567E-1,-1.020179939E1,3.230310678E0
1.532257995E1,5.351248741E0,-1.219382381E1,6.182455420E-1
1.537257995E1,8.551349640E-1,-1.451366615E1,4.800600529E0
1.542257995E1,-1.706381679E0,-1.670668793E1,2.411366940E0
1.547257995E1,-5.891428471E0,-1.691486359E1,-8.565407753E0
1.552257995E1,-7.440182686E0,-1.448016644E1,3.160619497E0
1.557257995E1,-8.997012973E-1,-8.913862228E0,-6.385845542E-1
1.562257995E1,2.619841576E0,-5.688935757E0,-1.692024708E0
1.567257995E1,2.044965982E0,-4.135096550E0,1.417747378E0
1.572257995E1,-6.242275834E-1,-1.391426325E0,-2.709572554E0
1.577257995E1,-2.228316069E0,-1.642971873E0,2.023430586E0
1.582257995E1,-1.197727394E1,-1.741526222E1,1.405394459E1
1.587257995E1,-2.668894529E0,-8.787042618E0,8.420641899E0
1.592257995E1,-6.142674923E0,-1.130070305E1,1.085145116E0
1.597257995E1,-3.973581076E0,-9.466903687E0,-6.865606308E0
1.602257995E1,1.693221092E0,-8.727222443E0,-9.403493881E0
1.607257995E1,3.547359705E-1,-1.377398491E1,3.900599957E0
1.612257995E1,3.086441994E0,-7.989634991E0,-1.323530078E0
1.617257995E1,-1.845165372E0,-6.763911247E0,1.495514158E-2
1.622257995E1,-2.371885538E0,-7.798209190E0,-4.806582630E-1
1.627257995E1,-2.270190418E-1,-8.911469460E0,1.647757530E0
1.632257995E1,5.049753189E0,-1.200209904E1,1.980359793E0
1.637257995E1,2.694019079E0,-1.386730480E1,1.867897153E0
1.642257995E1,-1.284945726E0,-1.439163208E1,5.985645771E0
1.647257995E1,-8.183453679E-1,-1.467637730E1,1.573580027E0
1.652257995E1,-5.932106495E0,-1.951735687E1,-8.268697739E0
1.657257995E1,-5.141876698E0,-1.399651718E1,1.587936878E0
1.662257995E1,-7.824530005E-1,-8.990432739E0,-1.984248161E0
1.667257995E1,2.751446962E0,-4.980361462E0,-2.460718870E0
1.672257995E1,8.479565382E-1,-3.759423494E0,1.559223056E0
1.677257995E1,-1.002592683E0,3.394817114E-1,-2.711965322E0
1.682257995E1,-1.091127157E0,-1.889432549E0,5.990431309E0
1.687257995E1,-1.082542896E1,-2.712084961E1,1.961306953E1
1.692257995E1,-1.337886930E0,-4.017848492E0,6.838088989E0
1.697257995E1,-6.841678143E0,-1.693161392E1,-2.874677420E0
1.702257995E1,-1.146162033E0,-5.387440205E0,-7.093223572E0
1.707257995E1,-8.518448472E-1,-1.098724365E1,-8.821739197E0
1.712257995E1,1.719542146E0,-1.358704472E1,3.627519131E0
1.717257995E1,3.280559778E0,-7.427022457E0,1.274178028E-1
1.722257995E1,-2.352742910E0,-6.507879257E0,9.798609018E-1
1.727257995E1,-2.506182671E0,-8.863613129E0,3.690928817E-1
1.732257995E1,-2.988037169E-1,-7.678567886E0,3.619144261E-1
1.737257995E1,3.701696634E0,-1.248096275E1,3.450450182E0
1.742257995E1,2.267797709E0,-1.432702541E1,9.125627279E-1
1.747257995E1,-2.209173441E0,-1.402523041E1,6.045765400E0
1.752257995E1,-1.574776411E0,-1.525574017E1,8.623134494E-1
1.757257995E1,-5.417350292E0,-1.778884125E1,-6.947261333E0
1.762257995E1,-2.709572554E0,-1.427408409E1,7.043871880E-1
1.767257995E1,-2.008176327E0,-8.425427437E0,-1.790130496E0
1.772257995E1,2.368296146E0,-4.120739460E0,-2.558824778E0
1.777257995E1,9.221340418E-1,-2.480758905E0,1.016949583E-2
1.782257995E1,-6.385845542E-1,-2.733799815E-1,-2.204387903E0
1.787257995E1,-1.086341500E0,-3.256631613E0,5.569294930E0
1.792257995E1,-9.144769669E0,-3.175604630E1,1.782712746E1
1.797257995E1,-1.105484009E0,-2.387438774E0,5.286642551E0
1.802257995E1,-6.492326260E0,-1.750379753E1,-7.153044224E0
1.807257995E1,-4.574478626E0,-5.047360420E0,-2.168495417E0
1.812257995E1,2.179263115E0,-1.037886810E1,-9.446564674E0
1.817257995E1,3.287738323E0,-1.356072426E1,4.111168385E0
1.822257995E1,1.156929731E0,-6.644270420E0,1.453639746E0
1.827257995E1,-2.383849621E0,-6.538986206E0,4.220340848E-1
1.832257995E1,-2.525325298E0,-8.995218277E0,-1.022931710E-1
1.837257995E1,8.958129883E-1,-8.320143700E0,1.860718727E0
1.842257995E1,4.108775616E0,-1.211964703E1,3.048156977E0
1.847257995E1,1.015753269E0,-1.467398453E1,1.357926846E0
1.852257995E1,-2.294118702E-1,-1.299571896E1,4.075275898E0
1.857257995E1,-3.080759048E0,-1.613450432E1,1.535294771E0
1.862257995E1,-6.204888344E0,-1.671147346E1,-4.495515347E0
1.867257995E1,-2.510968208E0,-1.385773277E1,-9.750752151E-2
1.872257995E1,-1.190429255E-1,-8.013563156E0,-1.519741535E0
1.877257995E1,2.727518797E0,-5.097609520E0,-3.037688255E0
1.882257995E1,1.298106313E-1,-2.423331022E0,-1.785344839E0
1.887257995E1,-1.756630898E0,-1.824527234E-1,-2.261815548E0
1.892257995E1,-2.426920414E0,-3.522234917E0,1.040758228E1
1.897257995E1,-9.013164520E0,-2.866033173E1,1.422383499E1
1.902257995E1,-3.207578659E0,-3.163311481E0,5.586044312E0
1.907257995E1,-5.376672268E0,-1.719512177E1,-9.099306107E0
1.912257995E1,-2.951247692E0,-3.649353743E0,-1.534098387E0
1.917257995E1,2.303091735E-1,-1.239482117E1,-6.322136402E0
1.922257995E1,3.347558975E0,-1.255035496E1,2.413759947E0
1.927257995E1,5.560321808E-1,-6.313761711E0,5.943173170E-1
1.932257995E1,-2.268994093E0,-6.694519520E0,1.381855130E0
1.937257995E1,-1.359422326E0,-8.877969742E0,-8.063812256E-1
1.942257995E1,-7.271189690E-1,-8.643174171E0,-5.237290859E-1
1.947257995E1,2.363510609E0,-1.197817135E1,4.082454681E0
1.952257995E1,4.484747887E0,-1.367318726E1,1.271785259E0
1.957257995E1,-2.613859653E0,-1.374018574E1,6.687341213E0
1.962257995E1,-1.165304661E0,-1.588535118E1,-7.597211748E-2
1.967257995E1,-6.867999077E0,-1.862184334E1,-4.481158733E0
1.972257995E1,-3.660121441E0,-1.406590843E1,-1.093519926E0
1.977257995E1,-2.020140409E0,-8.415856361E0,-1.639382601E0
1.982257995E1,2.444866419E0,-3.993920088E0,-2.688037157E0
1.987257995E1,7.618148923E-1,-1.987837434E0,-2.024926186E0
1.992257995E1,-1.299302697E0,3.050848842E-2,-2.178066730E0
1.997257995E1,-2.304886341E0,-3.680460215E0,8.964112282E0
2.002257995E1,-8.680562019E0,-2.901955414E1,1.314407349E1
2.007257995E1,-4.512265205E0,-5.856433392E0,6.617949009E0
2.012257995E1,-4.761417866E0,-1.079551888E1,-5.862714767E0
2.017257995E1,-3.171686411E0,-7.403094292E0,-1.182054400E0
2.022257995E1,8.934201598E-1,-1.386251926E1,-1.467099428E0
2.027257995E1,4.527818680E0,-1.015872860E1,1.144965649E0
2.032257995E1,-9.140582681E-1,-6.467201233E0,1.171286702E0
2.037257995E1,-1.768594980E0,-7.477271557E0,1.216750264E0
2.042257995E1,-1.368993640E0,-8.667102814E0,-1.321137190E0
2.047257995E1,6.759724021E-2,-9.431011200E0,2.255833626E0
2.052257995E1,3.696911097E0,-1.206939697E1,4.393820763E0
2.057257995E1,2.641377211E0,-1.440359592E1,2.083251238E0
2.062257995E1,-1.603490233E0,-1.317996597E1,5.021039009E0
2.067257995E1,-1.265803218E0,-1.707518196E1,-8.117949486E0
2.072257995E1,-7.837690353E0,-1.723819351E1,1.298106313E0
2.077257995E1,-3.715156317E0,-1.276600838E1,-1.378564954E0
2.082257995E1,-9.212366939E-1,-7.345666409E0,-1.584347725E0
2.087257995E1,2.552543640E0,-4.029812336E0,-3.636193037E0
2.092257995E1,-5.021936297E-1,-8.096713424E-1,-1.847857237E0
2.097257995E1,-1.112662554E0,5.165506005E-1,-6.457630396E-1
2.102257995E1,-5.737988472E0,-8.006384850E0,8.248059273E0
2.107257995E1,-3.332005501E0,-1.443709564E1,8.370392799E0
2.112257995E1,-1.239482164E0,-8.407780528E-1,2.694019079E0
2.117257995E1,-8.867202759E0,-2.193769646E1,-2.932105064E0
2.122257995E1,-6.400800496E-2,-5.485546112E0,-3.710370541E0
2.127257995E1,5.584250093E-1,-1.167667580E1,-2.513360977E0
2.132257995E1,4.281058788E0,-1.266072369E1,1.681257010E0
2.137257995E1,-1.098305583E0,-6.191727638E0,1.939681888E0
2.142257995E1,-2.525325298E0,-7.132705212E0,1.264606714E0
2.147257995E1,-1.412064433E0,-8.485248566E0,-2.491825581E0
2.152257995E1,8.647062778E-1,-9.011968613E0,3.996312857E0
2.157257995E1,4.590032101E0,-1.327119255E1,2.633899450E0
2.162257995E1,1.944467545E0,-1.461894989E1,3.946063757E0
2.167257995E1,-1.325922847E0,-1.555514145E1,3.694518089E0
2.172257995E1,-4.536193371E0,-1.885663795E1,-8.761918068E0
2.177257995E1,-4.995914459E0,-1.589492226E1,3.898207188E0
2.182257995E1,-9.499505758E-1,-9.895518303E0,-1.404886007E0
2.187257995E1,6.804589629E-1,-4.920540810E0,-7.968099117E-1
2.192257995E1,2.899801970E0,-3.584448338E0,-1.773380637E0
2.197257995E1,-3.035893738E-1,8.973085321E-3,-2.518146753E0
2.202257995E1,-2.000998020E0,-1.082752228E0,1.192822099E0
2.207257995E1,-1.194108200E1,-1.680718613E1,1.277079391E1
2.212257995E1,-2.508575439E0,-8.619246483E0,7.386344433E0
2.217257995E1,-3.803690672E0,-1.377637768E1,4.403391838E0
2.222257995E1,-3.590729475E0,-5.502295494E0,-9.712467194E0
2.227257995E1,5.847460628E-1,-1.123849010E1,-9.934999466E0
2.232257995E1,3.381058455E0,-1.265354538E1,4.558925152E0
2.237257995E1,2.487937450E0,-8.104490280E0,1.211964726E0
2.242257995E1,-2.156531334E0,-5.636293888E0,1.568794370E0
2.247257995E1,-1.522134304E0,-7.580461979E0,3.667000830E-1
2.252257995E1,-1.488634825E0,-1.033101177E1,-2.194816589E0
2.257257995E1,7.977072597E-1,-1.129113197E1,3.330809116E0
2.262257995E1,5.076074123E0,-1.275643635E1,2.710768938E0
2.267257995E1,1.243071318E0,-1.520788383E1,4.068097591E0
2.272257995E1,-1.284945726E0,-1.572503185E1,2.914158821E0
2.277257995E1,-4.294518471E0,-1.900977898E1,-9.233603477E0
2.282257995E1,-4.983950615E0,-1.506670666E1,3.129513025E0
2.287257995E1,-5.524429083E-1,-8.875576973E0,-2.788535595E0
2.292257995E1,1.985145450E0,-5.437689304E0,-1.249053478E0
2.297257995E1,2.011466503E0,-3.261417150E0,-2.709572554E0
2.302257995E1,-1.404886007E0,-7.331010103E-1,-2.877070189E0
2.307257995E1,-2.539682150E0,-1.683649778E0,4.422534466E0
2.312257995E1,-9.870393753E0,-2.278296089E1,1.882044792E1
2.317257995E1,-2.829213619E0,-6.503093719E0,9.299106598E0
2.322257995E1,-5.134698391E0,-1.759233093E1,-1.227159119E1
2.327257995E1,-2.563610315E0,-2.435295343E0,-3.645764351E0
2.332257995E1,7.307082415E-1,-1.444188118E1,-5.834000587E0
2.337257995E1,4.887041092E0,-1.131266689E1,2.966800928E0
2.342257995E1,7.713862062E-1,-6.270690918E0,5.823532343E-1
2.347257995E1,-2.010569334E0,-6.653841496E0,1.085145116E0
2.352257995E1,-1.249053478E0,-9.143573761E0,5.440680385E-1
2.357257995E1,-2.892324328E-1,-8.329714775E0,-1.510170221E0
2.362257995E1,1.927717686E0,-1.159053421E1,2.291725874E0
2.367257995E1,3.455235958E0,-1.499492264E1,3.129513025E0
2.372257995E1,2.638086975E-1,-1.533230972E1,5.949753284E0
2.377257995E1,-8.901300430E-1,-1.642164230E1,-6.505486369E-1
2.382257995E1,-7.794619560E0,-1.917249107E1,-3.399004459E0
2.387257995E1,-4.433301926E0,-1.333101273E1,-1.960319996E0
2.392257995E1,-1.129412293E0,-7.850851059E0,-6.601199508E-1
2.397257995E1,3.843172312E0,-2.361117840E0,-7.478767395E0
2.402257995E1,-2.811566554E-2,-6.445665956E-1,-2.554039001E0
2.407257995E1,-1.333101273E0,6.194419861E-1,-8.853443861E-1
2.412257995E1,-5.424529076E0,-1.064716339E1,1.065434170E1
2.417257995E1,-2.087139606E0,-1.379312706E1,8.877969742E0
2.422257995E1,-5.261816978E0,-8.542675972E0,4.266701698E0
2.427257995E1,-4.318446636E0,-8.877969742E0,-6.279065609E0
2.432257995E1,-2.206780672E0,-9.270691872E0,-5.761917114E0
2.437257995E1,2.404188633E0,-1.260060406E1,1.274178028E-1
2.442257995E1,3.326023579E0,-9.895518303E0,-1.671984792E-1
2.447257995E1,-1.529312730E0,-6.701697826E0,1.499103427E0
2.452257995E1,-2.161317110E0,-7.417450905E0,-4.136592150E-1
2.457257995E1,-1.967498422E0,-9.720542908E0,-1.953141451E0
2.462257995E1,1.281356573E0,-1.148255730E1,2.265404940E0
2.467257995E1,5.123930454E0,-1.218425274E1,1.966002941E0
2.472257995E1,-2.015354872E0,-1.375244904E1,5.729613781E0
2.477257995E1,1.793719649E0,-1.345065403E1,4.170989037E0
2.482257995E1,-1.107876897E0,-1.730040741E1,-7.057331085E0
2.487257995E1,-5.101198673E0,-1.532991695E1,1.815255046E0
2.492257995E1,-2.982354403E0,-1.073091221E1,-2.420041084E0
2.497257995E1,-2.103889227E0,-5.633901119E0,-1.119840980E0
2.502257995E1,3.788137436E0,-2.988336325E0,-3.803690672E0
2.507257995E1,-1.262213886E-1,-1.085145116E0,-2.158924341E0
2.512257995E1,-5.859424472E-1,-2.709871531E-1,7.776673418E-3
2.517257995E1,-1.103151035E1,-1.601007652E1,1.442243958E1
2.522257995E1,-1.900499344E0,-1.076919746E1,7.460521698E0
2.527257995E1,-5.862714767E0,-1.538255978E1,-2.692822695E0
2.532257995E1,-3.262613773E0,-3.969991922E0,-4.754239559E0
2.537257995E1,3.572484255E0,-1.465244961E1,-8.852845192E0
2.542257995E1,4.625924587E0,-1.193270779E1,5.085645199E0
2.547257995E1,1.633101404E-1,-6.778268337E0,-8.075776696E-2
2.552257995E1,-3.095116138E0,-6.605985165E0,1.365105271E0
2.557257995E1,-1.227517962E0,-8.231609344E0,-4.280161560E-1
2.562257995E1,8.913264424E-2,-7.968099594E0,-2.054836452E-1
2.567257995E1,3.538984776E0,-1.218425274E1,3.273381472E0
2.572257995E1,3.455235958E0,-1.332144165E1,1.865504384E0
2.577257995E1,3.888336942E-2,-1.561256981E1,5.018646240E0
2.582257995E1,-2.532503605E0,-1.611296844E1,1.974078640E-2
2.587257995E1,-6.420541286E0,-1.816690826E1,-6.032605171E0
2.592257995E1,-3.999902248E0,-1.472423458E1,-1.118644550E-1
2.597257995E1,-9.308080077E-1,-8.102097511E0,-2.420041084E0
2.602257995E1,2.598007202E0,-4.487140656E0,-3.513859987E0
2.607257995E1,9.655039310E-1,-3.270988464E0,-1.881356835E0
2.612257995E1,-8.733802438E-1,-5.324030295E-2,-2.613859653E0
2.617257995E1,-2.896212816E0,-3.263810158E0,9.536295891E0
2.622257995E1,-7.835297585E0,-2.526072884E1,1.271306705E1
2.627257995E1,-4.148556232E0,-6.457630157E0,8.387142181E0
2.632257995E1,-4.909772873E0,-1.291197014E1,-8.821739197E0
2.637257995E1,-2.118246317E0,-6.308976173E0,-2.130210400E0
2.642257995E1,7.713862062E-1,-1.497099400E1,-6.481558084E-1
2.647257995E1,5.430510998E0,-1.017308521E1,5.919244885E-1
2.652257995E1,-1.907677889E0,-6.306583405E0,1.013360381E0
2.657257995E1,-3.154936552E0,-7.553842068E0,7.450651526E-1
2.662257995E1,-1.340279818E0,-9.234500885E0,-1.799701691E0
2.667257995E1,2.318047047E0,-1.134138107E1,2.203191519E0
2.672257995E1,5.949753284E0,-1.137727356E1,3.084049225E0
2.677257995E1,-1.150947690E0,-1.457109356E1,5.387141228E0
2.682257995E1,7.043871880E-1,-1.551685619E1,2.521436930E0
2.687257995E1,-4.129413605E0,-1.859313011E1,-8.632705688E0
2.692257995E1,-4.849952221E0,-1.739851189E1,3.972384691E0
2.697257995E1,-1.381855011E-1,-8.868398666E0,-2.453540564E0
2.702257995E1,4.698905349E-1,-4.906183720E0,-7.465606928E-1
2.707257995E1,4.099204063E0,-5.033900738E-1,-5.201996326E0
2.712257995E1,-3.227319419E-1,-2.135594189E-1,-2.558824778E0
2.717257995E1,-1.321137190E0,-1.183250785E0,6.541379094E-1
2.722257995E1,-1.256620693E1,-2.052054787E1,1.457109356E1
2.727257995E1,-2.465504646E0,-7.719245911E0,8.837292671E0
2.732257995E1,-4.684847832E0,-1.300050449E1,1.329213023E0
2.737257995E1,-3.643371582E0,-4.202095509E0,-7.655836105E0
2.742257995E1,3.359523058E0,-1.335254860E1,-1.007856941E1
2.747257995E1,3.893421650E0,-1.253599739E1,4.819743156E0
2.752257995E1,8.623134494E-1,-7.695317745E0,6.780661345E-1
2.757257995E1,-2.276172638E0,-5.916553020E0,1.133001566E0
2.762257995E1,-1.244267821E0,-7.645068169E0,-4.471587241E-1
2.767257995E1,-1.045663476E0,-9.696614265E0,-1.088734269E0
2.772257995E1,2.794517756E0,-1.150170040E1,5.088038445E0
2.777257995E1,4.628317356E0,-1.349372482E1,2.059323072E0
2.782257995E1,7.043871880E-1,-1.460220051E1,5.310570717E0
2.787257995E1,-3.078366280E0,-1.552164268E1,2.213360928E-2
2.792257995E1,-6.202495575E0,-1.805683708E1,-6.707680225E0
2.797257995E1,-3.288934708E0,-1.450887966E1,2.087737769E-1
2.802257995E1,-5.333003402E-1,-8.059026718E0,-2.352742910E0
2.807257995E1,2.576471806E0,-4.575675011E0,-2.479861498E0
2.812257995E1,1.137787223E0,-2.107478619E0,-1.601097465E0
2.817257995E1,-1.536491275E0,3.825525343E-1,-2.613859653E0
2.822257995E1,-2.218744755E0,-3.694817305E0,5.861218929E0
2.827257995E1,-8.747561455E0,-2.919183731E1,1.411376572E1
2.832257995E1,-1.371386528E0,-1.704886109E-1,8.942576408E0
2.837257995E1,-5.857928753E0,-1.538495255E1,-4.143770695E0
2.842257995E1,-2.640180588E0,-9.033503532E0,-3.715156317E0
2.847257995E1,1.360319614E0,-9.212965012E0,-7.569694519E0
2.852257995E1,2.792124987E0,-1.453041553E1,3.129513025E0
2.857257995E1,1.207179070E0,-6.976872444E0,1.202393413E0
2.862257995E1,-2.161317110E0,-7.170990467E0,8.144569993E-1
2.867257995E1,-2.383849621E0,-8.178966522E0,-2.728715181E0
2.872257995E1,1.202393413E0,-9.383154869E0,3.938885212E0
2.877257995E1,8.372785568E0,-1.231107235E1,3.062513828E0
2.882257995E1,4.890331328E-1,-1.437488174E1,4.451248169E0
2.887257995E1,-1.605883121E0,-1.650060654E1,4.022634029E0
2.892257995E1,-3.600300789E0,-1.866969872E1,-9.518349648E0
2.897257995E1,-4.272983074E0,-1.765693665E1,4.003491402E0
2.902257995E1,-1.342672586E0,-9.524331093E0,-3.964009762E0
2.907257995E1,1.008574724E0,-4.427320004E0,-1.239482164E0
2.912257995E1,4.173381805E0,-2.397010088E0,-1.201196909E0
2.917257995E1,-8.350951076E-1,6.505486369E-1,-2.522932291E0
2.922257995E1,-1.136590719E0,-1.015753269E0,1.738684773E0
2.927257995E1,-1.464168167E1,-2.550001144E1,1.351047516E1
2.932257995E1,-1.945963025E0,-4.903790951E0,6.507580280E0
2.937257995E1,-5.570491314E0,-6.859624386E0,-4.320839405E0
2.942257995E1,-4.275375843E0,-1.845673752E1,-3.640978813E0
2.947257995E1,2.174477577E0,-6.055336952E0,-6.235994816E0
2.952257995E1,6.493522525E-1,-1.383141232E1,2.705983400E0
2.957257995E1,3.857529163E0,-8.506783485E0,-7.513462901E-1
2.962257995E1,-1.886142492E0,-7.005586624E0,1.156929731E0
2.967257995E1,-3.650550127E0,-8.501997948E0,3.092723191E-1
2.972257995E1,-6.640082598E-2,-8.928219795E0,-3.634099364E-1
2.977257995E1,4.154239178E0,-1.102552891E1,4.025026798E0
2.982257995E1,3.684946775E0,-1.389123249E1,2.095514536E0
2.987257995E1,-1.998605132E0,-1.166471100E1,6.797410965E0
2.992257995E1,1.357926846E0,-1.815733719E1,-2.605185509E-1
2.997257995E1,-5.367101192E0,-1.746551132E1,-7.179365158E0
3.002257995E1,-3.188436270E0,-1.502124310E1,5.344967842E-1
3.007257995E1,-1.711167336E0,-8.921041489E0,-2.225923300E0
3.012257995E1,2.717947483E0,-5.018646240E0,-3.205185890E0
3.017257995E1,1.484746456E0,-1.891825438E0,-2.340778828E0
3.022257995E1,-1.610668778E0,1.229910851E0,-1.670489311E0
3.027257995E1,-4.466801643E0,-5.315356255E0,9.076574326E0
3.032257995E1,-5.362315655E0,-2.334796715E1,1.316560936E1
3.037257995E1,-1.210768223E0,-6.519843578E0,6.454938412E0
3.042257995E1,-5.007878780E0,-1.126720333E1,-5.687739372E0
3.047257995E1,-2.458326101E0,-8.171788216E0,-5.764608860E0
3.052257995E1,1.087537885E0,-1.380987644E1,3.031407118E0
3.057257995E1,5.619544029E0,-9.227322578E0,-1.036092162E0
3.062257995E1,-1.703988791E0,-6.531807423E0,1.235892892E0
3.067257995E1,-2.513360977E0,-8.102097511E0,1.642971873E0
3.072257995E1,-7.680960894E-1,-8.935398102E0,-3.008974552E0
3.077257995E1,1.987538338E0,-1.100160027E1,2.602792740E0
3.082257995E1,5.363213062E0,-1.086251736E1,2.854338408E0
3.087257995E1,-3.825525343E-1,-1.493988705E1,4.680959225E0
3.092257995E1,6.134598851E-1,-1.575135326E1,2.552543640E0
3.097257995E1,-4.186841488E0,-1.825334930E1,-8.618349075E0
3.102257995E1,-3.889832258E0,-1.584706593E1,3.213261604E0
3.107257995E1,1.872383654E-1,-8.995218277E0,-3.348755360E0
3.112257995E1,1.516152263E0,-4.915754795E0,-4.304089844E-1
3.117257995E1,3.515056372E0,-2.627020121E0,-1.929213285E0
3.122257995E1,-9.427721500E-1,4.280161560E-1,-2.788535595E0
3.127257995E1,-1.103091240E0,-1.597508192E0,2.523829699E0
3.132257995E1,-1.366271782E1,-2.736521721E1,1.727169228E1
3.137257995E1,-2.362314224E0,-5.810969830E0,5.121537685E0
3.142257995E1,-5.276174068E0,-1.129831028E1,2.456830740E0
3.147257995E1,-2.326421738E0,-9.789935112E0,-7.550551891E0
3.152257995E1,1.389033556E0,-8.968897820E0,-7.950153351E0
3.157257995E1,1.278963685E0,-1.370907879E1,4.214059830E0
3.162257995E1,3.088835001E0,-7.896314621E0,-5.787639618E-1
3.167257995E1,-1.972284079E0,-6.493522644E0,9.005986452E-1
3.172257995E1,-2.388635159E0,-8.152646065E0,5.679962635E-1
3.177257995E1,2.685943544E-1,-8.487641335E0,-7.202396393E-1
3.182257995E1,3.792922974E0,-1.122891808E1,3.910171270E0
3.187257995E1,4.063312054E0,-1.404437351E1,7.067800164E-1
3.192257995E1,-1.366600871E0,-1.384098339E1,6.845267296E0
3.197257995E1,-3.466601670E-1,-1.596670723E1,1.820040703E0
3.202257995E1,-4.466801643E0,-1.802812386E1,-7.344470024E0
3.207257995E1,-3.810869217E0,-1.467637730E1,8.673982322E-2
3.212257995E1,-1.665703654E0,-7.901100159E0,-1.285244823E0
3.217257995E1,3.330809116E0,-4.853541851E0,-2.585145712E0
3.222257995E1,1.729113460E0,-2.260619164E0,-1.933998942E0
3.227257995E1,-1.323530078E0,-7.956135273E-2,-2.388635159E0
3.232257995E1,-2.501396894E0,-3.644268990E0,1.061366367E1
3.237257995E1,-8.893523216E0,-2.850001335E1,1.361097336E1
3.242257995E1,-3.533002615E0,-3.790530205E0,7.613662720E0
3.247257995E1,-5.182554722E0,-1.379551983E1,-7.330112934E0
3.252257995E1,1.700399637E0,-8.289036751E0,-5.513063431E0
3.257257995E1,1.037288666E0,-1.352004623E1,2.519043922E0
3.262257995E1,2.600399971E0,-9.268299103E0,8.434699476E-2
3.267257995E1,-2.228316069E0,-6.749554634E0,1.597508192E0
3.272257995E1,-2.606681108E0,-6.926623344E0,3.044866920E-1
3.277257995E1,-2.605185509E-1,-9.397511482E0,-2.065604210E0
3.282257995E1,2.229512453E0,-1.199252796E1,2.334796667E0
3.287257995E1,5.016253471E0,-1.190399361E1,3.493520975E0
3.292257995E1,2.991028363E-3,-1.521984768E1,3.704089403E0
3.297257995E1,1.487139225E0,-1.545703602E1,2.097907305E0
3.302257995E1,-4.646263599E0,-1.852373695E1,-8.129914284E0
3.307257995E1,-5.508277893E0,-1.530598927E1,1.788933992E0
3.312257995E1,1.283749342E0,-8.509176254E0,-2.927319288E0
3.317257995E1,1.985145450E0,-5.566901684E0,-8.183453679E-1
3.322257995E1,3.323630571E0,-3.067299604E0,-1.222732425E0
3.327257995E1,-9.260223508E-1,3.825525343E-1,-2.985046148E0
3.332257995E1,-1.555633783E0,-2.145763636E0,5.937789440E0
3.337257995E1,-1.023649502E1,-3.068346405E1,1.759951019E1
3.342257995E1,-3.104687452E0,-2.284547329E0,5.686542988E0
3.347257995E1,-7.330112934E0,-1.798744583E1,-7.138687134E0
3.352257995E1,-5.404788256E-1,-5.590830326E0,-2.877070189E0
3.357257995E1,7.426723242E-1,-1.286650658E1,-3.178864956E0
3.362257995E1,4.709673405E0,-1.086251736E1,1.372283816E0
3.367257995E1,6.999006122E-2,-6.258726597E0,1.283749342E0
3.372257995E1,-2.778964281E0,-7.264310360E0,1.619043589E0
3.377257995E1,-1.524527073E0,-8.152646065E0,-1.917249203E0
3.382257995E1,7.331010103E-1,-1.004148006E1,2.670090914E0
3.387257995E1,5.114359379E0,-1.103988552E1,3.376272678E0
3.392257995E1,2.169692039E0,-1.504517174E1,1.491924882E0
3.397257995E1,4.914259613E-1,-1.380030537E1,4.080061913E0
3.402257995E1,-3.751048565E0,-1.695554161E1,-6.875177860E0
3.407257995E1,-6.611967087E0,-1.665165329E1,2.538186550E0
3.412257995E1,-2.369492531E0,-1.167906857E1,-4.902295470E-1
3.417257995E1,5.368895531E-1,-5.904589176E0,-1.138983607E0
3.422257995E1,2.947658300E0,-3.704388618E0,-2.546860695E0
3.427257995E1,-4.806582630E-1,-3.693920076E-1,-2.494218588E0
3.432257995E1,-1.486241937E0,-8.602197170E-1,-5.763711333E-1
3.437257995E1,-8.903095245E0,-1.285932827E1,1.269870949E1
3.442257995E1,-2.991925716E0,-1.345065403E1,9.639186859E0
3.447257995E1,-4.878666401E0,-1.618235970E1,6.565008163E0
3.452257995E1,-3.032902718E0,-1.824826360E0,-5.529813290E0
3.457257995E1,3.857529163E0,-1.262213898E1,-1.937737656E1
3.462257995E1,4.111168385E0,-1.337169075E1,2.942872763E0
3.467257995E1,3.717848063E-1,-6.830910206E0,-3.858725548E0
3.472257995E1,-3.142972469E0,-6.747161865E0,4.244269133E-1
3.477257995E1,-1.917249203E0,-7.881958008E0,3.188436031E-1
3.482257995E1,1.633400559E0,-8.226823807E0,-2.748754919E-1
3.487257995E1,3.768994808E0,-1.098006535E1,1.508674622E0
3.492257995E1,3.215953588E0,-1.432941818E1,1.386640668E0
3.497257995E1,-3.729812205E-1,-1.459262848E1,6.328118801E0
3.502257995E1,-9.690931439E-1,-1.643839264E1,1.142572761E0
3.507257995E1,-7.210472107E0,-2.027378845E1,-2.415255308E0
3.512257995E1,-3.470789194E0,-1.358225918E1,-7.848458290E-1
3.517257995E1,-8.350951076E-1,-7.980063438E0,-1.366600871E0
3.522257995E1,5.030610561E0,-5.231607437E0,-3.085544825E0
3.527257995E1,5.321039557E-1,-1.542473316E0,-2.173281193E0
3.532257995E1,-8.207381964E-1,-2.733799815E-1,-1.531705618E0
3.537257995E1,-8.211270332E0,-8.518747330E0,9.521938324E0
3.542257995E1,-1.663310885E0,-1.409222984E1,9.141180992E0
3.547257995E1,-3.645764351E0,-7.891529083E0,-2.884248495E0
3.552257995E1,-4.730311394E0,-1.307946777E1,-4.924129963E0
3.557257995E1,3.045764208E0,-8.578568459E0,-1.055503941E1
3.562257995E1,2.172084808E0,-1.519831181E1,4.566103935E0
3.567257995E1,2.691626310E0,-6.823731899E0,-3.705884218E-1
3.572257995E1,-2.278565407E0,-5.959623814E0,-2.844468057E-1
3.577257995E1,-4.562514782E0,-8.973683357E0,5.982056609E-4
3.582257995E1,-3.529413417E-2,-8.475676537E0,1.681257010E0
3.587257995E1,5.054538727E0,-1.260299683E1,3.601198196E0
3.592257995E1,4.329214573E0,-1.382184124E1,1.144965649E0
3.597257995E1,-7.510471940E-1,-1.340758324E1,4.968397141E0
3.602257995E1,-2.522932291E0,-1.671386528E1,-2.424826622E0
3.607257995E1,-6.106782436E0,-1.756840324E1,-2.570788860E0
3.612257995E1,-2.826820850E0,-1.369232941E1,-4.567300081E-1
3.617257995E1,-8.398807645E-1,-6.878767014E0,-2.130210400E0
3.622257995E1,3.146262646E0,-4.499104977E0,-1.790130496E0
3.627257995E1,1.245464206E0,-2.102692842E0,-1.727917075E0
3.632257995E1,-1.229910851E0,-8.096713424E-1,-2.582752943E0
3.637257995E1,-4.189234257E0,-3.589233875E0,9.897611618E0
3.642257995E1,-4.871487617E0,-2.064018822E1,1.332622719E1
3.647257995E1,-3.650550127E0,-6.251548290E0,4.233202457E0
3.652257995E1,-6.619145870E0,-1.800898170E1,-5.225924492E0
3.657257995E1,2.093121529E0,-7.139883518E0,-5.407779217E0
3.662257995E1,-4.854438901E-1,-1.485583973E1,2.200798512E0
3.667257995E1,3.776173353E0,-9.380762100E0,-7.103692293E-1
3.672257995E1,-1.684846282E0,-5.957231045E0,9.822536707E-1
3.677257995E1,-2.676073074E0,-7.590033531E0,-1.743769497E-1
3.682257995E1,-3.466601670E-1,-8.231609344E0,-9.930213690E-1
3.687257995E1,3.977170229E0,-1.233500099E1,3.749552965E0
3.692257995E1,5.358427048E0,-1.191117191E1,1.595115423E0
3.697257995E1,-9.212366939E-1,-1.392951775E1,5.940182209E0
3.702257995E1,-5.691927075E-1,-1.577288914E1,8.240283132E-1
3.707257995E1,-5.515456200E0,-1.906959915E1,-7.050152779E0
3.712257995E1,-4.050151348E0,-1.639292908E1,4.507479668E-1
3.717257995E1,4.890331328E-1,-9.521938324E0,-4.576871395E0
3.722257995E1,3.912564039E0,-4.267001152E0,-1.965105653E0
3.727257995E1,2.806481838E0,-1.827219248E0,-1.450349569E0
3.732257995E1,-9.834501147E-1,1.022931710E-1,-2.953640461E0
3.737257995E1,-2.568396091E0,-2.062014818E0,6.723233223E0
3.742257995E1,-1.168265724E1,-2.877997398E1,1.412812233E1
3.747257995E1,-4.265804768E0,-6.761518478E0,9.011968613E0
3.752257995E1,-4.857131004E0,-1.413290787E1,-1.159890842E1
3.757257995E1,-3.267399311E0,-4.554139614E0,-5.309075117E-1
3.762257995E1,2.049751759E0,-1.322333622E1,-5.285745144E0
3.767257995E1,5.265107155E0,-1.132941723E1,3.701696634E0
3.772257995E1,8.790631890E-1,-6.847660065E0,1.973181367E0
3.777257995E1,-2.101496458E0,-7.616354465E0,3.140579760E-1
3.782257995E1,-1.246660590E0,-7.913064480E0,-4.710869491E-1
3.787257995E1,8.096713424E-1,-7.829315662E0,1.262213945E0
3.792257995E1,3.093620539E0,-1.273968697E1,2.866302490E0
3.797257995E1,3.036192894E0,-1.302204037E1,4.507479668E-1
3.802257995E1,-1.505384564E0,-1.357029533E1,6.548258305E0
3.807257995E1,4.196412563E-1,-1.753969002E1,1.137787223E0
3.812257995E1,-6.200102806E0,-2.017568207E1,-8.244769096E0
3.817257995E1,-5.678168297E0,-1.492074490E1,6.517450809E-1
3.822257995E1,-2.743072033E0,-8.126026154E0,-3.990330935E0
3.827257995E1,4.999503613E0,-4.841577530E0,-3.087937593E0
3.832257995E1,1.508973837E0,-2.375474691E0,-1.286142170E-1
3.837257995E1,-3.394817114E-1,1.632204175E0,-1.598704576E0
3.842257995E1,-2.103889227E0,-4.525425911E0,1.190160084E1
3.847257995E1,-6.487540245E0,-2.308445740E1,8.786744118E0
3.852257995E1,-1.007378292E1,-1.624457359E1,3.941277981E0
3.857257995E1,-9.643075466E-1,-1.046859860E0,-1.161326599E1
3.862257995E1,1.465603828E0,-1.532991695E1,-1.285095310E1
3.867257995E1,4.944468975E0,-1.327119255E1,7.826922894E0
3.872257995E1,1.989931107E0,-6.929016113E0,-2.940180898E-1
3.877257995E1,-3.284149170E0,-5.909374714E0,1.503889084E0
3.882257995E1,-2.810070992E0,-8.760722160E0,-2.093719877E-2
3.887257995E1,1.113858938E0,-8.980861664E0,9.699904919E-1
3.892257995E1,5.109573841E0,-1.122652531E1,3.096013308E0
3.897257995E1,3.433700562E0,-1.486780357E1,1.741077542E0
3.902257995E1,-6.936194897E-1,-1.368754387E1,4.963611603E0
3.907257995E1,-2.078764737E-1,-1.602682686E1,4.746761918E-1
3.912257995E1,-4.713561535E0,-1.833949089E1,-6.635895252E0
3.917257995E1,-4.124628067E0,-1.357268810E1,-7.561319470E-1
3.922257995E1,-1.194018483E0,-8.226823807E0,-1.977069736E0
3.927257995E1,3.170190811E0,-4.472783566E0,-1.524527073E0
3.932257995E1,1.810469389E0,-1.381855130E0,-1.804487348E0
3.937257995E1,-8.877372146E-1,3.801597059E-1,-2.032104731E0
3.942257995E1,-1.993819475E0,-5.327320576E0,1.067827034E1
3.947257995E1,-4.552943230E0,-2.365185547E1,1.323978710E1
3.952257995E1,-3.887439489E0,-1.379462242E0,3.965206146E0
3.957257995E1,-6.023033619E0,-2.014696884E1,-1.321974659E1
3.962257995E1,-2.948854923E0,-5.911767483E0,1.154536963E0
3.967257995E1,7.737790346E-1,-1.157856941E1,-5.027021408E0
3.972257995E1,7.673782349E0,-1.180110264E1,2.270190477E0
3.977257995E1,1.178465128E0,-6.024230003E0,2.160120726E0
3.982257995E1,-2.965604544E0,-7.975277901E0,9.918249846E-1
3.987257995E1,-2.570788860E0,-9.007183075E0,-9.619147182E-1
3.992257995E1,1.769791484E0,-1.011805058E1,1.798505306E0
3.997257995E1,6.347260952E0,-1.205234814E1,1.202393413E0
4.002257995E1,2.662015259E-1,-1.417597866E1,4.678566456E0
4.007257995E1,7.857431173E-1,-1.570349693E1,2.356332064E0
4.012257995E1,-5.431707382E0,-1.876541328E1,-9.128020287E0
4.017257995E1,-5.970391750E0,-1.590927982E1,4.269094467E0
4.022257995E1,-6.553342938E-1,-9.529116631E0,-8.733802438E-1
4.027257995E1,1.535294771E0,-4.252644062E0,-1.996212244E0
4.032257995E1,3.256631613E0,-3.867100477E0,-5.021936297E-1
4.037257995E1,2.087737769E-1,-1.319641709E0,-1.955534339E0
4.042257995E1,-1.507777333E0,-1.523330688E0,3.021835804E0
4.047257995E1,-1.185494041E1,-1.831556129E1,1.527009678E1
4.052257995E1,-9.944570541E0,-1.605793381E1,1.249771309E1
4.057257995E1,1.197607756E0,-1.357926846E0,-1.749542236E1
4.062257995E1,-6.006283760E0,-6.912266254E0,3.242274761E0
4.067257995E1,3.292523861E0,-1.732672691E1,-4.495515525E-1
4.072257995E1,5.727221012E0,-9.715757370E0,3.186940670E0
4.077257995E1,7.953144312E-1,-6.275476456E0,1.109073281E0
4.082257995E1,-2.379063845E0,-7.383951664E0,3.260220885E-1
4.087257995E1,-3.734298944E0,-8.583353996E0,-1.024128079E0
4.092257995E1,-1.835594058E0,-1.004865837E1,2.629113913E0
4.097257995E1,6.914659023E0,-1.267747307E1,4.180560112E0
4.102257995E1,1.499402523E0,-1.482951832E1,3.136691332E0
4.107257995E1,3.871886253E0,-1.410419369E1,4.182952881E0
4.112257995E1,-3.430111170E0,-2.096322060E1,-8.208877563E0
4.117257995E1,-8.488837242E0,-1.728844261E1,1.932503343E0
4.122257995E1,-4.112364769E0,-1.131505966E1,1.752742529E-1
4.127257995E1,3.598805189E0,-1.568794370E0,-5.941677570E0
4.132257995E1,3.723232031E0,-4.206881523E0,-3.806083441E0
4.137257995E1,-3.681955934E-1,-2.928216755E-1,-3.332005501E0
4.142257995E1,-1.443171144E0,-9.487541914E-1,1.944467545E0
4.147257995E1,-1.390678596E1,-1.640728569E1,1.637378693E1
4.152257995E1,-2.477468729E0,-9.660722733E0,8.494819641E0
4.157257995E1,-6.600003242E0,-5.743970871E0,-5.484349728E0
4.162257995E1,-6.614359856E0,-1.632832336E1,-4.373481750E0
4.167257995E1,1.415354609E0,-9.763613701E0,-5.230710506E0
4.172257995E1,2.129014015E0,-1.408983707E1,1.628614902E0
4.177257995E1,3.828815222E0,-8.382356644E0,2.169692039E0
4.182257995E1,-5.356931686E-1,-6.515058041E0,1.178465188E-1
4.187257995E1,-2.029711723E0,-8.226823807E0,1.226321608E-1
4.192257995E1,-2.822035313E0,-7.716853142E0,-7.680960894E-1
4.197257995E1,1.240678549E0,-9.871589661E0,3.419343472E0
4.202257995E1,8.925827026E0,-1.362054443E1,3.708875179E0
4.207257995E1,-8.350951076E-1,-1.386491203E1,4.664209366E0
4.212257995E1,7.019943595E-1,-1.665165329E1,1.633400559E0
4.217257995E1,-2.752643347E0,-1.832752609E1,-8.790632248E0
4.222257995E1,-4.658227444E0,-1.626610947E1,2.796910524E0
4.227257995E1,-2.967997313E0,-9.701400757E0,-1.603490233E0
4.232257995E1,1.504188180E0,-5.143073082E0,-1.581954837E0
4.237257995E1,5.128716469E0,-9.439685345E-1,-6.750751019E0
4.242257995E1,7.139584422E-1,1.064806104E0,-1.785344839E0
4.247257995E1,-1.179661512E0,-1.133001566E0,3.835993767E0
4.252257995E1,-1.357627773E1,-2.951995468E1,1.499462318E1
4.257257995E1,-1.170090318E0,-3.718745470E0,4.973182678E0
4.262257995E1,-6.063711643E0,-1.453759384E1,-3.152543783E0
4.267257995E1,-3.047259569E0,-7.544270515E0,-5.448457241E0
4.272257995E1,3.802494287E0,-1.115952682E1,-7.524230957E0
4.277257995E1,3.610769272E0,-1.316321659E1,3.905385733E0
4.282257995E1,8.479565382E-1,-6.555736065E0,1.003789067E0
4.287257995E1,-2.453540564E0,-5.875576019E0,8.623134494E-1
4.292257995E1,-2.621038198E0,-8.801400185E0,-3.801597059E-1
4.297257995E1,-1.357926875E-1,-9.354440689E0,2.327020019E-1
4.302257995E1,4.063312054E0,-1.171735382E1,5.464010715E0
4.307257995E1,4.417748928E0,-1.488245964E1,2.447259426E0
4.312257995E1,-1.510170221E0,-1.191117191E1,6.723233223E0
4.317257995E1,-4.902295470E-1,-1.624696732E1,2.518445849E-1
4.322257995E1,-5.699703693E0,-1.797787476E1,-4.373481750E0
4.327257995E1,-3.164507866E0,-1.437248898E1,1.322034448E-1
4.332257995E1,-9.068797827E-1,-7.544270515E0,-1.687239051E0
4.337257995E1,3.381058455E0,-4.448855400E0,-3.346362352E0
4.342257995E1,2.590230405E-1,-1.504188180E0,-1.565205097E0
4.347257995E1,-1.424028635E0,-1.968096644E-1,-1.871785522E0
4.352257995E1,-3.861118555E0,-6.225227356E0,8.609675407E0
4.357257995E1,-5.783452511E0,-2.005843353E1,1.151844978E1
4.362257995E1,-3.238685369E0,-5.389832973E0,2.174477577E0
4.367257995E1,-4.981557846E0,-1.468116379E1,-1.840678811E0
4.372257995E1,8.168498278E-1,-6.814160824E0,-4.074079514E0
4.377257995E1,1.140179992E0,-1.292393398E1,1.704886109E-1
4.382257995E1,4.003491402E0,-9.459725380E0,-8.973085321E-3
4.387257995E1,-1.684846282E0,-6.591628075E0,2.169692039E0
4.392257995E1,-2.087139606E0,-7.877171993E0,1.118644595E0
4.397257995E1,-1.217946768E0,-8.506783485E0,-2.417648077E0
4.402257995E1,1.662114382E0,-1.099681473E1,3.170190811E0
4.407257995E1,5.241178989E0,-1.118584728E1,1.101894855E0
4.412257995E1,-5.045864582E-1,-1.307707500E1,3.237488985E0
4.417257995E1,1.922932148E0,-1.558385563E1,3.122334480E0
4.422257995E1,-1.567597985E0,-1.501406479E1,-3.059223652E0
4.427257995E1,-6.116353989E0,-1.634746552E1,-7.154539824E-1
4.432257995E1,-1.742274046E0,-1.144905853E1,-5.811567903E-1
4.437257995E1,6.230311990E-1,-6.940980434E0,3.020938635E-1
4.442257995E1,3.802494287E0,-4.506283283E0,-2.185245275E0
4.447257995E1,-5.715855360E-1,-1.439581871E0,-2.242672920E0
4.452257995E1,-1.806880236E0,-2.931207791E-2,2.183450609E-1
4.457257995E1,-6.456433773E0,-1.574896049E1,1.249771309E1
4.462257995E1,1.640578985E0,-8.451748848E0,8.616853714E0
4.467257995E1,-7.773084164E0,-1.667079544E1,-2.678465843E0
4.472257995E1,-3.466003656E0,-4.087240219E0,-6.013462543E0
4.477257995E1,4.172484577E-1,-8.880363464E0,-1.045214844E1
4.482257995E1,4.441677094E0,-1.667558098E1,5.550152302E0
4.487257995E1,2.997907639E0,-6.682555676E0,6.182455420E-1
4.492257995E1,-2.778964281E0,-7.515556812E0,-3.155534863E-1
4.497257995E1,-3.207578659E0,-8.650353432E0,1.116251707E0
4.502257995E1,8.527421951E-1,-8.578568459E0,-7.154539824E-1
4.507257995E1,2.899801970E0,-1.189681530E1,1.968395710E0
4.512257995E1,5.906682491E0,-1.221775246E1,2.971586704E0
4.517257995E1,-4.878367186E-1,-1.313450241E1,7.319345474E0
4.522257995E1,1.549651742E0,-1.602922058E1,-1.026520967E0
4.527257995E1,-4.962415218E0,-2.002972031E1,-9.022735596E0
4.532257995E1,-5.129912853E0,-1.530598927E1,2.682054996E0
4.537257995E1,-9.092726111E-1,-8.734400749E0,-2.566003084E0
4.542257995E1,3.977170229E0,-5.976373672E0,-1.773380637E0
4.547257995E1,2.212762833E0,-2.619841576E0,-2.185245275E0
4.552257995E1,-9.882357717E-1,1.275374413E0,-2.676073074E0
4.557257995E1,-2.750250578E0,-1.865504384E0,7.182954311E0
4.562257995E1,-9.128020287E0,-2.748964310E1,1.465005684E1
4.567257995E1,-2.623430967E0,-1.231107235E0,6.826124668E0
4.572257995E1,-6.959225655E0,-1.979970932E1,-2.316850424E0
4.577257995E1,6.876373887E-1,-6.086443424E0,-3.250649452E0
4.582257995E1,1.259821177E0,-1.188724422E1,-3.672085524E0
4.587257995E1,3.117548704E0,-1.157856941E1,9.029914737E-1
4.592257995E1,5.084748194E-2,-6.682555676E0,1.549651742E0
4.597257995E1,-1.972284079E0,-7.534699440E0,9.508479238E-1
4.602257995E1,-1.354636669E0,-8.755936623E0,-1.459920883E0
4.607257995E1,2.107478619E0,-9.313762665E0,3.381058455E0
4.612257995E1,6.507580280E0,-1.252881908E1,3.574877024E0
4.617257995E1,7.689933777E-1,-1.449213028E1,3.486342669E0
4.622257995E1,5.392823815E-1,-1.526531124E1,1.762612939E0
4.627257995E1,-3.451646566E0,-1.886621094E1,-8.132307053E0
4.632257995E1,-5.391029358E0,-1.683111382E1,3.105584621E0
4.637257995E1,2.805584669E-1,-9.474081993E0,-2.280958176E0
4.642257995E1,2.181656122E0,-4.391427994E0,-1.500598907E0
4.647257995E1,4.975575447E0,-2.255833626E0,-1.933998942E0
4.652257995E1,1.489532143E-1,2.099701911E-1,-3.315255880E0
4.657257995E1,-2.386242390E0,-2.140978098E0,4.355535507E0
4.662257995E1,-1.313360500E1,-3.143511009E1,1.792762566E1
4.667257995E1,-2.065604210E0,-3.268595695E0,6.969694138E0
4.672257995E1,-4.016652107E0,-1.458066463E1,-7.131508827E0
4.677257995E1,-3.595515013E0,-7.546663284E0,-5.565705299E0
4.682257995E1,2.212762833E0,-1.215553856E1,-5.257031441E0
4.687257995E1,4.826921463E0,-1.164796162E1,2.306082726E0
4.692257995E1,1.791326880E0,-5.698507309E0,2.330011129E0
4.697257995E1,-2.395813704E0,-6.919445038E0,1.305284739E0
4.702257995E1,-2.089532375E0,-9.299406052E0,-8.566305041E-1
4.707257995E1,1.456032634E0,-9.579366684E0,2.035394669E0
4.712257995E1,5.542973518E0,-1.319462204E1,2.883052111E0
4.717257995E1,1.070788145E0,-1.359900951E1,2.947658300E0
4.722257995E1,5.967101455E-1,-1.510499191E1,5.021039009E0
4.727257995E1,-3.207578659E0,-1.932323837E1,-1.008096218E1
4.732257995E1,-4.842773914E0,-1.643121338E1,4.365106583E0
4.737257995E1,-1.874178290E0,-1.060169983E1,-1.917249203E0
4.742257995E1,7.905287743E-1,-4.367499352E0,-7.489534616E-1
4.747257995E1,4.582853794E0,-1.647757530E0,-2.520539522E0
4.752257995E1,-3.634099364E-1,6.577271223E-1,-2.376671076E0
4.757257995E1,-1.852343798E0,-1.664507270E0,1.389033556E0
4.762257995E1,-1.346142197E1,-3.268715286E1,1.723071671E1
4.767257995E1,-2.072782516E0,-4.180560112E0,6.076872349E0
4.772257995E1,-5.208875656E0,-1.204756260E1,2.981158018E0
4.777257995E1,-3.231507063E0,-8.190931320E0,-8.982057571E0
4.782257995E1,3.957130313E-1,-9.557830811E0,-9.233603477E0
4.787257995E1,2.923730135E0,-1.520549107E1,3.309273720E0
4.792257995E1,3.701696634E0,-8.346464157E0,-4.854438901E-1
4.797257995E1,-1.653739572E0,-5.562116146E0,3.409772158E0
4.802257995E1,-2.465504646E0,-7.611568928E0,2.691925503E-2
4.807257995E1,4.220340848E-1,-9.502796173E0,-2.222333997E-1
4.812257995E1,3.290131092E0,-1.234696484E1,5.734399319E0
4.817257995E1,4.130311012E0,-1.457109356E1,1.686042666E0
4.822257995E1,8.431708813E-1,-1.601247025E1,3.716053486E0
4.827257995E1,-3.540181160E0,-1.560299778E1,2.265404940E0
4.832257995E1,-4.842773914E0,-1.601007652E1,-1.833201289E0
4.837257995E1,-2.280958176E0,-1.252164078E1,-1.083948612E0
4.842257995E1,1.465603858E-1,-6.387938976E0,-2.077568293E0
4.847257995E1,4.008276939E0,-3.160918713E0,-2.941676378E0
4.852257995E1,5.105685592E-1,-1.166501045E0,-2.441576481E0
4.857257995E1,-1.239482164E0,-1.345962733E-1,-1.421635747E0
4.862257995E1,-1.264995575E1,-1.308664608E1,2.039582253E1
4.867257995E1,-1.775773525E0,-1.323769283E1,8.549854279E0
4.872257995E1,-3.734298944E0,2.721835673E-1,-2.044068813E0
4.877257995E1,-5.261816978E0,-1.880878258E1,-1.034686375E1
4.882257995E1,9.798609018E-1,-5.844469070E0,-3.427718401E0
4.887257995E1,2.428116798E0,-1.420230007E1,7.498508096E-1
4.892257995E1,4.329214573E0,-8.720044136E0,-1.357029557E0
4.897257995E1,-2.039283037E0,-6.136693001E0,1.822433591E0
4.902257995E1,-3.648157120E0,-7.429415226E0,-6.314060688E-1
4.907257995E1,-1.501496136E-1,-8.921041489E0,3.116651475E-1
4.912257995E1,4.331607342E0,-1.119302654E1,5.135894775E0
4.917257995E1,4.412963390E0,-1.321137238E1,5.847460628E-1
4.922257995E1,1.915753603E0,-1.496620846E1,6.110371590E0
4.927257995E1,-1.645065546E-1,-1.622543144E1,6.302096844E-1
4.932257995E1,-3.980759621E0,-1.827249146E1,-7.763513088E0
4.937257995E1,-5.125126839E0,-1.646710587E1,-4.088735580E-1
4.942257995E1,7.477571070E-2,-8.844470978E0,-4.054936886E0
4.947257995E1,3.943670750E0,-4.752744198E0,-1.684846282E0
4.952257995E1,3.043371201E0,-1.068395257E0,-2.659323215E0
4.957257995E1,-1.375873014E-2,5.452644825E-1,-3.128615618E0
4.962257995E1,-3.042474031E0,-4.194917202E0,1.417597866E1
4.967257995E1,-8.649456024E0,-2.620649338E1,1.079791164E1
4.972257995E1,-7.308577538E0,-1.978266120E0,8.312965393E0
4.977257995E1,-1.584347725E0,-1.441077423E1,-1.174726391E1
4.982257995E1,-6.194419861E-1,-8.387142181E0,-1.747059584E0
4.987257995E1,2.006680965E0,-1.487767410E1,-1.747059584E0
4.992257995E1,5.068895817E0,-9.282656670E0,3.314059258E0
4.997257995E1,-1.505384564E0,-5.574080467E0,4.363910258E-1
5.002257995E1,-2.659323215E0,-7.182954311E0,2.021037817E0
5.007257995E1,-8.997012973E-1,-9.028717995E0,-3.439682484E0
5.012257995E1,1.767398596E0,-1.110927773E1,3.318845034E0
5.017257995E1,7.118348122E0,-1.224407387E1,3.424129248E0
5.022257995E1,2.733799815E-1,-1.520070457E1,3.665804386E0
5.027257995E1,4.722833633E-1,-1.623260880E1,3.179762125E0
5.032257995E1,-3.296113253E0,-1.913181305E1,-8.687741280E0
5.037257995E1,-4.277768612E0,-1.590210152E1,1.439282775E0
5.042257995E1,-6.577271223E-1,-1.035015392E1,-2.178066730E0
5.047257995E1,3.304488182E0,-4.314857483E0,-2.427219391E0
5.052257995E1,3.704089403E0,-3.017050266E0,-2.750250578E0
5.057257995E1,-7.414759398E-1,2.844468057E-1,-2.201995134E0
5.062257995E1,-2.017747641E0,-2.868695259E0,9.895218849E0
5.067257995E1,-7.500302792E0,-2.553859520E1,1.328046513E1
5.072257995E1,-4.593621254E0,-1.240678549E0,5.928217888E0
5.077257995E1,-5.436492920E0,-1.738415527E1,-3.075973511E0
5.082257995E1,-9.643075466E-1,-6.730412006E0,-2.656930447E0
5.087257995E1,2.562114954E0,-1.322333622E1,-1.280459166E0
5.092257995E1,5.483152866E0,-1.080269718E1,8.503493667E-1
5.097257995E1,-3.873381615E-1,-6.103193283E0,1.547258973E0
5.102257995E1,-2.362314224E0,-8.281858444E0,9.556335211E-1
5.107257995E1,-1.962712765E0,-8.830113411E0,-2.939283609E0
5.112257995E1,2.193620205E0,-1.015155029E1,2.598007202E0
5.117257995E1,7.731209755E0,-1.230150127E1,1.372283816E0
5.122257995E1,-1.546062589E0,-1.470987701E1,5.990431309E0
5.127257995E1,2.133799553E0,-1.657268906E1,3.804887056E0
5.132257995E1,-5.356931686E-1,-1.596910000E1,-8.098807335E0
5.137257995E1,-4.778167725E0,-1.662054634E1,3.302095175E0
5.142257995E1,-1.739881158E0,-1.086012459E1,-1.345065475E0
5.147257995E1,-5.596213937E-1,-5.612365723E0,-6.170491576E-1
5.152257995E1,3.874279022E0,-3.881457329E0,8.913264424E-2
5.157257995E1,-6.161518395E-2,-8.240283132E-1,-1.869392633E0
5.162257995E1,-1.282552958E0,-2.183450609E-1,1.798505306E0
5.167257995E1,-1.002831936E1,-2.120280075E1,1.610070610E1
5.172257995E1,-4.473979950E0,-9.074181557E0,8.612068176E0
5.177257995E1,-4.572085857E0,-1.361097336E1,-9.791430473E0
5.182257995E1,-3.624228954E0,-5.739185333E0,-2.328814745E0
5.187257995E1,5.009075165E0,-1.245703506E1,-7.964509964E0
5.192257995E1,5.609972477E0,-1.190638638E1,4.743172646E0
5.197257995E1,1.372283816E0,-6.885945320E0,1.839183331E0
5.202257995E1,-1.239482164E0,-6.435795784E0,7.929216027E-1
5.207257995E1,-1.232303619E0,-8.305786133E0,-2.844468057E-1
5.212257995E1,-9.044869542E-1,-8.372785568E0,-8.422735929E-1
5.217257995E1,3.158226728E0,-1.194227886E1,4.805386066E0
5.222257995E1,3.038585663E0,-1.656072617E1,1.980359793E0
5.227257995E1,2.203191519E0,-1.481276894E1,4.156631947E0
5.232257995E1,-2.685644388E0,-1.508345699E1,-1.091127157E0
5.237257995E1,-5.651846886E0,-1.776251984E1,-8.470591903E-1
5.242257995E1,-1.522134304E0,-1.211246777E1,-1.028913736E0
5.247257995E1,4.435695112E-1,-5.542973518E0,-1.536491275E0
5.252257995E1,4.319643021E0,-3.385843992E0,-2.956033230E0
5.257257995E1,-9.403793216E-1,3.107678294E-1,-1.656132340E0
5.262257995E1,-1.802094579E0,-6.041877344E-2,1.403390527E0
5.267257995E1,-8.448159218E0,-1.689811325E1,1.575135326E1
5.272257995E1,-3.727120399E0,-9.050253868E0,8.825029373E0
5.277257995E1,-4.648656368E0,-1.460937881E1,-6.235994816E0
5.282257995E1,-3.645764351E0,-3.335594654E0,-2.297708035E0
5.287257995E1,3.548556089E0,-1.385055447E1,-7.172186852E0
5.292257995E1,6.050550938E0,-1.168624687E1,4.491926193E0
5.297257995E1,1.106680512E0,-6.414260387E0,1.238285661E0
5.302257995E1,-1.962712765E0,-6.732804775E0,1.733899117E0
5.307257995E1,-1.914856315E0,-8.863613129E0,1.333998680E0
5.312257995E1,-6.840481758E-1,-7.963313580E0,-4.809274197E0
5.317257995E1,6.062814593E-1,-1.239960670E1,3.131905794E0
5.322257995E1,4.946861744E0,-1.319701481E1,2.375474691E0
5.327257995E1,1.228714466E0,-1.498295784E1,5.073681355E0
5.332257995E1,2.279163599E-1,-1.484626770E1,1.484746456E0
5.337257995E1,-3.011367321E0,-1.799701691E1,-6.137889385E0
5.342257995E1,-2.666501760E0,-1.491835213E1,-5.356931686E-1
5.347257995E1,-6.290132403E-1,-7.731209755E0,-3.157329559E0
5.352257995E1,2.140978098E0,-3.881457329E0,-2.211566210E0
5.357257995E1,2.370688915E0,-2.353939295E0,-1.692024708E0
5.362257995E1,-5.787639618E-1,1.794616925E-3,-1.874178290E0
5.367257995E1,-2.328814745E0,-4.029812336E0,8.866005898E0
5.372257995E1,-6.533003807E0,-2.783211708E1,1.424776363E1
5.377257995E1,-2.845963478E0,-3.160918713E0,8.854042053E0
5.382257995E1,-4.689633369E0,-1.401565933E1,-9.259924889E0
5.387257995E1,-4.598406792E0,-7.972885132E0,2.990729094E0
5.392257995E1,3.012264490E0,-1.188485050E1,-3.693620920E0
5.397257995E1,6.529115677E0,-1.086491013E1,1.932503343E0
5.402257995E1,-5.380859971E-1,-5.839683533E0,2.258226395E0
5.407257995E1,-2.434098721E0,-7.664210796E0,1.066002488E0
5.412257995E1,-2.534896374E0,-8.909076691E0,-1.352243900E0
5.417257995E1,5.656034350E-1,-9.126823425E0,5.703890920E-1
5.422257995E1,6.265905380E0,-1.291914845E1,4.477569580E0
5.427257995E1,6.996015310E-1,-1.656790352E1,2.823231697E0
5.432257995E1,2.133799553E0,-1.680240059E1,1.515853167E0
5.437257995E1,-4.493122578E0,-1.789173317E1,-6.686144829E0
5.442257995E1,-4.684847832E0,-1.739372635E1,1.305284739E0
5.447257995E1,4.722833633E-1,-9.936196327E0,-3.193221807E0
5.452257995E1,9.101698995E-1,-4.506283283E0,-1.455135226E0
5.457257995E1,4.412963390E0,2.338984162E-1,-1.402493119E0
5.462257995E1,1.489532143E-1,-6.684948206E-1,-1.608275890E0
5.467257995E1,-3.219542980E0,-2.167299032E0,2.037787676E0
5.472257995E1,-9.305388451E0,-1.696989822E1,1.522463322E1
5.477257995E1,-2.328814745E0,-9.122037888E0,9.502796173E0
5.482257995E1,-5.944070339E0,-8.269894600E0,-6.619145870E0
5.487257995E1,-4.627120972E0,-9.766006470E0,-7.493124008E0
5.492257995E1,1.719542146E0,-1.080269718E1,-8.469695091E0
5.497257995E1,4.649852753E0,-1.586381626E1,3.299702406E0
5.502257995E1,3.184846878E0,-7.752745152E0,2.638086975E-1
5.507257995E1,-3.940081596E0,-6.754340172E0,2.054537296E0
5.512257995E1,-2.719143867E0,-6.084050655E0,-3.529413417E-2
5.517257995E1,6.278168559E-1,-6.610770702E0,-2.235494614E0
5.522257995E1,2.825624466E0,-1.529163265E1,2.609971285E0
5.527257995E1,5.245964527E0,-1.589731503E1,3.639483213E0
5.532257995E1,2.511865616E0,-1.274447250E1,4.843671322E0
5.537257995E1,-1.493420482E0,-1.499970818E1,-1.142572835E-1
5.542257995E1,-6.394220352E0,-1.941925049E1,-5.800501347E0
5.547257995E1,-4.725525856E0,-1.238764286E1,-1.234696507E0
5.552257995E1,-1.645065546E-1,-7.228417873E0,-2.489432812E0
5.557257995E1,5.162215710E0,-4.772185802E0,-3.937688828E0
5.562257995E1,6.684948206E-1,-1.932503343E0,-1.754238129E0
5.567257995E1,-1.028913736E0,-9.942178130E-1,-1.799701691E0
5.572257995E1,-5.436492920E0,-7.702496052E0,1.437697601E1
5.577257995E1,-3.116651535E0,-1.522702599E1,1.003190899E1
5.582257995E1,-2.458326101E0,-3.048156977E0,3.440878868E0
5.587257995E1,-6.494719028E0,-1.761865234E1,-3.221935749E0
5.592257995E1,5.344967842E-1,-9.838089943E0,-4.955236435E0
5.597257995E1,1.666900039E0,-1.342672634E1,-1.791625917E-1
5.602257995E1,4.343571186E0,-9.395118713E0,-2.509472668E-1
5.607257995E1,-3.921238184E-1,-7.510771275E0,1.937289000E0
5.612257995E1,-3.061616659E0,-7.170990467E0,1.944467545E0
5.617257995E1,-2.811566554E-2,-6.637091637E0,-5.907281041E-1
5.622257995E1,4.554139614E0,-1.295743370E1,1.302891970E0
5.627257995E1,5.911468506E0,-1.377398491E1,2.124228239E0
5.632257995E1,-2.089532375E0,-1.583749485E1,8.674281120E0
5.637257995E1,1.202393398E-1,-1.595474339E1,4.507479668E-1
5.642257995E1,-2.530110836E0,-2.032642937E1,-8.596813202E0
5.647257995E1,-3.276970625E0,-1.396780300E1,5.727819204E-1
5.652257995E1,-2.606681108E0,-7.968099594E0,-1.682453394E0
5.657257995E1,4.001098633E0,-5.138287544E0,-1.567597985E0
5.662257995E1,2.454437733E0,-3.996312857E0,-1.021735311E0
5.667257995E1,-1.304088354E0,-1.094716311E0,-3.485146284E0
5.672257995E1,-3.205185890E0,-2.801696301E0,7.381558895E0
5.677257995E1,-1.079192924E1,-2.588555527E1,1.524856186E1
5.682257995E1,-3.351148129E0,-4.719244480E0,6.361618042E0
5.687257995E1,-4.792524815E0,-1.389841080E1,-5.603990555E0
5.692257995E1,-1.217946768E0,-9.498010635E0,-3.406183004E0
5.697257995E1,3.172583818E0,-1.423101330E1,-1.371386528E0
5.702257995E1,5.466403484E0,-1.100160027E1,1.843968987E0
5.707257995E1,-3.275175989E-1,-5.207679272E0,6.804589629E-1
5.712257995E1,-3.109472990E0,-7.168597698E0,1.446461320E0
5.717257995E1,-2.063211441E0,-8.866005898E0,-1.170090318E0
5.722257995E1,8.766704202E-1,-1.066869926E1,8.647062778E-1
5.727257995E1,7.733603001E0,-1.301725388E1,4.139882088E0
5.732257995E1,2.757728100E-1,-1.540648746E1,3.807279825E0
5.737257995E1,2.267797709E0,-1.556949902E1,2.430509567E0
5.742257995E1,-2.740679264E0,-1.887099648E1,-7.133901596E0
5.747257995E1,-5.079663277E0,-1.547857189E1,1.245464206E0
5.752257995E1,-7.944171429E-1,-9.399904251E0,-3.610171080E-1
5.757257995E1,2.499901533E0,-4.901398182E0,-3.768695518E-2
5.762257995E1,4.032205105E0,-1.595115423E0,-1.933998942E0
5.767257995E1,-3.131606579E-1,-4.387838542E-1,-2.446362019E0
5.772257995E1,-1.689631939E0,-1.908575177E0,4.920540810E0
5.777257995E1,-1.212802124E1,-2.401586342E1,1.342433357E1
5.782257995E1,-3.703192234E0,-6.031408787E0,7.618448257E0
5.787257995E1,-5.675775528E0,-1.432223988E1,-8.527122498E0
5.792257995E1,-2.685644388E0,-5.923731327E0,-4.083950043E0
5.797257995E1,5.013860703E0,-1.370190048E1,-7.083652496E0
5.802257995E1,5.516652584E0,-1.251446247E1,3.186940670E0
5.807257995E1,4.962115884E-1,-6.012266159E0,6.134598851E-1
5.812257995E1,-2.319243431E0,-6.124728680E0,1.068395257E0
5.817257995E1,-2.843570709E0,-8.671888351E0,-9.762716293E-1
5.822257995E1,-1.959123611E-1,-9.435796738E0,2.063809484E-1
5.827257995E1,4.781457901E0,-1.228235817E1,4.491926193E0
5.832257995E1,4.381856441E0,-1.534906006E1,1.228714466E0
5.837257995E1,-7.247261405E-1,-1.364447308E1,5.870790482E0
5.842257995E1,-2.506182671E0,-1.701296806E1,-4.737489700E0
5.847257995E1,-5.398207664E0,-1.704646873E1,1.013360381E0
5.852257995E1,-3.389433384E0,-1.187527943E1,-9.523434043E-1
5.857257995E1,2.470589429E-1,-5.724828243E0,-9.523434043E-1
5.862257995E1,4.532604218E0,-3.060121059E0,-4.974379063E0
5.867257995E1,3.765704632E-1,-9.487541914E-1,-1.900499344E0
5.872257995E1,-6.768696904E-1,-7.163512707E-1,1.298106313E-1
5.877257995E1,-1.239123249E1,-1.929452515E1,1.830090523E1
5.882257995E1,-2.024926186E0,-9.952945709E0,8.094919205E0
5.887257995E1,-5.834000587E0,-1.380748367E1,-2.151745796E0
5.892257995E1,-3.765405416E0,-5.188536644E0,-8.852845192E0
5.897257995E1,2.768196583E0,-1.137248802E1,-1.139791203E1
5.902257995E1,6.249155521E0,-1.412333679E1,4.735994339E0
5.907257995E1,1.575972795E0,-6.661019802E0,9.894321561E-1
5.912257995E1,-2.530110836E0,-5.885147095E0,6.589235067E-1
5.917257995E1,-3.042474031E0,-8.739186287E0,-4.782654345E-1
5.922257995E1,8.766704202E-1,-8.248358727E0,5.895316601E-1
5.927257995E1,5.028217793E0,-1.204756260E1,2.808874607E0
5.932257995E1,4.276273251E0,-1.418554974E1,2.277369022E0
5.937257995E1,1.135394335E0,-1.630200195E1,4.276273251E0
5.942257995E1,-3.461217880E0,-1.559103394E1,-4.375874400E-1
5.947257995E1,-6.789036274E0,-1.619432449E1,-1.012163997E0
5.952257995E1,-3.030509949E0,-1.380030537E1,-4.591228366E-1
5.957257995E1,1.748256087E0,-7.211668491E0,-1.483849168E0
5.962257995E1,4.202095509E0,-3.007478952E0,-3.260220766E0
5.967257995E1,9.029914737E-1,-6.948158741E-1,-1.400100350E0
5.972257995E1,-7.462615371E-1,-1.185643673E0,-1.357029557E0
5.977257995E1,-4.416552544E0,-9.438189507E0,1.084098244E1
5.982257995E1,-2.735893488E0,-1.742722702E1,1.010608673E1
5.987257995E1,-3.710370541E0,-3.306880951E0,4.118346691E0
5.992257995E1,-5.690132141E0,-1.415683651E1,-6.178566933E0
5.997257995E1,-8.039883971E-1,-1.021854877E1,-3.334398270E0
6.002257995E1,2.552543640E0,-1.363729477E1,-3.705884218E-1
6.007257995E1,3.184846878E0,-9.419047356E0,2.260619164E0
6.012257995E1,-8.829515576E-1,-5.645864964E0,1.662114382E0
6.017257995E1,-9.619147182E-1,-6.720840454E0,1.365105271E0
6.022257995E1,-1.388136268E0,-9.533903122E0,-1.737488389E0
6.027257995E1,9.152546525E-2,-9.052646637E0,-1.359422326E0
6.032257995E1,2.162513494E0,-1.157856941E1,2.792124987E0
6.037257995E1,3.177668571E0,-1.483191109E1,1.769791484E0
6.042257995E1,3.766602039E0,-1.534666729E1,4.039383888E0
6.047257995E1,-3.212364435E0,-1.475055504E1,-4.763810635E0
6.052257995E1,-2.022533417E0,-1.599571991E1,-3.114258766E0
6.057257995E1,1.511366606E0,-1.281386471E1,6.637091637E-1
6.062257995E1,-1.405783296E-1,-5.669793129E0,-1.675274968E0
6.067257995E1,2.823231697E0,-4.166203499E0,-1.696810365E0
6.072257995E1,-2.892324328E-1,-3.958027840E0,-7.537391186E-1
6.077257995E1,8.982058167E-1,-3.709174156E0,-2.093719877E-2
6.082257995E1,2.685943544E-1,-1.049162960E1,1.421187115E1
6.087257995E1,5.823532343E-1,-1.110688496E1,8.882756233E0
6.092257995E1,1.704886109E-1,-1.162881851E1,3.019443035E0
6.097257995E1,-2.439183474E0,-1.057777119E1,-1.720738530E0
6.102257995E1,1.231107235E0,-1.183220863E1,-6.791429043E0
6.107257995E1,3.768994808E0,-1.149212933E1,2.374876440E-1
6.112257995E1,4.276273251E0,-6.926623344E0,3.409772158E0
6.117257995E1,-1.118644550E-1,-6.670591354E0,-2.811566554E-2
6.122257995E1,-1.426421404E0,-8.032705307E0,1.372283816E0
6.127257995E1,1.240678549E0,-8.942576408E0,-2.027318954E0
6.132257995E1,2.938086987E0,-9.936196327E0,2.320439816E0
6.137257995E1,7.522735119E0,-1.195663548E1,2.080858469E0
6.142257995E1,3.196810961E0,-1.544028664E1,9.107681274E0
6.147257995E1,3.788137436E0,-1.548335743E1,2.167299032E0
6.152257995E1,-1.310070455E-1,-1.945035744E1,-9.152247429E0
6.157257995E1,-8.853443861E-1,-1.643599892E1,2.993122101E0
6.162257995E1,1.544866085E0,-8.844470978E0,-3.676871061E0
6.167257995E1,2.411366940E0,-4.345963955E0,-3.825525343E-1
6.172257995E1,3.127120018E0,-2.265404940E0,-1.684846282E0
6.177257995E1,-1.605883121E0,-7.043871880E-1,-2.546860695E0
6.182257995E1,-1.960319996E0,-2.569592476E0,4.580460548E0
6.187257995E1,-4.349553585E0,-2.578744888E1,1.712543106E1
6.192257995E1,-1.119840980E0,-3.953242064E0,6.565008163E0
6.197257995E1,-6.221638203E0,-1.457827187E1,-6.228816509E0
6.202257995E1,-2.008176327E0,-9.734899521E0,-3.985545158E0
6.207257995E1,4.475176334E0,-8.145467758E0,-7.880761147E0
6.212257995E1,3.230310678E0,-1.265115261E1,3.450450182E0
6.217257995E1,3.742673635E0,-6.529414654E0,9.580263495E-1
6.222257995E1,-1.237089276E0,-7.003193855E0,8.766704202E-1
6.227257995E1,-2.333600283E0,-7.834101200E0,-1.576271951E-1
6.232257995E1,7.594220638E-1,-9.201001167E0,8.982058167E-1
6.237257995E1,4.724030018E0,-1.141555882E1,2.789732218E0
6.242257995E1,5.901896954E0,-1.393669605E1,1.109073281E0
6.247257995E1,2.636591434E0,-1.432463264E1,6.196513176E0
6.252257995E1,-3.634099364E-1,-1.529402542E1,2.397010088E0
6.257257995E1,-2.977568626E0,-2.008954048E1,-7.150651455E0
6.262257995E1,-1.438385487E0,-1.512652779E1,8.072785139E-1
6.267257995E1,-1.124626637E0,-7.422236919E0,-2.776571512E0
6.272257995E1,3.833600998E0,-4.714458942E0,-3.456432343E0
6.277257995E1,1.467996716E0,-2.059622049E0,-2.276172638E0
6.282257995E1,-1.328315616E0,-4.914259613E-1,-3.008974552E0
6.287257995E1,-4.711168766E0,-4.803292274E0,1.038843918E1
6.292257995E1,-4.802095890E0,-2.184437752E1,1.331635666E1
6.297257995E1,-3.291327477E0,-5.892325878E0,9.277571678E0
6.302257995E1,-2.755036116E0,-1.239721394E1,-6.932904720E0
6.307257995E1,-2.513360977E0,-6.366403580E0,-6.925725937E0
6.312257995E1,3.060121059E0,-1.483908939E1,-6.377470493E0
6.317257995E1,4.319643021E0,-1.145384407E1,2.626721144E0
6.322257995E1,2.001895189E0,-6.964908600E0,1.944168359E-1
6.327257995E1,-8.518448472E-1,-6.787839413E0,9.699904919E-1
6.332257995E1,-1.574776411E0,-8.133204460E0,-1.438385487E0
6.337257995E1,8.982058167E-1,-8.164609909E0,1.142572761E0
6.342257995E1,5.025825024E0,-1.169103241E1,2.452044964E0
6.347257995E1,6.579664230E0,-1.524856186E1,1.626222134E0
6.352257995E1,1.058824062E0,-1.395344639E1,7.513164043E0
6.357257995E1,-3.044866800E0,-1.565324783E1,2.037787676E0
6.362257995E1,-2.963211775E0,-1.967767525E1,-6.097211361E0
6.367257995E1,-4.423730969E-1,-1.492553043E1,-5.443671346E-2
6.372257995E1,-1.479063511E0,-7.671389580E0,-2.364706993E0
6.377257995E1,3.984348774E0,-4.111168385E0,-3.243471146E0
6.382257995E1,1.482353687E0,-1.633400559E0,-2.312064886E0
6.387257995E1,-1.929213285E0,-5.584250093E-1,-2.273779631E0
6.392257995E1,-4.909772873E0,-6.275476456E0,1.346022511E1
6.397257995E1,-4.579264164E0,-1.935943031E1,1.165274715E1
6.402257995E1,-4.351946354E0,-4.563711166E0,6.029015541E0
6.407257995E1,-3.657728434E0,-1.624218178E1,-6.394220352E0
6.412257995E1,-4.064807594E-1,-5.868397713E0,-2.869891644E0
6.417257995E1,2.004287958E0,-1.264875984E1,-4.086342812E0
6.422257995E1,4.192524433E0,-1.228475189E1,4.531407952E-1
6.427257995E1,1.310070395E0,-6.572485447E0,2.016252279E0
6.432257995E1,-1.028913736E0,-7.393522739E0,1.640578985E0
6.437257995E1,-1.993819475E0,-8.753543854E0,-7.848458290E-1
6.442257995E1,1.542473316E0,-9.035896301E0,2.102692842E0
6.447257995E1,6.184549332E0,-1.129352474E1,4.441677094E0
6.452257995E1,2.928515911E0,-1.532034588E1,1.786541224E0
6.457257995E1,-8.781659007E-1,-1.341236877E1,5.739185333E0
6.462257995E1,-2.549253464E0,-1.615604019E1,-5.699703693E0
6.467257995E1,-2.005783558E0,-1.690050697E1,1.417747378E0
6.472257995E1,1.525723577E0,-1.272533035E1,-7.776673436E-1
6.477257995E1,-2.940180898E-1,-6.222834587E0,2.997010350E-1
6.482257995E1,3.912564039E0,-3.570091486E0,-2.908176899E0
6.487257995E1,-7.486543655E-1,-6.493522525E-1,-1.830808401E0
6.492257995E1,-1.967498422E0,-6.637091637E-1,-4.854438901E-1
6.497257995E1,-8.438588142E0,-1.544267941E1,1.073091221E1
6.502257995E1,-1.045663476E0,-1.153789139E1,1.012522888E1
6.507257995E1,-1.277767301E0,-2.825624466E0,3.212364316E-1
6.512257995E1,-6.020640850E0,-1.788694763E1,-6.262315750E0
6.517257995E1,1.824527234E-1,-6.036194324E0,-3.274577856E0
6.522257995E1,2.406581402E0,-1.363011551E1,7.761718631E-1
6.527257995E1,5.219643593E0,-9.797113419E0,-1.469492197E0
6.532257995E1,-2.288136721E0,-6.706483841E0,1.654935956E0
6.537257995E1,-3.092723370E0,-8.020741463E0,8.455637097E-1
6.542257995E1,7.477571070E-2,-7.877171993E0,-1.653739572E0
6.547257995E1,4.334000111E0,-1.089601707E1,3.881457329E0
6.552257995E1,6.076872349E0,-1.346261883E1,2.514258385E0
6.557257995E1,6.062814593E-1,-1.492074490E1,6.864409924E0
6.562257995E1,-1.359422326E0,-1.777209282E1,1.137787223E0
6.567257995E1,-3.779762506E0,-1.807358742E1,-6.655037880E0
6.572257995E1,-1.979462504E0,-1.577049541E1,-1.094716340E-1
6.577257995E1,-1.443171144E0,-8.284251213E0,-2.087139606E0
6.582257995E1,3.256631613E0,-3.326023579E0,-3.317648649E0
6.587257995E1,1.583151340E0,-1.216750264E0,2.749054193E0
6.592257995E1,-8.829515576E-1,-3.311068416E-1,-2.146960020E0
6.597257995E1,-2.577967405E0,-6.040979862E0,1.517438412E1
6.602257995E1,-3.715156317E0,-2.025943184E1,1.113559818E1
6.607257995E1,-3.865904093E0,-4.513461590E0,9.505188942E0
6.612257995E1,-5.055735111E0,-1.305793190E1,-7.816154957E0
6.617257995E1,7.498508096E-1,-9.035896301E0,-4.971986294E0
6.622257995E1,3.419343472E0,-1.556471348E1,8.288139701E-1
6.627257995E1,2.816053152E0,-9.356833458E0,2.231905222E0
6.632257995E1,-2.115853310E0,-5.997909069E0,1.391426325E0
6.637257995E1,-1.584347725E0,-7.130312443E0,2.621935368E0
6.642257995E1,5.129613280E-1,-9.141180992E0,-2.932105064E0
6.647257995E1,1.774577141E0,-9.696614265E0,1.686042666E0
6.652257995E1,3.019443035E0,-1.126720333E1,4.637888432E0
6.657257995E1,1.456032634E0,-1.527248955E1,2.581257343E0
6.662257995E1,7.713862062E-1,-1.277079391E1,6.649055958E0
6.667257995E1,9.894321561E-1,-1.740090561E1,-7.413861752E0
6.672257995E1,-4.387838364E0,-1.755404663E1,8.766704202E-1
6.677257995E1,-1.234696507E0,-1.199252796E1,-1.190429255E-1
6.682257995E1,-5.443671346E-2,-6.337689877E0,-1.002592683E0
6.687257995E1,3.637090445E0,-3.828815222E0,-2.295315027E0
6.692257995E1,9.631111473E-2,-4.986044168E-1,-2.453540564E0
6.697257995E1,-2.206780672E0,-1.075573802E0,-6.768696904E-1
6.702257995E1,-8.242376328E0,-1.345543957E1,1.292632675E1
6.707257995E1,-2.891427040E0,-1.281386471E1,8.346464157E0
6.712257995E1,-3.813261986E0,-6.644270420E0,9.088538170E0
6.717257995E1,-2.554039001E0,-1.036451149E1,-1.071057320E1
6.722257995E1,3.667000830E-1,-9.488439560E0,-6.319743633E0
6.727257995E1,2.514258385E0,-1.378834152E1,3.086441994E0
6.732257995E1,3.929313898E0,-8.844470978E0,5.563312769E-2
6.737257995E1,-1.826022744E0,-6.876374245E0,2.076072693E0
6.742257995E1,-1.718345761E0,-7.386344433E0,1.149751306E0
6.747257995E1,2.015953064E-1,-8.394320488E0,-2.769393206E0
6.752257995E1,3.223132133E0,-1.068305588E1,3.349951744E0
6.757257995E1,5.796612740E0,-1.273729420E1,2.962015390E0
6.762257995E1,1.101894855E0,-1.640010643E1,5.140680313E0
6.767257995E1,-6.879365444E-2,-1.726930046E1,1.068395257E0
6.772257995E1,-5.417350292E0,-1.885663795E1,-8.450551987E0
6.777257995E1,-3.973581076E0,-1.481037617E1,8.766704202E-1
6.782257995E1,-8.315058798E-2,-8.494819641E0,-1.991426587E0
6.787257995E1,3.672982693E0,-4.360321045E0,-2.180459738E0
6.792257995E1,1.927717686E0,-2.567199707E0,-1.907677889E0
6.797257995E1,-5.715855360E-1,7.127620578E-1,-1.687239051E0
6.802257995E1,-1.194018483E0,-3.057728291E0,9.150752068E0
6.807257995E1,-8.507980347E0,-2.779861641E1,1.267238903E1
6.812257995E1,-3.760619879E0,-5.679962635E-1,7.838887215E0
6.817257995E1,-7.923832417E0,-2.051815414E1,-9.906286001E-1
6.822257995E1,2.550150633E0,-6.460022926E0,-4.847559452E0
6.827257995E1,3.337987661E0,-1.307707500E1,-1.474277854E0
6.832257995E1,4.041776657E0,-1.157378387E1,1.202393413E0
6.837257995E1,-1.524527073E0,-6.538986206E0,1.542473316E0
6.842257995E1,-3.018545866E0,-6.914659023E0,2.284547329E0
6.847257995E1,-1.153340459E0,-8.674281120E0,-3.296113253E0
6.852257995E1,3.433700562E0,-1.003430176E1,3.005086184E0
6.857257995E1,6.112764359E0,-1.109252739E1,2.325225353E0
6.862257995E1,1.537388563E-1,-1.437966728E1,3.689732552E0
6.867257995E1,1.997109652E0,-1.516002655E1,2.485544443E0
6.872257995E1,-3.710370541E0,-1.768595123E1,-7.442575932E0
6.877257995E1,-4.735096931E0,-1.810708809E1,2.909373283E0
6.882257995E1,1.631007791E0,-9.859625816E0,-1.847857237E0
6.887257995E1,1.434497118E0,-3.993920088E0,-3.442673683E-1
6.892257995E1,4.168596268E0,-2.854338408E0,-2.644966364E0
6.897257995E1,-2.413759828E-1,-4.172484577E-1,-1.989033818E0
6.902257995E1,-1.258624673E0,-1.006181955E0,1.726720691E0
6.907257995E1,-1.284377480E1,-2.590709114E1,1.667288971E1
6.912257995E1,-1.505384564E0,-5.877968788E0,6.735197544E0
6.917257995E1,-3.820440531E0,-1.213639641E1,2.107478619E0
6.922257995E1,-3.569194078E0,-1.020419216E1,-6.904190540E0
6.927257995E1,1.542473316E0,-8.186145782E0,-8.938986778E0
6.932257995E1,3.672982693E0,-1.539213085E1,3.694518089E0
6.937257995E1,3.440878868E0,-7.953742504E0,-4.160520434E-1
6.942257995E1,-3.741477251E0,-6.198905945E0,1.829612017E0
6.947257995E1,-2.836392164E0,-8.164609909E0,9.604191780E-1
6.952257995E1,1.274178028E0,-8.099704742E0,-3.178864956E0
6.957257995E1,4.082454681E0,-1.044138050E1,4.111168385E0
6.962257995E1,3.615555048E0,-1.359183121E1,8.407780528E-1
6.967257995E1,1.556830287E0,-1.579442406E1,6.373582363E0
6.972257995E1,-3.562314808E-1,-1.582553101E1,2.040180445E0
6.977257995E1,-3.396611691E0,-1.857398605E1,-7.109973431E0
6.982257995E1,-2.499004126E0,-1.619432449E1,4.531407952E-1
6.987257995E1,4.938187599E-1,-8.640781403E0,-2.209173441E0
6.992257995E1,3.189632654E0,-4.111168385E0,-1.780559182E0
6.997257995E1,2.720340252E0,-1.468295813E0,-2.230708838E0
7.002257995E1,-1.959123611E-1,-1.896311939E-1,-2.252244234E0
7.007257995E1,-1.960319996E0,-4.750350952E0,8.810671806E0
7.012257995E1,-6.283851147E0,-2.811686325E1,1.339801216E1
7.017257995E1,-3.590729475E0,-2.129014015E0,5.566901684E0
7.022257995E1,-4.976771832E0,-1.931127548E1,-1.168505001E1
7.027257995E1,-3.042474031E0,-4.111168385E0,-4.430909157E0
7.032257995E1,1.958824396E0,-1.398933887E1,-6.140282154E0
7.037257995E1,5.801398277E0,-1.201167011E1,1.226321578E0
7.042257995E1,1.348355532E0,-6.342475414E0,2.236690998E0
7.047257995E1,-2.027318954E0,-6.854838848E0,1.681257010E0
7.052257995E1,-1.265803218E0,-8.513961792E0,-2.455933332E0
7.057257995E1,1.762612939E0,-8.837292671E0,1.671685696E0
7.062257995E1,4.908576488E0,-1.124088287E1,4.197309971E0
7.067257995E1,3.012264490E0,-1.484387493E1,1.068395257E0
7.072257995E1,-1.333998591E-1,-1.180349541E1,5.353641510E0
7.077257995E1,-4.247260094E-2,-1.662293816E1,7.477571070E-2
7.082257995E1,-4.581656933E0,-1.798266029E1,-4.845166683E0
7.087257995E1,-3.837190151E0,-1.461177158E1,-8.063812256E-1
7.092257995E1,-7.824530005E-1,-7.690532207E0,-1.290030479E0
7.097257995E1,5.126323223E0,-3.998705626E0,-3.329612732E0
7.102257995E1,1.087537885E0,-1.293320656E0,-2.099103689E0
7.107257995E1,-1.220339537E0,-4.366901144E-2,-2.350350142E0
7.112257995E1,-4.682454586E0,-9.067003250E0,1.378086376E1
7.117257995E1,-5.364708424E0,-1.765933037E1,9.935896873E0
7.122257995E1,-5.941677570E0,-8.054241180E0,7.867600918E0
7.127257995E1,-2.757428885E0,-1.513609886E1,-8.402695656E0
7.132257995E1,-2.748754919E-1,-7.362416267E0,-4.277768612E0
7.137257995E1,1.484746456E0,-1.462612820E1,-3.729812205E-1
7.142257995E1,5.928217888E0,-1.072134113E1,5.991029739E-1
7.147257995E1,7.139584422E-1,-5.926124573E0,1.372283816E0
7.152257995E1,-2.118246317E0,-7.491628647E0,1.867897153E0
7.157257995E1,-1.316351533E0,-7.824530125E0,-2.814856768E0
7.162257995E1,2.124228239E0,-9.933803558E0,2.926122904E0
7.167257995E1,5.959324837E0,-1.095613670E1,2.665305376E0
7.172257995E1,2.351546526E0,-1.499013615E1,3.122334480E0
7.177257995E1,1.554437399E0,-1.472184086E1,3.419343472E0
7.182257995E1,-3.087937593E0,-1.750618935E1,-8.228019714E0
7.187257995E1,-5.912963867E0,-1.757318878E1,2.804089069E0
7.192257995E1,-8.554340899E-2,-1.147537899E1,-2.178066730E0
7.197257995E1,1.808076620E0,-4.582853794E0,-1.651346684E0
7.202257995E1,4.534996986E0,-2.689233541E0,-2.767000198E0
7.207257995E1,-4.663013220E-1,1.046859920E-1,-2.714358091E0
7.212257995E1,-1.160519004E0,-1.075573802E0,4.196412563E-1
7.217257995E1,-1.421785259E1,-2.331686020E1,1.386461258E1
7.222257995E1,-1.071984529E0,-8.952147484E0,6.565008163E0
7.227257995E1,-4.507479668E0,-1.375962734E1,7.108478069E0
7.232257995E1,-2.381456852E0,-5.162215710E0,-1.042343426E1
7.237257995E1,4.755136967E0,-1.224407387E1,-1.162044430E1
7.242257995E1,3.879064560E0,-1.369472218E1,5.298606873E0
7.247257995E1,1.657328725E0,-6.433403015E0,3.427718580E-1
7.252257995E1,-2.573181629E0,-5.662614822E0,2.471187592E0
7.257257995E1,-2.383849621E0,-8.111668587E0,-7.609176040E-1
7.262257995E1,1.422533035E0,-8.102097511E0,7.163512707E-1
7.267257995E1,5.954539299E0,-1.221296692E1,3.421736479E0
7.272257995E1,3.412165165E0,-1.306989670E1,7.331010103E-1
7.277257995E1,3.212364316E-1,-1.413530064E1,5.937789440E0
7.282257995E1,-1.069591761E0,-1.643360710E1,1.690828323E0
7.287257995E1,-3.308077335E0,-2.004886246E1,-7.842476368E0
7.292257995E1,-2.479861498E0,-1.656311798E1,4.100699723E-1
7.297257995E1,-3.011965454E-1,-8.573782921E0,-3.772583961E0
7.302257995E1,3.689732552E0,-3.754637718E0,-1.725524187E0
7.307257995E1,3.038585663E0,-1.192822099E0,-2.621038198E0
7.312257995E1,3.284149170E-1,4.495515525E-1,-2.709572554E0
7.317257995E1,-3.147758245E0,-4.290929317E0,7.584948540E0
7.322257995E1,-5.558526993E0,-2.157608223E1,1.184177971E1
7.327257995E1,-2.446362019E0,-3.519842148E0,5.660222054E0
7.332257995E1,-4.957629204E0,-1.786062622E1,-1.095972633E1
7.337257995E1,-2.967997313E0,-5.097609520E0,-2.259422779E0
7.342257995E1,1.228714466E0,-1.319701481E1,-4.502694130E0
7.347257995E1,6.787839413E0,-1.204756260E1,9.822536707E-1
7.352257995E1,-1.094716340E-1,-5.526223660E0,2.938086987E0
7.357257995E1,-1.874178290E0,-6.802196503E0,1.966002941E0
7.362257995E1,-1.272981644E0,-9.143573761E0,-2.814856768E0
7.367257995E1,1.647757530E0,-1.083380318E1,4.001098633E0
7.372257995E1,5.157430172E0,-1.118345451E1,1.810469389E0
7.377257995E1,3.174976587E0,-1.526052570E1,2.911766052E0
7.382257995E1,4.507479668E-1,-1.688854218E1,2.935694218E0
7.387257995E1,-4.806881428E0,-1.936660957E1,-9.592526436E0
7.392257995E1,-4.770989418E0,-1.583031654E1,1.415354609E0
7.397257995E1,7.522436380E-1,-8.966505051E0,-2.149353027E0
7.402257995E1,4.716851711E0,-4.182952881E0,-1.735095501E0
7.407257995E1,3.460021496E0,-1.039681435E0,-2.223530531E0
7.412257995E1,-6.002993584E-1,-1.848455518E-1,-2.683251381E0
7.417257995E1,-2.182852507E0,-2.514258385E0,4.771886349E0
7.422257995E1,-1.075125122E1,-3.094667435E1,1.318235874E1
7.427257995E1,-2.649751902E0,-2.528914452E0,5.724828243E0
7.432257995E1,-3.525824070E0,-1.612493324E1,-2.000998020E0
7.437257995E1,-2.723929405E0,-6.644270420E0,-6.401398659E0
7.442257995E1,3.562912941E0,-9.722935677E0,-8.347661018E0
7.447257995E1,4.889433861E0,-1.478166199E1,3.167798042E0
7.452257995E1,1.836790442E0,-7.056134701E0,9.508479238E-1
7.457257995E1,-2.783750057E0,-6.534200668E0,1.499103427E0
7.462257995E1,-2.960819006E0,-7.465307713E0,-1.629811287E0
7.467257995E1,8.407780528E-1,-8.959325790E0,3.212364316E-1
7.472257995E1,4.997110844E0,-1.136530972E1,4.448855400E0
7.477257995E1,4.233202457E0,-1.481276894E1,5.153541565E-1
7.482257995E1,1.016949583E-2,-1.348654652E1,5.109573841E0
7.487257995E1,-1.581954837E0,-1.578485298E1,8.527421951E-1
7.492257995E1,-4.572085857E0,-1.787498283E1,-4.493122578E0
7.497257995E1,-3.171686411E0,-1.393669605E1,-7.274180651E-1
7.502257995E1,1.680957973E-1,-6.909873486E0,-1.416850090E0
7.507257995E1,4.542175770E0,-3.874279022E0,-3.557229996E0
7.512257995E1,8.312067389E-1,-1.418046474E0,-1.658525229E0
7.517257995E1,-3.538386524E-1,-8.697910309E-1,-1.855035782E0
7.522257995E1,-4.816452980E0,-7.587640762E0,1.074526882E1
7.527257995E1,-2.525325298E0,-1.798505402E1,1.150887871E1
7.532257995E1,-2.451147795E0,-2.859123945E0,6.649055958E0
7.537257995E1,-7.294220924E0,-2.070001030E1,-8.627920151E0
7.542257995E1,-8.638089895E-1,-4.879862785E0,-9.786644578E-1
7.547257995E1,4.563711166E0,-1.403958797E1,-9.116654396E-1
7.552257995E1,6.234798431E0,-1.145862961E1,4.124628007E-1
7.557257995E1,-1.845165372E0,-6.495915413E0,2.418545485E0
7.562257995E1,-2.199602127E0,-7.752745152E0,6.421737671E-1
7.567257995E1,-1.440778375E0,-8.257929802E0,-2.618645191E0
7.572257995E1,2.696412086E0,-9.536295891E0,3.225524902E0
7.577257995E1,5.880361557E0,-1.061605644E1,2.825624466E0
7.582257995E1,4.124628007E-1,-1.532513142E1,5.200500965E0
7.587257995E1,5.344967842E-1,-1.639532089E1,2.210369825E0
7.592257995E1,-3.224328518E0,-1.812862206E1,-8.467302322E0
7.597257995E1,-4.366302967E0,-1.821715736E1,8.455637097E-1
7.602257995E1,1.422533035E0,-9.349655151E0,-2.290529490E0
7.607257995E1,3.057728291E0,-4.250251293E0,-8.135597110E-1
7.612257995E1,3.991527319E0,-1.800898194E0,-2.446362019E0
7.617257995E1,-2.461616248E-1,2.554338276E-1,-2.592324257E0
7.622257995E1,-2.194816589E0,-1.827219248E0,2.983550787E0
7.627257995E1,-1.100758266E1,-2.901716232E1,1.424776363E1
7.632257995E1,-3.174079180E0,-5.210072041E0,5.461617470E0
7.637257995E1,-1.479063511E0,-2.031207275E1,-1.328315616E0
7.642257995E1,-3.525824070E0,-2.301297188E0,-6.961618423E0
7.647257995E1,1.894218206E0,-1.288325596E1,-1.037318516E1
7.652257995E1,6.230012894E0,-1.310818195E1,3.436093330E0
7.657257995E1,2.380260229E0,-6.579664230E0,1.748256087E0
7.662257995E1,-2.003390789E0,-6.558128834E0,1.590329766E0
7.667257995E1,-1.974676847E0,-8.985647202E0,5.105685592E-1
7.672257995E1,1.525723577E0,-8.803792953E0,-7.824530005E-1
7.677257995E1,3.991527319E0,-1.027119160E1,4.568496704E0
7.682257995E1,3.869493246E0,-1.310339546E1,1.176072359E0
7.687257995E1,5.368895531E-1,-1.421904945E1,6.093621731E0
7.692257995E1,2.590230405E-1,-1.689332771E1,1.073180914E0
7.697257995E1,-4.708775997E0,-1.887099648E1,-5.170590401E0
7.702257995E1,-2.869891644E0,-1.604357719E1,-6.161518395E-2
7.707257995E1,-2.056032896E0,-9.244071960E0,-1.749452472E0
7.712257995E1,4.295415878E0,-3.311666489E0,-3.253042459E0
7.717257995E1,2.320439816E0,-1.360319614E0,-1.806880236E0
7.722257995E1,-6.433702111E-1,8.554340899E-2,-2.417648077E0
7.727257995E1,-1.201196909E0,-3.761816263E0,1.006301594E1
7.732257995E1,-8.263912201E0,-2.793979454E1,1.058495045E1
7.737257995E1,-6.772286415E0,-9.069396019E0,8.437391281E0
7.742257995E1,-2.848356247E0,-7.046563625E0,-1.164676476E1
7.747257995E1,-1.996212244E0,-8.995218277E0,-2.352742910E0
7.752257995E1,4.161417484E0,-1.610578918E1,-1.217946768E0
7.757257995E1,5.140680313E0,-9.476474762E0,1.130608678E0
7.762257995E1,-1.943570137E0,-6.308976173E0,2.373081923E0
7.767257995E1,-2.359921217E0,-7.204489708E0,1.678864241E0
7.772257995E1,-6.912266612E-1,-8.803792953E0,-3.686442375E0
7.777257995E1,3.103191853E0,-1.018505001E1,2.962015390E0
7.782257995E1,5.538187981E0,-9.727721214E0,3.538984776E0
7.787257995E1,1.190429211E0,-1.559342670E1,4.664209366E0
7.792257995E1,1.487139225E0,-1.493031597E1,3.062513828E0
7.797257995E1,-1.814058661E0,-1.850698853E1,-9.111269951E0
7.802257995E1,-5.290530682E0,-1.844716644E1,2.892623425E0
7.807257995E1,-1.501496136E-1,-1.036929703E1,-2.197209358E0
7.812257995E1,1.980359793E0,-3.622733593E0,-2.056032896E0
7.817257995E1,5.030610561E0,-2.174477577E0,-2.661715984E0
7.822257995E1,-1.983051747E-1,1.597209126E-1,-2.917748213E0
7.827257995E1,-9.714859724E-1,-9.535398483E-1,8.048857450E-1
7.832257995E1,-1.468953800E1,-3.230669403E1,1.916770554E1
7.837257995E1,-1.313958764E0,-3.936492443E0,5.214858055E0
7.842257995E1,-5.939284801E0,-1.630439377E1,-2.544467688E0
7.847257995E1,-6.146563292E-1,-4.712066174E0,-7.804191113E0
7.852257995E1,2.186441660E0,-1.262961674E1,-8.220841408E0
7.857257995E1,4.041776657E0,-1.324726391E1,4.367499352E0
7.862257995E1,9.391828775E-1,-6.184549332E0,9.269196987E-1
7.867257995E1,-1.500598907E0,-7.068099022E0,-3.050848842E-2
7.872257995E1,-2.259422779E0,-8.353643417E0,-2.254637241E0
7.877257995E1,2.282154560E0,-8.815756798E0,2.993122101E0
7.882257995E1,6.270690918E0,-1.230150127E1,3.682554007E0
7.887257995E1,2.511865616E0,-1.493510151E1,1.173679471E0
7.892257995E1,1.728814393E-1,-1.358465195E1,3.881457329E0
7.897257995E1,-2.151745796E0,-1.823390770E1,-4.794917583E0
7.902257995E1,-5.129912853E0,-1.682154274E1,5.802594870E-2
7.907257995E1,-8.566305041E-1,-1.289522076E1,-1.457528114E0
7.912257995E1,1.872383654E-1,-4.951647282E0,-2.958725214E0
7.917257995E1,4.925326347E0,-3.522234917E0,-2.793321371E0
7.922257995E1,7.477571070E-2,-4.818546474E-1,-2.451147795E0
7.927257995E1,-1.050449133E0,-1.322034448E-1,-6.266204119E-1
7.932257995E1,-1.072971630E1,-1.641685677E1,1.468834209E1
7.937257995E1,-1.483849168E0,-1.134855938E1,7.884350777E0
7.942257995E1,-5.297709465E0,-1.298375511E1,1.001396298E0
7.947257995E1,-2.735893488E0,-7.092027187E0,-1.001635551E1
7.952257995E1,4.025026798E0,-1.126720333E1,-1.065793133E1
7.957257995E1,4.249952316E0,-1.437727451E1,3.926921129E0
7.962257995E1,2.392224550E0,-7.139883518E0,6.182455420E-1
7.967257995E1,-2.338385820E0,-6.196513176E0,2.066501379E0
7.972257995E1,-2.604288340E0,-8.130811691E0,-7.537391186E-1
7.977257995E1,1.855933070E0,-9.236893654E0,-8.781659007E-1
7.982257995E1,4.963611603E0,-9.835697174E0,4.915754795E0
7.987257995E1,3.163012505E0,-1.414726448E1,2.389831543E0
7.992257995E1,4.914259613E-1,-1.363968754E1,7.108478069E0
7.997257995E1,3.284149170E-1,-1.701775551E1,-3.171686411E0
8.002257995E1,-4.648656368E0,-1.764975929E1,-3.700799227E0
8.007257995E1,-1.613061547E0,-1.534666729E1,-2.653042078E-1
8.012257995E1,-1.012163997E0,-8.087740898E0,-1.412064433E0
8.017257995E1,2.483151674E0,-4.233501434E0,-2.666501760E0
8.022257995E1,2.397010088E0,-1.113858938E0,-2.601895571E0
8.027257995E1,2.213360928E-2,-3.649054468E-2,-3.178864956E0
8.032257995E1,-4.406980991E0,-5.547759533E0,7.479664326E0
8.037257995E1,-5.505885124E0,-2.654148865E1,1.402283764E1
8.042257995E1,-2.264208317E0,-1.508973837E0,4.087240219E0
8.047257995E1,-5.726024628E0,-1.741287041E1,-1.011685371E1
8.052257995E1,2.475973129E0,-8.241180420E0,-4.387838364E0
8.057257995E1,1.333998680E0,-1.505952835E1,1.906182289E0
8.062257995E1,4.314857483E0,-8.633603096E0,-3.418745399E-1
8.067257995E1,-1.553241014E0,-5.957231045E0,1.820040703E0
8.072257995E1,-1.560419440E0,-7.247560501E0,9.798609018E-1
8.077257995E1,6.281159073E-2,-9.454939842E0,-1.814058661E0
8.082257995E1,3.254238844E0,-1.088405323E1,4.633102894E0
8.087257995E1,6.354439735E0,-1.352243900E1,3.134298563E0
8.092257995E1,1.587936878E0,-1.458545017E1,7.089335442E0
8.097257995E1,-1.292124271E0,-1.629482269E1,6.756733060E-1
8.102257995E1,-4.442873478E0,-1.913181305E1,-5.987141132E0
8.107257995E1,-2.575574398E0,-1.555274868E1,-7.537391186E-1
8.112257995E1,-4.447658956E-1,-7.649854183E0,-1.864607096E0
8.117257995E1,3.653840065E0,-3.146561861E0,-2.668894529E0
8.122257995E1,1.121037364E0,-4.292125702E-1,-2.479861498E0
8.127257995E1,-6.672984362E-1,1.613061547E0,-3.480360508E0
8.132257995E1,-5.096413136E0,-9.835697174E0,1.517677689E1
8.137257995E1,-7.824530005E-1,-1.599302864E1,1.099412251E1
8.142257995E1,-5.218447208E0,-1.003430176E1,5.693721294E0
8.147257995E1,-2.221137524E0,-5.643472195E0,-1.087597752E1
8.152257995E1,2.473580360E0,-1.006540871E1,-1.049521923E1
8.157257995E1,3.376272678E0,-1.552882099E1,7.731209755E0
8.162257995E1,4.130311012E0,-7.017849922E0,1.274178028E-1
8.167257995E1,-2.017747641E0,-6.045765400E0,2.169692039E0
8.172257995E1,-2.412563324E0,-8.664710045E0,4.674977362E-1
8.177257995E1,-1.615155302E-2,-8.578568459E0,-2.479861498E0
8.182257995E1,2.583650351E0,-1.155942726E1,2.895016193E0
8.187257995E1,5.832505226E0,-1.353918839E1,3.170190811E0
8.192257995E1,1.609472275E0,-1.403480244E1,5.933003902E0
8.197257995E1,4.914259613E-1,-1.575374603E1,-2.294118702E-1
8.202257995E1,-4.052544117E0,-1.824856186E1,-7.926225185E0
8.207257995E1,-3.863511324E0,-1.582553101E1,1.752742529E-1
8.212257995E1,2.374876440E-1,-8.770293236E0,-1.481456280E0
8.217257995E1,3.218346357E0,-4.149453640E0,-1.823629975E0
8.222257995E1,2.698804855E0,-8.120641708E-1,-2.395813704E0
8.227257995E1,-1.788634956E-1,1.381855011E-1,-3.231507063E0
8.232257995E1,-1.828415632E0,-4.180560112E0,8.185846329E0
8.237257995E1,-1.004506969E1,-3.012563705E1,1.231107235E1
8.242257995E1,-6.858428001E0,-4.855934620E0,6.838088989E0
8.247257995E1,-2.206780672E0,-1.334297752E1,-1.210170078E1
8.252257995E1,-3.552145243E0,-8.152646065E0,-1.232303619E0
8.257257995E1,4.822135925E0,-1.477209091E1,-3.803690672E0
8.262257995E1,5.624329567E0,-9.670293808E0,2.282154560E0
8.267257995E1,-1.280160069E0,-6.186942101E0,1.678864241E0
8.272257995E1,-1.754238129E0,-7.010372162E0,1.436890006E0
8.277257995E1,-5.356931686E-1,-8.277072906E0,-2.752643347E0
8.282257995E1,3.340380430E0,-1.144187927E1,2.217548370E0
8.287257995E1,7.031907558E0,-1.074048328E1,3.210868835E0
8.292257995E1,6.520441920E-2,-1.610578918E1,4.032205105E0
8.297257995E1,2.318047047E0,-1.597149277E1,6.326025128E-1
8.302257995E1,-3.322434187E0,-1.680479431E1,-6.906583309E0
8.307257995E1,-5.563312531E0,-1.671625900E1,2.873480797E0
8.312257995E1,2.709871531E-1,-1.016112137E1,-1.404886007E0
8.317257995E1,1.415354609E0,-4.163810730E0,-1.244267821E0
8.322257995E1,4.389034748E0,-1.875075698E0,-2.566003084E0
8.327257995E1,6.278168559E-1,2.315055877E-1,-2.429612398E0
8.332257995E1,-1.289731383E0,-1.022931695E0,-3.634099364E-1
8.337257995E1,-1.660499191E1,-2.466940308E1,1.630200195E1
8.342257995E1,-2.307279348E0,-8.499605179E0,7.314559937E0
8.347257995E1,-5.958427429E0,-1.620868111E1,-1.528325748E1
8.352257995E1,-1.127019525E0,-1.870290041E0,-3.877868176E0
8.357257995E1,2.964408159E0,-1.827488327E1,-4.792524815E0
8.362257995E1,8.925827026E0,-9.584152222E0,3.017050266E0
8.367257995E1,-5.524429083E-1,-6.005087376E0,1.748256087E0
8.372257995E1,-5.115555763E0,-8.018348694E0,1.049252748E0
8.377257995E1,-1.596311808E0,-8.420641899E0,-1.605883121E0
8.382257995E1,4.458426952E0,-9.799506187E0,1.872383654E-1
8.387257995E1,5.688935757E0,-1.240917778E1,4.479962349E0
8.392257995E1,-1.860419661E-1,-1.537777424E1,3.967599154E0
8.397257995E1,2.761018276E0,-1.388644695E1,2.576471806E0
8.402257995E1,-1.435992718E0,-1.867209244E1,-8.199305534E0
8.407257995E1,-3.629014730E0,-1.631635857E1,2.124228239E0
8.412257995E1,1.207179070E0,-1.038156033E1,-2.707179785E0
8.417257995E1,1.741077542E0,-4.336392879E0,1.585244983E-1
8.422257995E1,4.546961308E0,-2.523829699E0,-2.695215702E0
8.427257995E1,-7.920243144E-1,2.123630047E-1,-2.510968208E0
8.432257995E1,-2.053640127E0,-6.182455420E-1,9.412766099E-1
8.437257995E1,-1.206820107E1,-2.772892570E1,1.509302807E1
8.442257995E1,-1.217946768E0,-6.871588230E0,6.560222149E0
8.447257995E1,-4.586442947E0,-1.705125427E1,-2.261815548E0
8.452257995E1,-2.276172638E0,-4.784149647E0,-7.176972389E0
8.457257995E1,1.128215909E0,-9.035896301E0,-9.279067039E0
8.462257995E1,5.384748459E0,-1.575374603E1,4.218845367E0
8.467257995E1,3.809672832E0,-6.306583405E0,1.721935034E0
8.472257995E1,-2.525325298E0,-6.629913330E0,3.260220885E-1
8.477257995E1,-3.231507063E0,-8.578568459E0,-1.194018483E0
8.482257995E1,1.721935034E0,-9.224929810E0,8.359923959E-1
8.487257995E1,6.687341213E0,-1.174845982E1,5.956932068E0
8.492257995E1,2.969193697E0,-1.520788383E1,1.353141189E0
8.497257995E1,-2.557329237E-1,-1.287129211E1,5.150251865E0
8.502257995E1,-9.236295223E-1,-1.799701691E1,-4.739882469E0
8.507257995E1,-6.573681831E0,-1.742004776E1,-7.345965505E-1
8.512257995E1,-4.418945312E0,-1.372822189E1,-4.519443810E-1
8.517257995E1,8.001000881E-1,-7.161418915E0,-2.101496458E0
8.522257995E1,4.870291233E0,-4.187738895E0,-3.473181963E0
8.527257995E1,1.018146038E0,-2.805584669E-1,-2.869891644E0
8.532257995E1,-4.782654345E-1,7.510471940E-1,-2.111067772E0
8.537257995E1,-8.237590790E0,-1.127677536E1,1.711346817E1
8.542257995E1,-3.324826956E0,-1.335733414E1,7.644769192E0
8.547257995E1,-6.334100723E0,-7.989634991E0,-2.216351986E0
8.552257995E1,-1.359422326E0,-9.598508835E0,-9.180961609E0
8.557257995E1,4.709673405E0,-1.150439262E1,-8.534300804E0
8.562257995E1,3.761816263E0,-1.326640701E1,4.304986954E0
8.567257995E1,2.035394669E0,-6.895516872E0,2.207378894E-1
8.572257995E1,-2.036890268E0,-6.203691959E0,1.278963685E0
8.577257995E1,-1.694417477E0,-7.953742504E0,-1.917249203E0
8.582257995E1,1.561615825E0,-9.002396584E0,1.484746456E0
8.587257995E1,6.632306099E0,-1.218185997E1,4.353142738E0
8.592257995E1,2.940479994E0,-1.499731541E1,1.714756489E0
8.597257995E1,2.691925503E-2,-1.184177971E1,5.866004944E0
8.602257995E1,-7.319046259E-1,-1.773380661E1,-5.225924492E0
8.607257995E1,-5.027021408E0,-1.833949089E1,-7.585247755E-1
8.612257995E1,-2.513360977E0,-1.354158115E1,-1.622632861E0
8.617257995E1,9.269196987E-1,-5.839683533E0,-2.292922258E0
8.622257995E1,4.391427994E0,-3.235096216E0,-3.830011845E0
8.627257995E1,2.709871531E-1,4.615156651E-1,-2.688037157E0
8.632257995E1,-5.428716540E-1,7.079764009E-1,-4.232304990E-1
8.637257995E1,-1.266192055E1,-2.042932129E1,1.582792377E1
8.642257995E1,-3.873381615E-1,-9.004789352E0,7.132406235E0
8.647257995E1,-4.723132610E0,-1.017308521E1,-1.797308922E0
8.652257995E1,-2.649751902E0,-1.179392338E1,-7.363612652E0
8.657257995E1,1.652543187E0,-6.644270420E0,-8.369195938E0
8.662257995E1,3.220739365E0,-1.560778427E1,4.963611603E0
8.667257995E1,4.204488277E0,-6.909873486E0,1.585244983E-1
8.672257995E1,-2.518146753E0,-6.232405663E0,1.611865163E0
8.677257995E1,-2.800499916E0,-8.217251778E0,-2.345564365E0
8.682257995E1,1.061216831E0,-1.052034378E1,1.389033556E0
8.687257995E1,6.225227356E0,-1.070459080E1,5.320142269E0
8.692257995E1,2.770589590E0,-1.510259914E1,2.090429783E0
8.697257995E1,3.192025423E0,-1.376919842E1,2.554936409E0
8.702257995E1,-3.760619879E0,-1.789412498E1,-3.892225027E0
8.707257995E1,-6.145067692E0,-1.708714676E1,-1.310070455E-1
8.712257995E1,-2.774178743E0,-1.216511059E1,-3.610171080E-1
8.717257995E1,6.134598851E-1,-5.569294930E0,-2.532503605E0
8.722257995E1,4.599603176E0,-2.839981318E0,-2.781357288E0
8.727257995E1,-4.247260094E-2,-9.631111473E-2,-2.307279348E0
8.732257995E1,-8.685946465E-1,-6.565307379E-1,-1.428814173E0
8.737257995E1,-9.666704178E0,-1.759951019E1,1.709193230E1
8.742257995E1,-3.083750308E-1,-1.096570778E1,8.861220360E0
8.747257995E1,-3.841975927E0,-1.174845982E1,7.101299286E0
8.752257995E1,-4.308875561E0,-6.084050655E0,-1.045454121E1
8.757257995E1,2.365903378E0,-1.048923683E1,-1.081854916E1
8.762257995E1,4.872684002E0,-1.542802334E1,4.341178417E0
8.767257995E1,2.763411045E0,-6.878767014E0,5.081757307E-1
8.772257995E1,-1.917249203E0,-5.672185898E0,1.312463164E0
8.777257995E1,-2.800499916E0,-8.640781403E0,-1.996212244E0
8.782257995E1,3.212364316E-1,-8.729615211E0,5.177469850E-1
8.787257995E1,5.911468506E0,-1.204277706E1,4.697709084E0
8.792257995E1,4.350749969E0,-1.541605854E1,1.073180914E0
8.797257995E1,-2.629113793E-1,-1.390080452E1,5.645864964E0
8.802257995E1,-5.333003402E-1,-1.714008713E1,-5.108377457E0
8.807257995E1,-6.049354553E0,-1.964178467E1,-7.537391186E-1
8.812257995E1,-3.844368696E0,-1.181306648E1,-6.577271223E-1
8.817257995E1,1.128215909E0,-4.369892120E0,-3.190829039E0
8.822257995E1,5.822933674E0,-2.629412889E0,-3.540480137E0
8.827257995E1,5.297111273E-1,4.304089844E-1,-1.759023786E0
8.832257995E1,-8.973084688E-1,4.280161560E-1,6.684948206E-1
8.837257995E1,-1.365524101E1,-2.659652328E1,1.449691582E1
8.842257995E1,-3.427718401E0,-7.657032490E0,5.312963486E0
8.847257995E1,-4.993521690E0,-1.406590843E1,2.641077995E0
8.852257995E1,-1.864308000E0,-7.094419956E0,-1.084008503E1
8.857257995E1,2.586043119E0,-1.162642574E1,-8.764310837E0
8.862257995E1,4.503890514E0,-1.349851036E1,2.926122904E0
8.867257995E1,2.624627352E0,-6.768697262E0,1.939681888E0
8.872257995E1,-2.127817631E0,-6.117550373E0,2.205584288E0
8.877257995E1,-3.044866800E0,-8.439785004E0,-1.699203134E0
8.882257995E1,6.924230456E-1,-9.519545555E0,-4.447658956E-1
8.887257995E1,6.081657887E0,-1.323530006E1,8.411070824E0
8.892257995E1,2.344367981E0,-1.556949902E1,2.169692039E0
8.897257995E1,2.073979139E0,-1.512652779E1,4.159024715E0
8.902257995E1,-1.574776411E0,-1.884467506E1,-8.769096375E0
8.907257995E1,-4.895416260E0,-1.672822380E1,2.188834429E0
8.912257995E1,-1.471885085E0,-9.897911072E0,-1.146162033E0
8.917257995E1,2.035394669E0,-4.135096550E0,-1.560419440E0
8.922257995E1,5.073681355E0,-2.686840773E0,-2.408077002E0
8.927257995E1,-1.884347796E-1,-1.752742529E-1,-2.628216505E0
8.932257995E1,-1.802094579E0,4.187439568E-3,2.607578516E0
8.937257995E1,-1.309023571E1,-3.001048279E1,1.351047516E1
8.942257995E1,-2.137388945E0,-3.196810961E0,8.387142181E0
8.947257995E1,-5.172983646E0,-1.639532089E1,-6.971189499E0
8.952257995E1,-2.972783089E0,-7.578069210E0,-4.344767570E0
8.957257995E1,5.440082073E0,-1.019462109E1,-6.286244392E0
8.962257995E1,5.444868088E0,-1.357268810E1,1.944467545E0
8.967257995E1,7.498508096E-1,-5.255535603E0,3.737588882E0
8.972257995E1,-1.778166294E0,-6.795018196E0,4.220340848E-1
8.977257995E1,-2.230708838E0,-8.734400749E0,-2.417648077E0
8.982257995E1,3.510270834E0,-1.054905796E1,3.098406315E0
8.987257995E1,6.778268337E0,-1.114995575E1,3.297309637E0
8.992257995E1,-9.032905847E-2,-1.513849163E1,3.610769272E0
8.997257995E1,4.172484577E-1,-1.746551132E1,2.629113913E0
9.002257995E1,-1.325922847E0,-1.761147308E1,-8.412266731E0
9.007257995E1,-4.189234257E0,-1.704168320E1,2.902194738E0
9.012257995E1,-5.620142221E-1,-8.782257080E0,-2.446362019E0
9.017257995E1,2.854338408E0,-4.334000111E0,-5.428716540E-1
9.022257995E1,4.915754795E0,-2.629412889E0,-2.771785975E0
9.027257995E1,1.944168359E-1,2.243271172E-1,-3.461217880E0
9.032257995E1,-1.668096542E0,-1.223928809E0,4.850849628E0
9.037257995E1,-1.328913879E1,-3.104717255E1,1.484387493E1
9.042257995E1,-2.391027927E0,-2.634198666E0,7.288238525E0
9.047257995E1,-7.366005421E0,-1.717837334E1,-1.006899738E1
9.052257995E1,-3.777668774E-1,-5.377869129E0,-1.639382601E0
9.057257995E1,4.096811295E0,-1.518395519E1,-2.175673962E0
9.062257995E1,5.983551979E0,-1.037168980E1,1.140179992E0
9.067257995E1,-1.258624673E0,-5.787041664E0,2.416152716E0
9.072257995E1,-3.719941854E0,-7.068099022E0,9.412766099E-1
9.077257995E1,-1.837986946E0,-8.686244965E0,-2.439183474E0
9.082257995E1,3.886243105E0,-1.076919746E1,2.231905222E0
9.087257995E1,5.980860233E0,-1.239482117E1,3.869493246E0
9.092257995E1,1.259821177E0,-1.549771404E1,5.983253002E0
9.097257995E1,1.774577141E0,-1.657268906E1,7.785646915E-1
9.102257995E1,-5.196911812E0,-2.101825523E1,-7.301399231E0
9.107257995E1,-3.188436270E0,-1.549053574E1,-4.351946115E-1
9.112257995E1,-8.829515576E-1,-7.625925541E0,-2.537289381E0
9.117257995E1,3.981956005E0,-3.625126362E0,-3.399004459E0
9.122257995E1,2.574079037E0,-1.348355532E0,-1.855035782E0
9.127257995E1,-1.021735311E0,-9.870393574E-2,-3.229114056E0
9.132257995E1,-3.556930780E0,-5.724828243E0,1.172931767E1
9.137257995E1,-6.595217228E0,-2.493739891E1,1.388405418E1
9.142257995E1,-3.377469063E0,-2.509472847E0,8.023134232E0
9.147257995E1,-6.434898376E0,-1.646232033E1,-7.665407181E0
9.152257995E1,-9.858429432E-1,-8.222037315E0,-2.561217546E0
9.157257995E1,3.608376503E0,-1.437248898E1,-1.050449133E0
9.162257995E1,6.957729816E0,-9.828518867E0,1.176072359E0
9.167257995E1,-5.763711333E-1,-5.753541946E0,2.274976015E0
9.172257995E1,-3.482753277E0,-6.962515831E0,6.062814593E-1
9.177257995E1,-1.790130496E0,-8.056633949E0,-1.919641972E0
9.182257995E1,4.606781960E0,-1.266790199E1,2.133799553E0
9.187257995E1,7.338488102E0,-1.129831028E1,2.346760750E0
9.192257995E1,-1.835594058E0,-1.463330650E1,7.551449299E0
9.197257995E1,2.504687071E0,-1.661576080E1,8.001000881E-1
9.202257995E1,-2.647359133E0,-1.866252136E1,-7.914260864E0
9.207257995E1,-3.475574970E0,-1.659183311E1,7.809575200E-1
9.212257995E1,-7.151548862E-1,-8.346464157E0,-1.471885085E0
9.217257995E1,3.091227770E0,-4.029812336E0,-1.352243900E0
9.222257995E1,3.677768469E0,-2.698804855E0,-2.496611357E0
9.227257995E1,-1.429711580E-1,-2.566302419E-1,-2.924926519E0
9.232257995E1,-4.533800602E0,-3.203989506E0,8.104490280E0
9.237257995E1,-8.086843491E0,-2.454497719E1,1.322542953E1
9.242257995E1,-3.406183004E0,-5.648257732E0,1.056820011E1
9.247257995E1,-4.349553585E0,-1.305314636E1,-8.989236832E0
9.252257995E1,-2.139781713E0,-8.585746765E0,5.703890920E-1
9.257257995E1,5.360819817E0,-1.518156242E1,-1.953141451E0
9.262257995E1,5.135894775E0,-9.854840279E0,2.018645048E0
9.267257995E1,-1.603490233E0,-5.645864964E0,1.025324464E0
9.272257995E1,-2.982354403E0,-6.064908028E0,2.073679924E0
9.277257995E1,-1.658525229E0,-9.349655151E0,-3.434896946E0
9.282257995E1,2.729911566E0,-1.080508995E1,3.855136395E0
9.287257995E1,7.249953270E0,-1.194227886E1,2.825624466E0
9.292257995E1,8.623134494E-1,-1.602682686E1,6.486044884E0
9.297257995E1,-6.768696904E-1,-1.574896049E1,1.109073281E0
9.302257995E1,-4.325624943E0,-1.921795464E1,-5.967998981E0
9.307257995E1,-2.331207514E0,-1.591406536E1,-9.834501147E-1
9.312257995E1,1.872383654E-1,-7.570591927E0,-1.711167336E0
9.317257995E1,3.254238844E0,-3.824029684E0,-3.104687452E0
9.322257995E1,1.719542146E0,-5.009972453E-1,-2.546860695E0
9.327257995E1,-7.968099117E-1,-7.809575200E-1,-2.448754787E0
9.332257995E1,-4.742275238E0,-7.120740891E0,1.623260880E1
9.337257995E1,-3.605086327E0,-1.917727661E1,1.269631672E1
9.342257995E1,-3.975973845E0,-6.775875568E0,8.626424789E0
9.347257995E1,-4.902594566E0,-1.184895897E1,-8.074878693E0
9.352257995E1,-6.098706722E-1,-9.234500885E0,-5.012664318E0
9.357257995E1,2.871088028E0,-1.511217022E1,1.645364642E0
9.362257995E1,6.483652115E0,-8.992825508E0,5.727819204E-1
9.367257995E1,-1.641775489E0,-6.656234264E0,1.626222134E0
9.372257995E1,-3.439682484E0,-7.829315662E0,1.106680483E-1
9.377257995E1,-7.319046259E-1,-7.960920811E0,-1.593919039E0
9.382257995E1,4.475176334E0,-1.219621658E1,3.644268990E0
9.387257995E1,5.624329567E0,-1.411376572E1,1.479960799E0
9.392257995E1,4.148556292E-1,-1.417837143E1,7.206882477E0
9.397257995E1,3.981058598E-1,-1.658226013E1,9.846464992E-1
9.402257995E1,-3.846761465E0,-1.848545265E1,-6.319743633E0
9.407257995E1,-2.534896374E0,-1.602443504E1,-7.848458290E-1
9.412257995E1,-8.398807645E-1,-8.389534950E0,-1.972284079E0
9.417257995E1,3.196810961E0,-3.998705626E0,-3.011367321E0
9.422257995E1,2.509472847E0,-8.359923959E-1,-2.606681108E0
9.427257995E1,-1.347458243E0,3.418745399E-1,-2.587538481E0
9.432257995E1,-5.055735111E0,-7.657032490E0,1.553569984E1
9.437257995E1,-2.922533751E0,-2.130569267E1,1.306511116E1
9.442257995E1,-1.593919039E0,4.486542568E-2,7.197311401E0
9.447257995E1,-6.604788780E0,-1.959631920E1,-1.068903828E1
9.452257995E1,-2.075175524E0,-5.895017624E0,-7.298108935E-1
9.457257995E1,3.031407118E0,-1.284497070E1,-2.970689297E0
9.462257995E1,6.826124668E0,-1.049641609E1,-1.501496136E-1
9.467257995E1,-6.792625189E-1,-5.389832973E0,3.287738323E0
9.472257995E1,-3.102294445E0,-7.984848976E0,8.192426562E-1
9.477257995E1,-1.012163997E0,-8.389534950E0,-1.205982566E0
9.482257995E1,4.771886349E0,-1.188724422E1,3.955634832E0
9.487257995E1,6.869195461E0,-1.227039433E1,2.047358990E0
9.492257995E1,-1.129412293E0,-1.426451302E1,9.337391853E0
9.497257995E1,3.332005441E-1,-1.602922058E1,2.392224550E0
9.502257995E1,-2.881855726E0,-1.975424576E1,-8.012665749E0
9.507257995E1,-2.048854351E0,-1.602682686E1,-6.400800496E-2
9.512257995E1,-2.051247120E0,-9.035896301E0,-1.857428551E0
9.517257995E1,3.206382275E0,-3.567698479E0,-3.075973511E0
9.522257995E1,2.542972326E0,-1.077966571E0,-2.410469770E0
9.527257995E1,-8.853443861E-1,3.514458239E-1,-2.771785975E0
9.532257995E1,-4.775774956E0,-5.933302879E0,1.099890804E1
9.537257995E1,-3.791726589E0,-2.129612160E1,1.372822189E1
9.542257995E1,-2.460718870E0,-2.557628393E0,6.883552551E0
9.547257995E1,-5.872285843E0,-1.619193268E1,-9.190532684E0
9.552257995E1,-8.566305041E-1,-8.384749413E0,-2.956033230E0
9.557257995E1,2.102692842E0,-1.329512119E1,-7.776673436E-1
9.562257995E1,6.397510529E0,-1.034536839E1,2.494517565E-1
9.567257995E1,-9.403793216E-1,-6.249155521E0,1.453639746E0
9.572257995E1,-2.656930447E0,-7.731209755E0,1.532902002E0
9.577257995E1,-6.888338327E-1,-8.492426872E0,-2.154138565E0
9.582257995E1,4.369892120E0,-1.142273712E1,4.688137531E0
9.587257995E1,6.866802692E0,-1.219861031E1,3.634697676E0
9.592257995E1,-7.118647546E-2,-1.484148216E1,8.686244965E0
9.597257995E1,-6.400800496E-2,-1.711615944E1,9.125627279E-1
9.602257995E1,-3.140579700E0,-1.942164421E1,-6.676573277E0
9.607257995E1,-1.989033818E0,-1.573938942E1,-9.738788009E-1
9.612257995E1,-2.889034271E0,-8.568997383E0,-1.354636669E0
9.617257995E1,4.587639332E0,-3.311666489E0,-3.035295486E0
9.622257995E1,1.188036442E0,-4.579264224E-1,-2.551646233E0
9.627257995E1,-1.433599830E0,3.562314808E-1,-2.989831924E0
9.632257995E1,-4.928915501E0,-8.396714211E0,1.658674812E1
9.637257995E1,-4.940879822E0,-1.770509338E1,1.051555824E1
9.642257995E1,-5.596812248E0,-6.500700951E0,1.011087227E1
9.647257995E1,-5.404788256E-1,-1.105663490E1,-1.399771309E1
9.652257995E1,-1.773380637E0,-9.682257652E0,-1.069591761E0
9.657257995E1,5.305785179E0,-1.546660709E1,-2.318046987E-1
9.662257995E1,6.012266159E0,-1.016829967E1,1.491924882E0
9.667257995E1,-2.312064886E0,-6.730412006E0,2.677269459E0
9.672257995E1,-2.520539522E0,-7.111169815E0,9.125627279E-1
9.677257995E1,-1.153340459E0,-6.797410965E0,-2.654537678E0
9.682257995E1,2.627020121E0,-9.984052658E0,3.345165968E0
9.687257995E1,7.340880871E0,-1.182981586E1,4.240380764E0
9.692257995E1,1.573580027E0,-1.445863056E1,6.399903297E0
9.697257995E1,2.350948304E-1,-1.633550072E1,2.423331022E0
9.702257995E1,-2.666501760E0,-1.982842445E1,-7.691728592E0
9.707257995E1,-1.510170221E0,-1.722383690E1,1.008574724E0
9.712257995E1,-6.640082598E-2,-9.169894218E0,-2.980260611E0
9.717257995E1,2.289333105E0,-3.297309637E0,-1.098305583E0
9.722257995E1,3.421736479E0,-1.250249863E0,-2.671287298E0
9.727257995E1,-6.290132403E-1,1.956132501E-1,-2.891427040E0
9.732257995E1,-2.010569334E0,-2.863909483E0,3.158226728E0
9.737257995E1,-1.079432201E1,-3.446831131E1,1.481755447E1
9.742257995E1,-3.241078377E0,-3.089133978E0,4.597210407E0
9.747257995E1,-3.243471146E0,-1.809751511E1,-8.290233612E0
9.752257995E1,-3.789333820E0,-4.918148041E0,-4.751846790E0
9.757257995E1,3.017050266E0,-1.210289669E1,-7.502695560E0
9.762257995E1,6.775875568E0,-1.267986584E1,2.619542599E0
9.767257995E1,1.755434513E0,-6.555736065E0,2.607578516E0
9.772257995E1,-2.532503605E0,-6.649055958E0,1.121037364E0
9.777257995E1,-1.596311808E0,-8.075776100E0,-8.303094506E-1
9.782257995E1,2.085943222E0,-8.504390717E0,1.087537885E0
9.787257995E1,4.714458942E0,-1.155703449E1,4.199702740E0
9.792257995E1,2.411366940E0,-1.541605854E1,2.344367981E0
9.797257995E1,2.545365095E0,-1.511934853E1,4.412963390E0
9.802257995E1,-2.309672117E0,-1.672822380E1,-6.365506649E0
9.807257995E1,-6.314958096E0,-1.827249146E1,4.001995921E-1
9.812257995E1,-5.069792867E-1,-1.136291695E1,-1.364207983E0
9.817257995E1,3.188436031E-1,-5.049753189E0,-1.735095501E0
9.822257995E1,5.145465851E0,-2.298904419E0,-3.138186932E0
9.827257995E1,-3.993022740E-1,1.668993831E-1,-2.257030010E0
9.832257995E1,-1.536491275E0,-1.010967612E0,5.383851007E-3
9.837257995E1,-1.202513027E1,-2.584009171E1,1.750618935E1
9.842257995E1,-2.213959217E0,-6.979265213E0,6.919445038E0
9.847257995E1,-3.607479334E0,-1.606511307E1,-9.451649189E-1
9.852257995E1,-2.850749016E0,-2.698804855E0,-8.426624298E0
9.857257995E1,2.416152716E0,-1.144905853E1,-8.891130447E0
9.862257995E1,6.601199627E0,-1.453520107E1,3.383451223E0
9.867257995E1,2.705983400E0,-7.522735119E0,9.460622668E-1
9.872257995E1,-3.075973511E0,-6.399903297E0,1.487139225E0
9.877257995E1,-3.233899832E0,-7.635497093E0,7.833502889E-1
9.882257995E1,-1.057627559E0,-8.099704742E0,-2.946461916E0
9.887257995E1,1.832004786E0,-1.216989613E1,3.167798042E0
9.892257995E1,7.510771275E0,-1.500210094E1,2.284547329E0
9.897257995E1,2.933301449E0,-1.492792320E1,7.403094292E0
9.902257995E1,-8.949156404E-1,-1.432941818E1,-1.471885085E0
9.907257995E1,-4.888237476E0,-1.951017761E1,-8.280661583E0
9.912257995E1,-2.525325298E0,-1.531316757E1,-1.022931710E-1
9.917257995E1,7.354938388E-1,-8.533104897E0,-3.581158161E0
9.922257995E1,3.917349815E0,-4.808077812E0,-1.711167336E0
9.927257995E1,2.124228239E0,-1.286142230E0,-2.228316069E0
9.932257995E1,-3.658027649E-1,-3.550350666E-1,-3.154936552E0
9.937257995E1,-1.886142492E0,-3.043371201E0,5.956932068E0
9.942257995E1,-1.059571743E1,-2.626870537E1,1.480319691E1
9.947257995E1,-7.529016495E0,-7.352844715E0,4.542175770E0
9.952257995E1,-1.287338614E0,-9.687043190E0,-7.330112934E0
9.957257995E1,-2.352742910E0,-7.879564762E0,-5.716453075E0
9.962257995E1,3.100799084E0,-1.571546078E1,-4.701597214E0
9.967257995E1,5.660222054E0,-1.194706440E1,2.995514870E0
9.972257995E1,2.925225794E-1,-6.747161865E0,-3.290131316E-2
9.977257995E1,-2.441576481E0,-6.859624386E0,2.782553673E0
9.982257995E1,-1.727917075E0,-7.929814339E0,-5.309075117E-1
9.987257995E1,1.398604870E0,-7.795815945E0,-1.534098387E0
9.992257995E1,4.949254513E0,-1.335733414E1,3.701696634E0
9.997257995E1,4.539782524E0,-1.383380508E1,1.623829246E0
1.000225800E2,1.499402523E0,-1.404915905E1,5.928217888E0
1.000725800E2,-3.219542980E0,-1.520549107E1,3.888336942E-2
1.001225800E2,-4.107579231E0,-2.067368889E1,-6.705287457E0
1.001725800E2,-2.656930447E0,-1.620150375E1,-1.107876897E0
1.002225800E2,2.614158690E-1,-7.992027760E0,-3.394218922E0
1.002725800E2,3.948456526E0,-3.914957047E0,-1.907677889E0
1.003225800E2,2.100300074E0,-1.207179070E0,-2.951247692E0
1.003725800E2,-4.112663865E-1,-3.741776347E-1,-2.776571512E0
1.004225800E2,-2.510968208E0,-4.300500393E0,8.655138969E0
1.004725800E2,-1.109850979E1,-2.697249413E1,1.195902824E1
1.005225800E2,-4.476373196E0,-4.017848492E0,5.497509956E0
1.005725800E2,-3.142972469E0,-1.624457359E1,-6.774679184E0
1.006225800E2,-2.549253464E0,-3.888635874E0,-4.950450897E0
1.006725800E2,3.598805189E0,-1.241396427E1,-8.577671051E0
1.007225800E2,5.626722336E0,-1.402283764E1,3.708875179E0
1.007725800E2,1.585544109E0,-6.917052269E0,5.943173170E-1
1.008225800E2,-3.145365477E0,-6.656234264E0,1.561615825E0
1.008725800E2,-2.091925144E0,-7.690532207E0,-7.920243144E-1
1.009225800E2,1.877468467E0,-7.834101200E0,-2.676970363E-1
1.009725800E2,5.219643593E0,-1.170060349E1,3.407379389E0
1.010225800E2,2.725125790E0,-1.573699665E1,1.977967024E0
1.010725800E2,2.198405743E0,-1.355833149E1,4.869992256E0
1.011225800E2,-2.599502802E0,-1.449691582E1,1.851147413E0
1.011725800E2,-3.865904093E0,-1.836341858E1,-4.572085857E0
1.012225800E2,-2.453540564E0,-1.484626770E1,-8.853443861E-1
1.012725800E2,-8.111668825E-1,-7.163811684E0,-1.622632861E0
1.013225800E2,4.987539768E0,-3.838386536E0,-2.503789902E0
1.013725800E2,7.666005492E-1,-1.647757530E0,-2.352742910E0
1.014225800E2,-1.663310885E0,-5.919244885E-1,-2.616252422E0
1.014725800E2,-4.971986294E0,-6.515058041E0,1.212891865E1
1.015225800E2,-3.300898790E0,-1.990020943E1,1.234696484E1
1.015725800E2,-3.243471146E0,-4.334000111E0,7.896314621E0
1.016225800E2,-6.154638767E0,-1.573938942E1,-8.656634331E0
1.016725800E2,-2.748754919E-1,-8.358428955E0,-3.573979616E0
1.017225800E2,3.302095175E0,-1.379791260E1,-4.965107143E-2
1.017725800E2,5.748756409E0,-1.037408257E1,3.978067636E-1
1.018225800E2,-1.965105653E0,-6.644270420E0,1.520638824E0
1.018725800E2,-3.293720484E0,-6.996015072E0,-5.922235921E-2
1.019225800E2,-9.690931439E-1,-8.303393364E0,-2.461616248E-1
1.019725800E2,4.549354076E0,-1.276122189E1,2.801696301E0
1.020225800E2,4.635495663E0,-1.182503033E1,3.464807272E0
1.020725800E2,1.772184253E0,-1.615604019E1,3.414557934E0
1.021225800E2,1.453639746E0,-1.498774338E1,1.741077542E0
1.021725800E2,-4.471587181E0,-1.937857246E1,-8.101200104E0
1.022225800E2,-4.782953262E0,-1.653171349E1,1.226321578E0
1.022725800E2,2.241476536E0,-8.255537033E0,-1.620239973E0
1.023225800E2,3.546163082E0,-4.008276939E0,-1.802094579E0
1.023725800E2,4.132703781E0,-1.839183331E0,-2.292922258E0
1.024225800E2,2.452643216E-2,6.601199508E-1,-3.267399311E0
1.024725800E2,-2.960819006E0,-4.302893162E0,8.394320488E0
1.025225800E2,-6.877570629E0,-2.979273605E1,1.402283764E1
1.025725800E2,-4.002295017E0,-3.069692373E0,6.756732941E0
