Time window,Time (s)_acc,Time (s)_gyro,Time (s)_mag,Time (s)_lin_acc,Time (s)_prox,Acceleration x (m/s^2),Acceleration y (m/s^2),Acceleration z (m/s^2),Gyroscope x (rad/s),Gyroscope y (rad/s),Gyroscope z (rad/s),Magnetic field x (µT),Magnetic field y (µT),Magnetic field z (µT),Linear Acceleration x (m/s^2),Linear Acceleration y (m/s^2),Linear Acceleration z (m/s^2),Distance (cm)
0.06,0.07257995,0.067396408,,,,2.176870346,4.746761799,8.090133667,-0.35429140929999997,0.3119902313,-0.39949411149999997,,,,,,,
0.09,,0.118197346,0.11845151300000001,0.11120328300000001,,,,,-0.242506355,0.00381779531,-0.3330644667,-27.48659897,-12.88319969,-36.79520035,-0.2636671066,-0.1508851051,-0.1213226318,
0.12,0.12257995,,,,,1.7219350340000001,4.586442947,8.056633949,,,,,,,,,,
0.15,0.17257995,0.16899916899999998,0.168451513,0.161203283,,2.049751759,4.603192329,7.21406126,-0.2909159958,-0.3710896969,-0.3038965166,-27.34020042,-12.95639992,-36.61219788,0.04607522488,0.02472114563,-0.3657469749,
0.21,0.22257995,0.219801773,0.218451513,0.21120328300000002,,2.629412889,4.653441906,7.726424217000001,-0.5932853818,-0.8362498879000001,-0.5018110275,-27.63299942,-13.00519943,-36.40480042,0.36213397979999995,0.1803202629,-0.5609827042000001,
0.24,,,0.26845151300000003,0.261203283,,,,,,,,-27.98679924,-12.93200016,-35.94120026,0.6236703396,0.1039433479,1.191352844,
0.27,0.27257995,0.270603492,,,,2.634198666,4.253840446,8.29142952,-0.36559209229999995,-0.6381826997,-0.6219952106000001,,,,,,,
0.3,0.32257995,0.321404533,0.318451513,0.311203283,,2.095514536,4.28255415,8.580961227000001,-0.37612921,-0.8867974877,-0.3446705639,-28.37719917,-12.93200016,-35.56299973,-0.8053059578,-0.05199813843,-0.2572412491,
0.36,0.37257995,0.372206408,0.36845151299999995,0.361203283,,1.7386847730000001,3.425325632,9.730113982999999,-0.1264453828,-0.8869501948,0.08964183182,-28.85299873,-12.88319969,-35.07500076,-1.183288932,-0.6620135307,1.5457773209999999,
0.39,,,0.41845198,0.411203283,0.40957031200000005,,,,,,,-29.43859863,-12.82219982,-34.42839813,0.42943859100000004,0.2199149132,0.987786293,5.0
0.42,0.42257995,0.42300948,,,,3.843172312,4.342374802,8.870791435,0.2370087355,-1.221694469,-0.0282516852,,,,,,,
0.44999999999999996,0.47257995,0.473811198,0.46845198,0.46120328299999996,,3.95802784,5.453242779,8.375178337000001,0.5546492934,-1.341725945,0.10124793650000001,-30.13399887,-12.82219982,-33.62319946,-0.08754587173,0.1372213364,0.46662902829999997,
0.51,0.52257995,0.52461224,0.51845198,0.511203283,,4.942076206,4.713262558,7.450950623,-0.2029540092,-0.49402272700000005,0.3016058207,-31.3783989,-12.84659958,-32.14699936,0.9568419456,0.437479496,-0.9155898094,
0.54,,,0.56845198,0.561203283,,,,,,,,-32.80579758,-12.71239948,-30.58539963,-0.39467477799999995,0.371322155,1.058989525,
0.57,0.57257995,0.575414115,,,,3.6705899239999997,3.94965291,8.434998512,-0.0013744062739999999,-0.37063157560000004,0.1437018216,,,,,,,
0.6,0.62257995,0.626216719,0.61845198,0.6112032829999999,,4.221238136,3.8276188369999997,8.561818123,0.9932376145999999,-0.8506048321999999,-0.0827698037,-34.17219925,-12.57819939,-28.91399956,-0.7876040935999999,-0.9563727379000001,0.9765377045,
0.6599999999999999,0.67257995,0.6770185940000001,0.66845198,0.661203283,,6.1845493320000005,5.572884083,5.420640468999999,0.6248967648,-1.7932947869999998,-0.9810206890000001,-35.53860092,-12.68799973,-27.05959892,1.287631035,1.35172224,-1.316309452,
0.69,,,0.71845198,0.711203283,,,,,,,,-36.9416008,-13.0539999,-24.71719933,-0.7609395981,-3.2231373789999997,-4.167588234,
0.72,0.72257995,0.727819584,,,,4.511068821,1.2993026970000001,0.1298106313,-1.7308356759999999,-1.9287502769999998,-0.6430694460999999,,,,,,,
0.75,0.77257995,0.778621459,0.76845198,0.761203283,,5.736792088,-3.620340586,1.542473316,-4.24325037,-2.686964273,-0.07070557028,-38.32019806,-13.40779972,-22.16740036,0.38584995270000005,-6.237886429,-4.577159882,
0.8099999999999999,0.82257995,0.829424115,0.81845198,0.811203283,,8.820542336,-2.499901533,3.984348774,-5.141043186,-3.4833564760000004,-0.07269082217999999,-39.73539734,-13.38339996,-19.52000046,2.097973824,-3.732470989,-1.636354923,
0.84,,,0.86845198,0.8612032829999999,,,,,,,,-41.18719864,-12.99300003,-16.77499962,2.396728992,-3.495386124,1.748897076,
0.87,0.87257995,0.880225886,,,,9.600901604,-0.08913264424,8.339285851,-5.655223846,-2.9685649869999997,-0.39491274950000005,,,,,,,
0.8999999999999999,0.92257995,,0.91845198,0.911203283,,9.945767403,-1.219143152,9.895218848999999,,,,-42.41939926,-12.35859966,-13.99339962,0.5977106094,-2.154622793,6.639476299,
0.9299999999999999,,0.93102698,,,,,,,-4.080307007,-2.506764412,0.2417428046,,,,,,,
0.96,0.97257995,0.981828907,0.96845198,0.961203283,,11.30788136,-0.1345962733,11.92792225,-3.086763859,-1.355775476,0.7476770281999999,-43.67599869,-11.69979954,-10.84579945,1.844649315,0.9250376225,6.661273479,
0.99,,,1.01845198,1.011203283,,,,,,,,-44.98139954,-10.80919933,-7.661599636,1.6569604869999999,2.0450553890000003,12.2318449,
1.02,1.02257995,1.032631511,,,,9.780363083,-0.5488536954,9.416654587,-0.018936265259999998,-1.886143565,1.1538904909999999,,,,,,,
1.05,1.07257995,,1.06845198,1.061203283,,9.22492981,-2.954836845,-3.456432343,,,,-46.31119919,-9.210999488999999,-4.135799885,-1.495543003,-2.543910503,-4.500308037,
1.08,,1.083433334,,,,,,,-1.21848762,-1.355928183,2.346722364,,,,,,,
1.1099999999999999,1.12257995,1.134234531,1.11845198,1.111203283,,11.06142044,-1.987837434,-2.467897415,-2.129108191,-0.6012263894,1.7945165630000002,-47.56779861,-6.673399925,-0.8417999744,1.414013863,1.342369556,-3.11264348,
1.14,,,1.168452083,1.1612032829999999,1.154562447,,,,,,,-48.69020081,-3.733199835,2.342400074,3.351700783,2.9887514110000004,-1.352097154,0.0
1.17,1.17257995,1.185036458,,,,18.05444527,3.7869410510000003,23.24477577,0.4259132445,-0.7252284287999999,0.4564556181,,,,,,,
1.2,1.22257995,,1.218452083,1.211203283,,11.01326561,-3.330809116,1.149751306,,,,-49.5564003,-0.9515999556,5.44119978,3.1384925839999998,2.472351551,1.045018435,
1.23,,1.235839114,,,,,,,0.1435490996,-1.428008199,0.5792359114,,,,,,,
1.26,1.27257995,1.286640937,1.268452083,1.261203283,,8.64556694,-2.57916379,-0.111864455,-0.4285093546,0.6878139973,0.6864396334,-50.05659866,1.6591999530000001,8.45459938,0.7456722259999999,2.409002781,0.5610161424,
1.29,,,1.318452083,1.311203283,,,,,,,,-50.4713974,4.269999981000001,10.91899967,-1.7885828019999999,3.0716962810000004,1.015954971,
1.3199999999999998,1.32257995,1.337442083,,,,6.69451952,-2.550449848,0.2231307179,-0.3329117596,0.7502731681,1.544527292,,,,,,,
1.3499999999999999,1.37257995,,1.3684520830000002,1.361203283,,9.739685059,-5.262714386,-0.03290131316,,,,-50.7276001,7.100399971,12.67579937,1.5849103930000001,0.3146257401,-1.446726441,
1.38,,1.38824401,,,,,,,-0.6074876189,-0.25518143179999997,1.7320574519999998,,,,,,,
1.41,1.42257995,1.4390466659999999,1.418452083,1.411203283,,8.595317841,-5.973980903999999,-0.5787639618,-0.7588250041,-0.4511106908,2.392383337,-50.78860092,10.28460026,14.33500004,0.7675299644,0.26455974579999997,-0.6884436607,
1.44,,,1.468452083,1.4612032830000001,,,,,,,,-50.50799942,13.65180016,15.53059959,-0.21132802960000002,-0.19580078120000002,0.3100597858,
1.47,1.47257995,1.489848593,,,,6.766304016,-6.661019802,0.3188436031,-0.1517955512,-0.4146125913,2.105895996,,,,,,,
1.5,1.52257995,,1.5184520830000001,1.5112032830000002,,4.970789909,-6.38076067,-3.090330362,,,,-49.93460083,16.89699936,16.46999931,-2.355000973,1.392417431,-1.3072683809999999,
1.53,,1.540649635,,,,,,,0.18233790989999998,-0.44759833810000005,2.3079335690000002,,,,,,,
1.56,1.57257995,,1.5684520830000002,1.5612032830000002,,4.791028976000001,-10.53470039,0.7019943595,,,,-48.98299789,20.43499947,17.22640038,0.02668142319,-0.6877708435,1.955088615,
1.5899999999999999,,1.5914516140000001,1.6184520830000002,1.611203283,,,,,0.3997995257,-0.2322746664,2.22974515,-47.66539764,24.29019928,17.72659874,1.001760483,0.8067622185,-0.06826400757000001,
1.6199999999999999,1.62257995,1.6422543219999999,,,,3.8599219319999998,-6.558128834,-0.1887338907,-0.3574983478,-3.329575777,1.9275285009999998,,,,,,,
1.65,1.67257995,,1.668452083,1.661203283,,4.499104977,-5.626722336,-0.5261218548,,,,-45.81100082,28.40159988,18.4951992,1.0065565109999999,2.597677231,1.571866989,
1.68,,1.693056249,,,,,,,0.6659762263,-1.7914623019999998,0.8840487003,,,,,,,
1.71,1.72257995,,1.718452083,1.7112032830000001,,3.8001015189999996,-11.76521015,-5.367101192,,,,-43.45639801,32.48859787,19.6420002,2.09853816,-3.3456554410000003,-2.7908310889999997,
1.74,,1.7438572909999999,1.7684520830000001,1.7612032830000002,,,,,-0.02137965336,1.321720719,1.677539229,-40.90660095,36.46579742,20.72780037,2.01429081,-2.228606224,2.623988152,
1.77,1.77257995,1.79465927,,,,4.795814991,-12.21296692,3.613162279,0.6164975762,-1.122737288,1.251778722,,,,,,,
1.7999999999999998,1.82257995,,1.8184520830000002,1.8112032830000002,,2.93090868,-10.04148006,2.0282163619999998,,,,-37.99079895,40.13800049,21.48419952,1.9971610309999999,0.024072647090000003,2.07525754,
1.8299999999999998,,1.8454619780000001,,,,,,,1.12319541,0.3833066523,1.67799747,,,,,,,
1.8599999999999999,1.87257995,,1.8684520830000002,1.861203283,,0.8670991063,-6.488736629,0.8383852243000001,,,,-34.84320068,43.4197998,21.78919983,0.2614303231,2.258565903,1.899362564,
1.89,,1.896263958,1.918452083,1.911203283,,,,,0.1015533581,2.307170153,2.5128729340000002,-31.46379852,46.43320084,21.61839867,0.3409787714,0.1668376923,0.36326318979999994,
1.92,1.92257995,1.947065051,,,,-1.912463546,-20.68565178,0.8144569993,-0.6693359017,2.044963837,4.375193596,,,,,,,
1.95,1.97257995,,1.968452083,1.9612032830000001,,-3.9017963410000003,-4.096811295,-0.6864410043000001,,,,-27.55979919,48.81219864,21.36219978,1.002010942,0.752951622,-1.8013573880000002,
1.98,,1.997867031,,,,,,,-0.13713520769999998,0.6597150564,-1.391815424,,,,,,,
2.01,2.02257995,,2.018452083,2.011203283,,-2.833999395,-7.731209755,-1.1126625540000001,,,,-24.10719872,50.60559845,21.19140053,-2.444983482,-0.4666280746,-1.7744739059999999,
2.04,,2.048669739,2.068452083,2.061203283,,,,,0.9197832345999999,1.034011722,0.2903051674,-21.27680016,52.04520035,20.14220047,-1.199411631,-0.04177856445,-3.463058233,
2.07,2.07257995,2.099471614,,,,-2.939283609,-9.423832893,-2.21156621,1.4449591640000001,0.36223241689999996,0.2026485801,,,,,,,
2.1,2.12257995,,2.118452083,2.111203283,,-3.28414917,-7.613961697000001,-0.44715872409999996,,,,-18.93440056,53.44820023,18.56839943,-0.8672251701000001,1.759990692,-0.5018907189,
2.13,,2.150272812,,,,,,,2.2671597,0.5893148779999999,0.3976615667,,,,,,,
2.16,2.17257995,,2.168452083,2.1612032830000003,,-1.689631939,-7.84845829,1.491924882,,,,-16.64080048,54.68040085,16.45779991,0.4370653629,2.009701729,0.7525585890000001,
2.19,,2.201074791,2.2184520830000003,2.211203283,,,,,2.262883663,0.052838288250000004,0.3657447994,-14.57899952,55.65639877,13.7737999,1.6932376619999998,1.363663673,0.01717495918,
2.2199999999999998,2.22257995,,,,,-0.4064807594,-6.431009769,2.559721947,,,,,,,,,,
2.25,2.27257995,2.2518775509999998,2.268452083,2.261203283,,-2.312064886,-6.790232658,2.832803011,1.130678296,0.3628432751,-0.2186833173,-12.90759945,56.31520081,10.83360004,-0.4992747307,1.937524796,-0.2957553864,
2.28,,2.302679531,,,,,,,0.7762341499,0.26083177329999996,-0.2309002578,,,,,,,
2.31,2.32257995,,2.318452083,2.311203283,,-0.8805587292,-7.0369920729999995,4.087240219,,,,-11.69979954,56.64459991,7.905600071,1.3224674459999999,2.1161823269999998,0.6184642315,
2.34,,2.353480624,2.368452083,2.361203283,,,,,0.3894151151,0.9552124143,-0.38834613560000003,-11.4435997,56.83979797,4.8800001139999996,2.41053009,1.52830267,3.169917822,
2.37,2.37257995,,,,,0.09391828626,-7.91306448,7.302595615,,,,,,,,,,
2.4,2.42257995,2.404282656,2.418452083,2.4112032830000003,,-0.7295117973999999,-12.1794672,7.891529082999999,0.5714476109000001,1.4861913919999998,-0.5195255876,-11.16300011,57.03499985,1.512799978,1.994068146,-2.6884250639999996,5.589366912999999,
2.4299999999999997,,2.4550854159999997,,,,,,,0.5523586273,0.8887827396,-0.6572716236,,,,,,,
2.46,2.47257995,,2.4684520830000003,2.461203283,,-2.467897415,-4.558925152,4.297808647,,,,-10.96780014,57.05939865,-1.79339993,-0.20634984969999998,2.686261177,2.75477457,
2.4899999999999998,,2.505887343,2.518452083,2.511203283,,,,,-0.7082774043000001,-0.7947123051,-0.4708105326,-10.94339943,56.96179962,-4.806799889,-4.959149361000001,-3.600518227,-5.563037872000001,
2.52,2.52257995,,,,,-9.547062874,-16.55833244,-4.021437645,,,,,,,,,,
2.55,2.57257995,2.5566885409999998,2.568452083,2.561203283,,-4.234697819,-4.9277191160000005,-1.174875975,-0.144618094,-1.044090629,0.1304158866,-11.22399998,56.79100037,-6.770999907999999,-4.168094635,-2.044970512,-0.5470604897,
2.58,,2.6074905719999997,,,,,,,-2.57823348,-0.9040539265,0.2095206082,,,,,,,
2.61,2.62257995,,2.618452083,2.611203283,,0.1441675574,-8.384749413,-9.927821159,,,,-11.65100002,56.6201973,-7.5883998870000005,1.839650869,2.600457191,-11.45662308,
2.6399999999999997,,2.658293333,2.668452083,2.6612032830000003,,,,,-1.830098391,-1.486344099,0.885728538,-12.07800007,56.63240051,-6.807600021,2.140623569,-5.865226746,1.459775448,
2.67,2.67257995,,,,,2.136192322,-15.99571991,4.637888432,,,,,,,,,,
2.6999999999999997,2.72257995,2.709095364,2.7184520830000003,2.711203283,,0.02931207791,-6.450152397,-0.6672984362,-2.417275429,1.271936655,-0.6861341595999999,-12.52939987,56.63240051,-5.026400089,4.215115547,0.8767681122,-2.229577303,
2.73,,2.75989651,,,,,,,-1.546970725,-0.9155073166,-0.7304205894,,,,,,,
2.76,2.77257995,,2.768452083,2.761203283,,-3.4875390530000003,-6.62991333,0.290129751,,,,-13.23699951,56.55920029,-2.42779994,-1.9650090930000002,3.6201057430000003,0.6458123922,
2.79,,2.8106985410000003,2.818452083,2.811203283,,,,,-1.586064935,-1.209935665,0.060321167110000004,-13.93239975,56.35179901,1.000399947,-2.157938957,0.1734857559,0.6667000651,
2.82,2.82257995,,,,,-3.260220766,-9.655936241000001,0.24945175649999998,,,,,,,,,,
2.85,2.87257995,2.861501353,2.868452083,2.861203283,,-1.24666059,-8.188538551,-1.241874933,-1.112963676,-1.841857195,0.605502367,-14.33500004,56.10779953,5.014199734,0.5139693022,0.7567358017,0.38214325899999996,
2.9099999999999997,2.92257995,2.9123032810000002,2.918452083,2.9112032830000003,,-0.8135597109999999,-11.66949654,0.5799604058,-1.73114109,0.251210928,0.8606837987999999,-14.29839993,55.65639877,9.479399681,0.8904771805,-1.258049011,2.234462261,
2.94,,2.9631045310000004,2.9684520830000003,2.961203283,,,,,-0.6313106418,-0.8942803740999999,0.3118375242,-13.93239975,54.97319794,14.16419983,5.747251987,-3.378211975,5.008999825,
2.9699999999999998,2.97257995,,,,,3.294916868,-12.78515053,2.212762833,,,,,,,,,,
3.0,3.02257995,3.0139066139999997,3.018452083,3.011203283,,-0.8949156404,-14.04915905,5.504688262999999,0.05619794875,-0.18417045469999999,-0.4518742561,-13.51760006,54.21680069,18.64159966,2.4052402969999997,-4.698326111,5.878823757,
3.06,3.07257995,3.0647093739999995,3.068452083,3.061203283,,-1.3139587640000001,-13.51765347,1.262213945,2.3459589480000003,-0.2075353563,-0.6056550741,-13.26139927,53.3993988,21.72819901,0.38591337200000003,-3.972509384,5.1656413080000005,
3.09,,3.115511353,3.118452083,3.111203283,,,,,3.8698701860000004,-0.5375455618,-0.9513946176000001,-13.07839966,53.03339767,23.33860016,-2.5500164030000003,-6.723989487000001,-1.268162966,
3.12,3.12257995,,,,,-5.196911812,-17.70269966,-6.549753666,,,,,,,,,,
3.15,3.17257995,3.166312603,3.168452083,3.1612032830000003,,-6.889534472999999,-13.52961731,3.9675991539999997,3.1376168730000003,0.7815790772,-0.2811424434,-12.68799973,53.0943985,22.94820023,-6.2554464339999996,-5.259680748,-2.91772747,
3.21,3.22257995,3.217114687,3.2184520830000003,3.211203283,,-3.6529428960000003,-9.584152222,-2.154138565,2.647259235,-0.1383569092,-0.06016845629,-12.24879932,53.3871994,20.97179985,-2.902347326,-1.421695709,-4.980844021,
3.2399999999999998,,3.2679174989999997,3.268452083,3.261203283,,,,,3.009949923,0.5323534012,-0.37887802719999997,-11.96819973,53.75320053,17.79979897,0.9121431112,2.254349232,-6.130383015,
3.27,3.27257995,,,,,1.063609719,-5.892325877999999,-0.3394817114,,,,,,,,,,
3.3,3.32257995,3.318719531,3.318452083,3.311203283,,2.198405743,-2.839981318,0.8335995674,2.63397336,1.916380525,-0.6511631608,-11.94379997,54.13139725,13.17599964,2.927292347,5.069611073,-7.426558495,
3.36,3.37257995,3.369520728,3.368452083,3.361203283,,-1.265803218,-1.7099708319999998,-1.586740494,1.09555459,2.9667325019999997,-0.7638645172,-11.96819973,54.44860077,7.258999825,1.2059839959999998,5.699565887,-6.888664722000001,
3.3899999999999997,,,3.418452083,3.4112032830000003,,,,,,,,-11.87059975,54.66819763,0.8661999702,-0.6973977089,5.687110424,-6.039940833999999,
3.42,3.42257995,3.4203228119999998,,,,-3.224328518,-2.332403898,0.7689933777,-1.127624035,2.088944912,-0.8075400590999999,,,,,,,
3.4499999999999997,3.47257995,3.471125624,3.4684520830000003,3.461203283,,-7.990831375,-11.47537899,11.91117191,-1.584079623,-0.21150586010000003,-0.8108997345000001,-11.74860001,54.94879913,-4.843400002,-1.339059353,2.122739792,7.421525002,
3.51,3.52257995,3.521927708,3.518452083,3.511203283,,-2.350350142,-12.7444725,9.169894218,0.9252808690000001,1.4747380019999998,-0.19654010239999997,-11.77299976,54.94879913,-9.418399811,-3.205702543,-12.97022247,7.896899222999999,
3.54,,,3.568452083,3.561203283,,,,,,,,-11.5777998,54.52179718,-13.04179955,1.096826911,6.763746262000001,-0.6542978287,
3.57,3.57257995,3.572728906,,,,-2.249851465,-4.85593462,1.362712502,-0.02748812735,-0.01847812906,-0.342685312,,,,,,,
3.5999999999999996,3.62257995,3.623530989,3.618452083,3.611203283,,-6.178566933,-13.71147156,-3.7127635480000003,-1.12212646,-1.44877696,0.2231119573,-11.50459957,54.04599762,-15.55499935,-5.538088799,-8.472766876,-9.807899475,
3.6599999999999997,3.67257995,3.6743338530000003,3.668452083,3.6612032830000003,,-1.052842021,-7.67138958,-4.699204445,-2.83188796,-1.719229579,-0.1369825006,-11.67539978,53.80199814,-16.7262001,0.6628898382,2.398353577,-9.441389083999999,
3.69,,,3.7184520830000003,3.711203283,,,,,,,,-12.07800007,53.94839859,-15.95759964,0.4549181461,-2.480667114,-5.867803574,
3.7199999999999998,3.72257995,3.725135833,,,,-1.790130496,-12.48335552,1.161715388,-2.91114521,-1.8696507219999998,0.293970257,,,,,,,
3.75,3.77257995,3.775937135,3.768452083,3.761203283,,1.3076776270000001,-9.201001167000001,-0.4543372095,-2.1306352619999998,0.03359659761,-0.20096874239999998,-12.70020008,54.42419815,-13.17599964,2.74578619,-1.250393867,-0.2552095056,
3.81,3.82257995,3.82673927,3.818452083,3.811203283,,-1.4479568,-6.375975132000001,-0.2102692872,-1.8514781,-1.4573287959999999,-0.5372401475999999,-13.65180016,54.93659973,-9.394000053,0.8297860622,2.916941643,-0.1312226951,
3.84,,,3.868452083,3.861203283,,,,,,,,-14.62779999,55.16839981,-5.343599796,0.1042209864,1.8377017969999998,1.5945403580000002,
3.8699999999999997,3.87257995,3.8775420830000003,,,,-1.4479568,-8.138288498,1.30289197,-1.445417285,-2.364284277,0.046118967239999996,,,,,,,
3.9,3.92257995,3.9283441139999997,3.918452083,3.9112032830000003,,-1.402493119,-8.461319923,-1.4192429780000002,-1.371046662,-1.58682847,0.6525375843,-15.18900013,55.14399719,-0.8417999744,0.1392104626,0.7780799866,-0.2242757082,
3.96,3.97257995,3.979145416,3.9684520830000003,3.961203283,,-0.3873381615,-10.13001442,2.222334146,-1.88690722,0.009315420873,0.9623898268000001,-15.60379982,55.08300018,4.428599834,1.243184805,0.46869277950000005,3.398611784,
3.9899999999999998,,,4.018452083000001,4.011203283,,,,,,,,-15.62819958,54.72919846,10.06499958,4.420783043,-3.1396903989999996,5.507692337000001,
4.02,4.02257995,4.029947551,,,,3.2183463569999997,-11.90160084,2.095514536,-0.4813476503,-0.8651124239,0.39918869729999995,,,,,,,
4.05,4.07257995,,4.068452083,4.061203283,,0.3837489188,-14.38923931,3.4983067510000003,,,,-15.23779964,54.14360046,15.32319927,4.56125164,-5.390641212,3.3074450489999996,
4.08,,4.080750416,,,,,,,-0.24892026190000002,0.21929416059999998,-0.6219952106000001,,,,,,,
4.109999999999999,4.12257995,4.131552499,4.118452083,4.111203283,,-3.12383008,-14.29801273,5.006682396,2.963220119,-0.0818535313,-0.5398362875,-14.78639984,53.35059738,19.61759949,-1.221135378,-3.6536560060000003,7.575497627000001,
4.14,,,4.168452083,4.161203283,,,,,,,,-14.29839993,52.87479782,21.88679886,-0.5712448359000001,-7.06521225,0.6764389276999999,
4.17,4.17257995,4.182353749,,,,-3.1070802210000004,-17.58515358,-6.360720634,4.010670185,-0.4779879749,-0.8235748409999999,,,,,,,
4.2,4.22257995,,4.218452083,4.211203283,,-6.365506648999999,-14.5758791,2.7538397310000002,,,,-13.79819965,52.85039902,22.2894001,-5.424922466,-6.804784775,-5.266542912,
4.2299999999999995,,4.233155885,,,,,,,3.231381893,1.616607308,-0.2402156889,,,,,,,
4.26,4.27257995,4.283958749,4.268452083000001,4.261203283,,-3.631407499,-11.15713406,-3.43011117,2.647717476,-0.6734591126,-0.2461714447,-13.22480011,53.14319992,20.8253994,-2.7636551860000003,-3.47416687,-4.79358387,
4.29,,,4.318452083,4.311203283,,,,,,,,-6.173199653999999,46.76259995,14.04220009,-1.892806649,1.7466640469999999,-5.978461266,
4.32,4.32257995,4.334760885,,,,-1.615454435,-5.533402443,-1.081555843,3.4027247430000003,0.9588775039,-0.1995943487,,,,,,,
4.35,4.37257995,,4.368452083,4.361203283,,3.223132133,-3.333201885,-1.67288208,,,,-5.929199696,47.05540085,9.467200279,3.900104046,4.40681982,-8.3564291,
4.38,,4.385562135,,,,,,,2.024653196,2.181335449,-0.7621846795,,,,,,,
4.41,4.42257995,4.43636427,4.418452083,4.411203283,,-1.0695917609999999,-0.5751747489,-1.689631939,0.449278146,2.7343051430000003,-0.651468575,-5.868199825,47.31159973,3.5745999810000004,1.497497082,6.0948224070000006,-7.071603775,
4.4399999999999995,,,4.468452083,4.461203283,,,,,,,,-5.831599712,47.59219742,-2.671799898,0.45617687700000004,7.635913849,-6.072606564,
4.47,4.47257995,4.487167187,,,,-1.687239051,-0.44835513829999996,0.8001000881,-1.991667509,1.743663549,-1.088682532,,,,,,,
4.5,4.52257995,,4.518452083000001,4.511203283,,-9.492028236,-16.46949959,12.46421337,,,,-5.795000076,48.18999863,-8.344799995,-0.9691863059999999,2.16238308,8.233743667999999,
4.53,,4.5379693219999995,,,,,,,-0.2397575527,1.1247224809999998,-0.2415900975,,,,,,,
4.56,4.57257995,4.588770572,4.568452083,4.561203283,,-1.6920247080000002,-9.550652504,7.673482895,1.0925003290000002,1.337144613,-0.5722111464,-5.709599972,48.27539825,-13.2003994,-0.3851144314,-9.002006531000001,5.249066353,
4.59,,,4.618452083,4.611203283,,,,,,,,-5.343599796,47.89719772,-17.3239994,-3.430976868,1.216148376,1.509977341,
4.62,4.62257995,4.63957276,,,,-5.553741455,-13.16082382,5.722435474,-0.2695363462,-0.9579612017,0.02855710872,,,,,,,
4.6499999999999995,4.67257995,,4.668452083,4.661203283,,-3.195614576,-3.979563236,-8.599205971,,,,-5.0507998469999995,47.37260056,-20.05679893,-2.554599047,-0.1948680878,-11.73658943,
4.68,,4.690375676,,,,,,,-2.231577635,-1.518566251,0.3037438095,,,,,,,
4.71,4.72257995,,4.718452083,4.711203283,,1.228714466,-11.59053421,-8.553443909,,,,-6.136600017999999,46.9090004,-21.4109993,1.297275305,-0.7668132781999999,-10.60305023,
4.74,,4.741177812,4.768452083000001,4.761203283,,,,,-3.2849838730000003,-2.313584089,0.6392516494,-6.258599758,47.14080048,-20.27639961,2.883542538,-4.62498188,0.8149931431,
4.77,4.77257995,4.791979062,,,,2.176870346,-12.51924801,4.750350952,-2.462325335,0.654217422,-0.269230932,,,,,,,
4.8,4.82257995,,4.818452083,4.811203283,,-0.4399802685,-7.645068169,0.3020938635,,,,-6.587999821,47.71419907,-17.53139877,3.445813417,0.42678260799999995,-0.7623434662999999,
4.83,,4.8427813010000005,,,,,,,-2.044963837,-0.9278770089,-0.8640434742,,,,,,,
4.859999999999999,4.87257995,,4.868452083,4.861203283,,-3.061616659,-5.938088417,1.188036442,,,,-7.368799686,48.3973999,-13.79819965,-1.757253766,3.462597847,0.45347419380000004,
4.89,,4.893584218,4.918452083,4.911203283,,,,,-1.7372496130000001,-1.759850979,-0.2174616307,-8.149600029,48.58039856,-9.760000229,0.06870996952000001,1.905739784,2.14911294,
4.92,4.92257995,4.9443863530000005,,,,-0.7510471940000001,-8.358428955,1.247856975,-1.254680276,-1.62592268,0.3939964771,,,,,,,
4.95,4.97257995,,4.968452083,4.961203283,,-0.6146563292,-8.820542336,-2.292922258,,,,-8.722999573,48.66579819,-5.380199909,1.442073584,1.001048088,-0.35375577210000003,
4.9799999999999995,,4.995187656000001,,,,,,,-1.714190125,-0.7571451664,0.814412117,,,,,,,
5.01,5.02257995,,5.018452083000001,5.011203283,,-1.4982060190000002,-10.97767162,1.930110574,,,,-9.149999618999999,48.66579819,0.07320000231000001,0.5651845932,-0.9585762024,2.703809738,
5.04,,5.045989843,5.068452083,5.061203283,,,,,-1.930735469,0.23563432690000002,0.7930324674,-9.284199715,48.44619751,5.880399703999999,3.521980762,-2.128744125,7.111154556000001,
5.069999999999999,5.07257995,5.0967928119999995,,,,2.82083869,-11.42273712,3.7423746589999998,-0.11880978939999999,-1.3582189080000002,-0.007788302377,,,,,,,
5.1,5.12257995,,5.118452083,5.111203283,,0.2255235314,-15.06431389,5.813362597999999,,,,-8.918199539,47.51899719,11.34599972,4.712088585,-6.482768059,5.467450142000001,
5.13,,5.147594947,,,,,,,1.4637427330000001,0.4054498672,-0.6245913506,,,,,,,
5.16,5.17257995,,5.168452083,5.161203283,,-0.6218347549000001,-15.90449429,1.8367904419999999,,,,-8.62539959,46.83580017,15.17679977,2.022532225,-6.49768734,4.428880692,
5.1899999999999995,,5.198396249,5.218452083,5.211203283,,,,,3.8701756,0.06688777357,-1.031720996,-8.45459938,46.45759964,17.28739929,-4.1811494830000004,-6.690200806,-4.140837193,
5.22,5.22257995,5.249198488999999,,,,-5.726024627999999,-17.88933945,-9.17856884,3.6635563369999997,-0.4769189954,-0.3860554695,,,,,,,
5.25,5.27257995,,5.268452083000001,5.261203283,,-5.453242779,-14.62373543,4.285844326,,,,-8.088600159,46.44540024,17.28739929,-5.474546909,-5.049545288,0.34770166869999997,
5.279999999999999,,5.300001406,,,,,,,2.7318615910000004,1.078145385,-0.08460234851,,,,,,,
5.31,5.32257995,,5.318452083,5.311203283,,-0.4734797776,-9.493225098,-3.7606198789999996,,,,-7.661599636,46.54299927,15.40859985,-0.3708637953,-1.676206589,-5.76871109,
5.34,,5.350803593,5.368452083,5.361203283,,,,,2.880297422,-0.6071822047,-0.5554128885,-7.405399799,46.78699875,12.38299942,-0.07472670078,2.93174696,-4.3769412039999995,
5.37,5.37257995,,,,,0.4148556292,-4.954040051000001,-0.2509472668,,,,,,,,,,
5.3999999999999995,5.42257995,5.401604947,5.418452082999999,5.411203283,,1.98514545,-2.732304335,-0.9475577474,2.929165363,2.2741842269999997,-0.7120952009999999,-7.405399799,46.9455986,7.673799992,4.259495735,4.911390305,-7.636196136000001,
5.43,,5.452407135,,,,,,,1.4612993,3.14815402,-0.8310576677,,,,,,,
5.46,5.47257995,,5.468452083,5.461203283,,-0.9260223508,-0.1489532143,-2.623430967,,,,-7.46639967,47.01879883,1.585999966,1.231461763,7.007527351,-7.8443078989999995,
5.49,,5.503210103,5.518452083,5.5112032829999995,,,,,-0.990183413,2.558228254,-1.146560311,-8.052000046,46.29899979,-4.916599751000001,0.8359932899,7.328325747999999,-4.781204224,
5.52,5.52257995,,,,,-1.747059584,-1.336391449,4.59242487,,,,,,,,,,
5.55,5.57257995,5.554012291,5.5684520829999995,5.561203282999999,,-10.72492981,-27.88236618,19.91217232,-1.6195087430000001,0.8025006056,-0.9474241137999999,-8.149600029,46.48199844,-10.65059948,-6.965302467000001,-6.651557922,6.695490837,
5.58,,5.604813645,,,,,,,0.9833113551,1.921878219,-0.1936385781,,,,,,,
5.609999999999999,5.62257995,,5.618452082999999,5.611203282999999,,-1.711167336,-3.366701365,6.0792651179999995,,,,-7.990999699,46.27460098,-15.56719971,1.0413217540000002,0.5724439621,4.218696594,
5.64,,5.655615885,5.668452082999999,5.661203283,,,,,-0.10369132460000001,-0.4188885093,-0.3637595475,-7.710399627999999,45.68899918,-19.32480049,-4.440725803,-4.124462128,-2.607428074,
5.67,5.67257995,,,,,-7.1793651579999995,-17.44397545,-4.48833704,,,,,,,,,,
5.7,5.72257995,5.706418853,5.718452083,5.711203283,,-2.621038198,-4.77697134,-6.616752625,-0.8898517489,-1.433963895,0.3403946459,-7.698199749,45.12779999,-21.83799934,-1.5310084819999998,-0.02097415924,-12.17989349,
5.7299999999999995,,5.757221041,,,,,,,-3.716700077,-2.326411724,0.22876229879999999,,,,,,,
5.76,5.77257995,,5.768452083,5.7612032829999995,,0.012562318710000001,-11.39880848,-7.629515171,,,,-7.771399975,44.95700073,-22.59440041,2.985677719,-0.4459619522,-12.01898289,
5.79,,5.808022395,5.8184520829999995,5.811203282999999,,,,,-2.748354435,-0.5613686442,0.3208475113,-7.966599941,45.29859924,-21.17919922,2.666871071,-4.452480316,3.579030037,
5.819999999999999,5.82257995,,,,,2.562114954,-12.50010586,3.1079776289999996,,,,,,,,,,
5.85,5.87257995,5.858824635,5.868452082999999,5.861203282999999,,-0.0185443759,-6.0026946070000005,1.3076776270000001,-2.499434233,-0.2031067163,-0.8261709212999999,-9.125599861,46.34779739,-18.23900032,3.311389923,2.048041344,0.10052281619999999,
5.88,,5.9096276560000005,,,,,,,-2.0267910959999997,-1.909355879,-0.6128324866,,,,,,,
5.91,5.92257995,,5.918452082999999,5.911203283,,-2.101496458,-6.294619083,0.1776670814,,,,-10.07719994,46.9090004,-13.98119926,-1.555936575,3.7657556530000003,1.02246058,
5.9399999999999995,,5.960429842999999,5.968452083,5.961203283,,,,,-1.526507258,-2.237991571,0.4283566475,-10.87020016,47.11639786,-9.503799438,-0.7227338552,1.521351814,0.2054789066,
5.97,5.97257995,,,,,-2.4173491,-8.739186287,-1.7159529919999998,,,,,,,,,,
6.0,6.02257995,6.011231197000001,6.018452083,6.0112032829999995,,-0.595513761,-9.718150139,2.679662228,-1.950893402,-0.5740436912,1.04821384,-11.37039948,47.20179749,-4.209000111,0.3279678822,0.14876937869999998,2.5499720569999997,
6.06,6.07257995,6.062033437,6.0684520829999995,6.061203282999999,,4.001098633,-12.78275776,2.279761791,-1.22994101,-0.5473191738000001,0.8655705452,-11.65100002,47.2262001,1.768999934,5.093290328999999,-3.6509723660000004,6.022103786000001,
6.09,,6.112836457999999,6.118452082999999,6.111203282999999,,,,,-0.2996205688,-0.5558710097999999,-0.3810159862,-11.46799946,46.77479935,7.625,5.285065651,-5.663453102,3.175804138,
6.12,6.12257995,,,,,0.8766704202,-14.02762318,2.586043119,,,,,,,,,,
6.1499999999999995,6.17257995,6.163638593,6.168452082999999,6.161203283,,-1.981855392,-14.17119312,3.287738323,1.470614791,0.06887302547999999,-0.7085828184999999,-11.16300011,46.29899979,12.52939987,-0.1339702606,-5.513316154,7.430567741,
6.21,6.22257995,6.214440051,6.218452083,6.211203283,,-4.8858447069999995,-16.51974869,-5.175376415,3.830317736,0.1863084137,-0.9791881442,-10.95559978,45.88419724,15.65259933,-2.154809952,-6.272624016,1.5811293130000001,
6.24,,6.265242291,6.268452083,6.2612032829999995,,,,,3.572234869,0.14263284210000002,-0.2252499312,-10.72379971,45.81100082,16.55539894,-6.358042717000001,-6.443779945,-3.7895371910000004,
6.27,6.27257995,,,,,-8.208877563,-14.35813236,2.492722988,,,,,,,,,,
6.3,6.32257995,6.316045312000001,6.3184520829999995,6.311203282999999,,-3.913760424,-9.74447155,-3.274577856,2.9076330660000003,0.1998997629,0.1805053651,-10.29679966,46.01839828,15.56719971,-4.10748148,-3.254722595,-3.8298313619999997,
6.359999999999999,6.37257995,6.366847551,6.368452082999999,6.361203282999999,,-0.04725824669,-5.6315078739999995,-1.306780219,2.8117299080000002,-0.4445441067,-0.1450762302,-9.735599517999999,46.29899979,12.84659958,-0.2690166235,2.646947384,-5.756341934,
6.39,,6.417648906,6.418452082999999,6.411203283,,,,,2.594115496,1.601183414,-0.6450546979999999,-9.442799568,46.56739807,8.479000092,4.523655891000001,3.8236370089999996,-7.208117485,
6.42,6.42257995,,,,,3.7040894030000002,-4.068097591,-1.3618152140000002,,,,,,,,,,
6.45,6.47257995,6.468451197,6.468452083,6.461203283,,-0.2653042078,-0.8407780528000001,-2.029711723,1.182142138,3.211529493,-0.7937960029000001,-9.284199715,46.68939972,2.842599869,2.231058836,5.989866257,-6.309151172999999,
6.51,6.52257995,6.5192542179999995,6.518452083,6.5112032829999995,,-1.455135226,-1.027717352,-0.38015970590000003,-1.108687758,2.558228254,-1.163663983,-9.137800217,47.32379913,-3.537999868,0.9135026931999999,7.045117378,-6.3657345770000004,
6.54,,,6.5684520829999995,6.561203282999999,,,,,,,,-9.003600121,47.59219742,-9.418399811,-2.423126936,1.32273674,7.828646182999999,
6.569999999999999,6.57257995,6.570056458,,,,-9.025128365,-14.29083443,15.13609886,-1.189472318,0.6972821355,-1.050504565,,,,,,,
6.6,6.62257995,6.620857812000001,6.618452082999999,6.611203282999999,,-2.668894529,-10.75723362,8.312965392999999,1.0395092959999999,1.586370349,-0.2819060087,-8.857199669,47.59219742,-14.3593998,-2.977644205,-13.35097504,7.5873427389999994,
6.66,6.67257995,6.671660103,6.668452082999999,6.661203283,,-8.125128746,-9.268299103,2.911766052,0.5679352283,-0.338409394,-0.1288887709,-8.466799736,47.12859726,-18.50740051,-5.963524818,1.4553756709999999,-1.366331577,
6.6899999999999995,,,6.718452083,6.711203283,,,,,,,,-8.210599899,46.44540024,-21.59399986,-2.823698282,-2.703142166,-11.94295597,
6.72,6.72257995,6.722463124,,,,-3.832404613,-8.322536469,-8.982057571,-1.310267329,-1.65768671,0.5176930428000001,,,,,,,
6.75,6.77257995,6.773265416,6.768452083,6.7612032829999995,,1.439282775,-11.52592754,-7.490731239,-3.80512023,-2.790044785,0.3970507085,-8.198399543999999,46.15259933,-22.875,0.94181633,-0.9782285690000001,-10.09705639,
6.81,6.82257995,6.82406677,6.8184520829999995,6.811203282999999,,0.7785646915000001,-13.83619785,3.984348774,-3.0956211089999996,-0.6146650314000001,0.029167955739999994,-8.442399979,46.38439941,-21.9965992,1.9491391180000002,-4.731002808,1.014172792,
6.84,,,6.868452082999999,6.861203282999999,,,,,,,,-9.113399506,47.00659943,-19.19059944,3.361160755,0.5615186690999999,-1.3615117069999998,
6.87,6.87257995,6.874869062,,,,0.646959424,-7.259524822,-0.1381855011,-2.580066204,-0.8128849864,-0.8545753359999999,,,,,,,
6.8999999999999995,6.92257995,6.925672135,6.918452082999999,6.911203283,,-2.05124712,-6.246762753,0.3188436031,-1.95669651,-2.292815208,-0.5305208564,-10.22359943,47.51899719,-15.14019966,-1.3138703109999998,3.643688202,0.7288848162,
6.96,6.97257995,6.9764743739999995,6.968452083,6.961203283,,-2.132603168,-7.544270515,-0.42801615600000004,-1.46389544,-2.948865175,0.35016819829999996,-11.26060009,47.71419907,-10.43099976,-1.159320712,2.3494844440000002,0.7999261618000001,
6.989999999999999,,,7.018452083,7.0112032829999995,,,,,,,,-11.84619999,47.66539764,-5.392399788,1.28921926,1.5594806669999999,1.6359014509999998,
7.02,7.02257995,7.027275781,,,,0.4148556292,-8.322536469,1.542473316,-1.5833160880000001,-0.42698222399999997,0.883590579,,,,,,,
7.05,7.07257995,7.078078072,7.0684520829999995,7.061203282999999,,2.48793745,-14.38684654,2.461616278,-1.388608575,-0.06368082762,0.9026795626,-12.23659992,47.59219742,0.5978000164,3.445664883,-4.047870636,3.9610884189999997,
7.109999999999999,7.12257995,7.1288810929999995,7.118452082999999,7.111203282999999,,3.079263687,-12.61735344,2.48793745,-0.30068957809999997,-0.5021164417,-0.020310672,-12.49279976,47.44580078,6.966199875,6.054832458,-2.957432747,5.816611767,
7.14,,,7.168452082999999,7.161203283,,,,,,,,-12.37080002,46.89680099,12.56599998,0.1161711216,-6.419314384,5.8452630039999995,
7.17,7.17257995,7.179683281,,,,-3.5787653919999998,-15.15045547,5.425426006,1.305991411,0.3263451457,-0.6426113247999999,,,,,,,
7.199999999999999,7.22257995,,7.218452083,7.211203283,,-2.566003084,-16.08904076,1.7530417440000001,,,,-12.18779945,46.21360016,16.49440002,-0.6477053165,-5.654697418,4.69485569,
7.2299999999999995,,7.230484791,,,,,,,4.1823186869999995,-0.16477604210000002,-0.7857022881999999,,,,,,,
7.26,7.27257995,7.281287083,7.268452083,7.2612032829999995,,-5.678168297000001,-16.96511269,-6.298208237000001,3.8629980089999996,-0.3057290614,-0.1921114624,-11.91940022,46.03059769,17.97060013,-3.4290981289999998,-7.8685102460000005,-8.611915587999999,
7.29,,,7.3184520829999995,7.311203282999999,,,,,,,,-11.32159996,46.21360016,17.16539955,-3.53541851,-4.924572945,1.1454589370000001,
7.319999999999999,7.32257995,7.332090103,,,,-4.768596649,-13.49611759,0.54167521,2.945810795,1.232995152,0.1580567211,,,,,,,
7.35,7.37257995,,7.368452082999999,7.361203282999999,,-2.520539522,-7.6426754,-1.287637711,,,,-10.56519985,46.54299927,14.55459976,0.5068368912,0.2197675705,-5.371537685,
7.38,,7.382892395,,,,,,,3.373404026,-0.1568350345,0.035734564069999995,,,,,,,
7.41,7.42257995,7.433693801,7.418452082999999,7.411203283,,2.480758905,-4.8224349019999995,-3.526123285,2.775079012,1.664558768,-0.7090409398,-10.01620007,46.9333992,10.46759987,3.334424973,2.995902538,-8.620100021,
7.4399999999999995,,,7.468452083,7.461203283,,,,,,,,-9.637999535,47.10419846,4.745800018,2.9751873019999997,5.066977024,-6.396328448999999,
7.47,7.47257995,7.484496093,,,,-0.47826543450000003,-1.532902002,-1.558026671,1.359135151,2.99605298,-0.9318475127,,,,,,,
7.5,7.52257995,,7.518452083,7.5112032829999995,,-1.898106575,0.5787639618,-1.1006984709999998,,,,-9.821000098999999,46.88459778,-1.7445999380000001,0.9344441890999999,8.579966545,-8.086280823,
7.529999999999999,,7.535299166000001,,,,,,,-1.406933904,1.990140319,-1.3058387040000001,,,,,,,
7.56,7.57257995,7.586101406,7.5684520829999995,7.561203282999999,,-4.361517429,-6.503093719,11.0443716,-1.639514089,0.4220954478,-0.8481613994,-9.576999664,47.11639786,-8.149600029,0.0014629364009999999,4.530443668,3.004775524,
7.59,,,7.618452082999999,7.611203282999999,,,,,,,,-9.430600166,47.33599854,-13.52979946,-7.810818195,-22.83589363,13.04191017,
7.62,7.62257995,7.636902864,,,,-3.923331738,-20.43410683,12.2919302,1.247044683,2.004342556,-0.3290939629,,,,,,,
7.6499999999999995,7.67257995,,7.668452082999999,7.661203283,,-4.023830414,-7.843672752000001,4.099204063,,,,-9.003600121,46.9455986,-18.15359879,0.8174228668000001,5.396330357,-0.2188677788,
7.68,,7.687705156,,,,,,,-0.1708845198,-0.8525900840999999,-0.2229592502,,,,,,,
7.71,7.72257995,7.738508228,7.718452083,7.711203283,,-5.572884083,-10.15155029,-5.498706341,-1.4350329640000001,-1.5866757630000001,0.11163233970000001,-8.466799736,46.48199844,-21.37439919,-5.0748310089999995,-6.535506248,-11.58913708,
7.739999999999999,,,7.768452083,7.7612032829999995,,,,,,,,-8.576600075,46.0428009,-22.98480034,-1.863667965,2.9243345260000004,-7.258916855,
7.77,7.77257995,7.789310416,,,,-1.091127157,-7.3648090360000005,-6.942475796,-4.177584171,-2.568154573,0.37521293759999996,,,,,,,
7.8,7.82257995,,7.8184520829999995,7.811203282999999,,0.6254240274,-13.72582912,5.310570717,,,,-8.967000008,46.07939911,-22.46019936,0.770624876,-4.140426636,-4.567878723,
7.83,,7.8401119260000005,,,,,,,-2.148349762,0.10567657650000001,0.4333961308,,,,,,,
7.859999999999999,7.87257995,,7.868452082999999,7.861203282999999,,3.2973096369999997,-8.430212975,0.07956135272999999,,,,-9.467200279,46.57959747,-19.82499886,5.401754379,-0.7316789627,0.8594807386,
7.89,,7.89091427,7.918452082999999,7.911203283,,,,,-2.048323631,-0.30527091030000003,-0.7756233215,-10.18700027,47.09199905,-16.00639915,1.0910274979999999,4.171664715,-1.104778647,
7.92,7.92257995,7.941717291000001,,,,-1.835594058,-5.533402443,-0.004187439568,-1.88064599,-1.7305302619999998,-0.6763606070999999,,,,,,,
7.949999999999999,7.97257995,,7.968452083,7.961203283,,-2.573181629,-8.736793517999999,1.262213945,,,,-11.26060009,47.54339981,-11.65100002,-1.552266121,1.681147575,2.04056406,
7.9799999999999995,,7.992519582999999,,,,,,,-1.277739763,-1.865832925,0.300231427,,,,,,,
8.01,8.02257995,,8.018452083,8.011203283,,-1.912463546,-8.214859009,-2.139781713,,,,-11.8949995,47.70199966,-7.271199703,-0.6890088320000001,0.7827444077,-0.21681427960000002,
8.04,,8.043321041,8.068452083,8.061203283,,,,,-1.664406061,-0.780662775,0.8909206986,-12.45619965,47.83620071,-1.903199911,0.6117677689,-0.08830070495999999,3.129910469,
8.07,8.07257995,8.094123385,,,,-0.7824530005,-11.27198887,1.501496196,-1.5930897,-0.005955760833000001,0.9506310225,,,,,,,
8.1,8.12257995,,8.118452083,8.111203283,,4.970789909,-13.01964664,1.918146491,,,,-12.68799973,47.50679779,3.916199923,5.519500732000001,-4.26342392,6.81183815,
8.129999999999999,,8.144926406,,,,,,,-0.10430216789999999,-0.9286405444,-0.055892523379999996,,,,,,,
8.16,8.17257995,,8.168452083,8.161203282999999,,0.019740786399999998,-14.66441345,3.639483213,,,,-12.41959953,47.2140007,9.284199715,3.890641451,-4.886836052,4.404411316,
8.19,,8.195728697,8.218452082999999,8.211203283,,,,,1.2096302509999999,0.7047650218000001,-0.6659762263,-12.1633997,46.66500092,13.2003994,0.3097633123,-5.70960331,5.968921661,
8.219999999999999,8.22257995,8.246530156,,,,-2.4173491,-15.50249958,3.4552359580000003,3.925304413,0.0013744062739999999,-1.052184463,,,,,,,
8.25,8.27257995,,8.268452083,8.261203283,,-5.048556805,-16.85504341,-8.869595528,,,,-12.09019947,46.34779739,15.15240002,-4.0826377869999995,-6.341759682,-4.390287399,
8.28,,8.297332499,,,,,,,3.7309024330000002,-0.7882983684999999,-0.3625378609,,,,,,,
8.31,8.32257995,,8.318452083,8.311203283,,-6.466004848,-14.72902012,4.005884171,,,,-11.8949995,46.34779739,15.2621994,-6.4084777829999995,-5.301060677,1.550119281,
8.34,,8.348135572,8.368452083,8.361203283,,,,,2.731709003,1.4988664390000002,0.08643488586,-11.32159996,46.49419785,13.48099995,0.48828494549999996,-0.922952652,-6.509305953999999,
8.37,8.37257995,8.398937864,,,,-0.5165506005,-9.316155434,-2.383849621,3.0708818439999996,-0.42667680979999995,-0.1710372269,,,,,,,
8.4,8.42257995,,8.418452083,8.411203282999999,,0.8335995674,-5.1095738410000004,-1.955534339,,,,-10.88239956,46.6527977,10.22359943,0.2532328367,3.0037598610000003,-4.20173645,
8.43,,8.449739322000001,,,,,,,2.7733993530000003,1.8076497319999998,-0.4659237564,,,,,,,
8.459999999999999,8.47257995,,8.468452082999999,8.461203283,,2.36111784,-2.837588549,-0.7657032609000001,,,,-10.51639938,46.6283989,5.258199692,4.700460911,5.178682327,-6.3462791439999995,
8.49,,8.500541666,8.518452083,8.511203283,,,,,1.256818295,2.8633465769999997,-0.7660024762000001,-10.52859974,47.15299988,-0.7929999828000001,1.007833958,6.25338459,-7.424631119,
8.52,8.52257995,,,,,-1.1006984709999998,-0.6732804775,-2.091925144,,,,,,,,,,
8.549999999999999,8.57257995,8.551344739,8.568452083,8.561203283,,-1.414457321,-1.705185294,6.234798431000001,-0.8794673681,2.280140162,-1.031873703,-10.22359943,47.01879883,-7.197999954,0.7100946903,7.074889183,-3.7876455780000002,
8.58,,8.602147031,,,,,,,-1.774053097,0.6748335361,-1.254374862,,,,,,,
8.61,8.62257995,,8.618452083,8.611203283,,-9.482457161000001,-24.24318123,20.97996902,,,,-10.06499958,47.06760025,-12.73680019,-6.815328598,-7.669739722999999,9.912455559,
8.64,,8.652948489,8.668452083,8.661203282999999,,,,,0.7553126216,1.7118994,-0.20432840289999998,-9.65019989,46.79919815,-17.34840012,0.8774564266,-1.15981102,3.964958191,
8.67,8.67257995,,,,,-2.355135679,-4.882255553999999,6.584449768,,,,,,,,,,
8.7,8.72257995,8.703750832999999,8.718452082999999,8.711203283,,-7.746763229,-17.73380661,-5.312066078,0.28312769530000004,-0.62046808,-0.3573456407,-9.088999747999999,46.16479874,-21.04500008,-5.189519882,-6.04733181,-3.024191141,
8.73,,8.754553957999999,,,,,,,-0.9009997248999999,-1.450609565,0.1353026628,,,,,,,
8.76,8.77257995,,8.768452083,8.761203283,,-2.912962437,-4.080061913,-6.767500877000001,,,,-8.930399895,45.55479813,-23.39959908,-0.7259711027,4.745082378,-13.28737545,
8.79,,8.805356248999999,8.818452083,8.811203283,,,,,-3.9323291780000003,-2.698875904,0.5071559548,-9.040200233,45.37179947,-23.93639946,2.333676815,-2.055389404,-13.62430573,
8.82,8.82257995,,,,,-0.1333998591,-12.91197014,-7.026224612999999,,,,,,,,,,
8.85,8.87257995,8.856157708,8.868452083,8.861203283,,3.8192441460000004,-12.29432297,2.677269459,-2.8050105569999997,-0.6844543815,0.5234960914,-9.442799568,45.7621994,-22.00880051,3.276276588,-6.190829277000001,4.62796545,
8.879999999999999,,8.906960103,,,,,,,-2.476680279,-0.2295258641,-0.8269344568000001,,,,,,,
8.91,8.92257995,,8.918452083,8.911203282999999,,0.10588239880000001,-6.096014977,0.5368895531,,,,-10.17479992,46.28680038,-18.4829998,2.926373482,2.695495605,0.4966239929,
8.94,,8.957763176,8.968452082999999,8.961203283,,,,,-2.196606636,-2.191414595,-0.7653915882,-11.40699959,46.84799957,-13.90799999,-1.49933815,4.157968521,1.310677052,
8.969999999999999,8.97257995,,,,,-2.8818557260000004,-6.1821565629999995,0.3547359705,,,,,,,,,,
9.0,9.02257995,9.00856552,9.018452083,9.011203283,,-1.9914265869999999,-7.872386456,-1.071984529,-1.314543247,-3.1272325519999997,0.287250936,-12.18779945,46.96999741,-9.186599731,-1.230574012,2.3209257130000003,1.1145734790000001,
9.03,,9.059366978,,,,,,,-1.7291558980000001,-0.2716743052,0.9749122262000001,,,,,,,
9.06,9.07257995,,9.068452083,9.061203283,,0.3355933726,-11.07338524,1.633400559,,,,-12.70020008,46.96999741,-3.830799818,1.393665195,-0.7103252411,3.453142166,
9.09,,9.110169322,9.118452083,9.111203283,,,,,-1.2481136320000001,-0.3939964771,0.829988718,-12.90759945,47.37260056,2.232599974,6.083564758,-3.385907173,6.298538685,
9.12,9.12257995,,,,,4.930111885,-12.08375454,3.864707708,,,,,,,,,,
9.15,9.17257995,9.160972447,9.168452083,9.161203282999999,,1.0612168309999999,-14.98295784,2.052144527,-0.1175880954,-0.3753656447,-0.2249445021,-12.78559971,47.15299988,8.198399543999999,5.831025124,-4.924332618999999,3.697894812,
9.209999999999999,9.22257995,9.211774791,9.218452082999999,9.211203283,,-1.67288208,-15.29881096,3.936492443,1.706707239,0.5949652195,-0.7866185308,-12.6147995,46.6405983,13.1882,-0.4225306511,-5.692708015,7.327070236,
9.24,,9.262576249,9.268452083,9.261203283,,,,,4.136199474,-0.2501419485,-1.141673565,-12.55379963,46.22579956,15.99419975,-3.06819725,-5.809357642999999,0.1414861083,
9.27,9.27257995,,,,,-5.589633465,-16.19671822,-6.341578007000001,,,,,,,,,,
9.299999999999999,9.32257995,9.313378645,9.318452083,9.311203283,,-7.954938889,-15.92602921,4.391427994,3.633013964,-0.5471664071,-0.33153733609999997,-12.50500011,46.12820053,16.73839951,-7.0133190160000005,-7.744049072,-4.776608467,
9.36,9.37257995,9.36418177,9.368452083,9.361203283,,-0.08315058798,-10.34297562,-4.007080555,2.7845473289999996,1.08776629,0.1131594554,-12.11460018,46.27460098,15.37199974,-1.075241804,-2.846564293,-4.830568314,
9.389999999999999,,9.414984062,9.418452083,9.411203282999999,,,,,3.420286417,0.07513421029,-0.1786728203,-11.78520012,46.55519867,12.34639931,-0.6221709250999999,2.117040634,-4.7591714860000005,
9.42,9.42257995,,,,,-0.6242275834000001,-5.042574406,0.005383851007,,,,,,,,,,
9.45,9.47257995,9.465785572,9.468452082999999,9.461203283,,3.577269793,-2.588735104,-1.0576275590000002,2.74178791,2.240893126,-0.515860498,-11.61439991,46.6405983,7.454199791000001,4.202222347,4.839223385,-7.876969337,
9.51,9.52257995,9.516587916,9.518452083,9.511203283,,-1.3040883540000001,0.1214357466,-2.139781713,1.2316207890000002,3.123414755,-0.8933641315,-11.2972002,46.48199844,1.610399961,1.685097337,6.287638187000001,-7.357999325,
9.54,,9.567391041,9.568452083,9.561203283,,,,,-1.344780207,2.2079074380000003,-0.9823951125,-11.10200024,46.43320084,-4.965399742,-0.04809188843,6.704475402999999,-5.630211352999999,
9.57,9.57257995,,,,,-1.871486425,-1.25503552,1.235892892,,,,,,,,,,
9.6,9.62257995,9.618193385,9.618452083,9.611203283,,-9.887143135,-15.39930916,12.22014523,-1.838802934,0.08597674966,-0.6671979427,-10.88239956,46.56739807,-10.94339943,-2.589991093,2.31895256,6.024680138,
9.66,9.67257995,9.668994895,9.668452083,9.661203282999999,,-2.252244234,-8.631210327,7.908278942000001,1.054016948,1.6850221159999998,-0.19318044190000003,-10.45539951,46.51860046,-15.78679943,-1.898938656,-10.05395985,5.79924202,
9.69,,9.719797239,9.718452082999999,9.711203283,,,,,-0.07589777559,-0.39582902189999997,-0.1884463727,-9.564800262,45.90859985,-19.99580002,-1.821522713,1.1040182109999999,-0.7357637881999999,
9.719999999999999,9.72257995,,,,,-5.7786664960000005,-11.86810112,-2.563610315,,,,,,,,,,
9.75,9.77257995,9.770600364,9.768452083,9.761203283,,-4.083651066,-7.379166126,-6.930511475,-1.214364409,-1.61340034,0.4402681589,-9.015799522,45.33519745,-22.71640015,-3.4318873880000003,-2.516746521,-10.03593349,
9.81,9.82257995,9.821402707999999,9.818452083,9.811203283,,2.107478619,-10.81705379,-9.180961609,-3.880407095,-2.56678009,0.2034121305,-8.674200058,45.11560059,-23.83880043,3.154651403,0.01108360291,-12.40183544,
9.84,,,9.868452083,9.861203283,,,,,,,,-8.771800041,45.4815979,-22.26499939,2.087734699,-4.140521049,2.4297297,
9.87,9.87257995,9.872204218,,,,1.820040703,-12.90479183,5.961717606000001,-2.534099817,-0.6798729897,0.4682144225,,,,,,,
9.9,9.92257995,9.923006614,9.918452083,9.911203282999999,,1.8463617559999999,-7.541877747000001,0.1441675574,-2.128802776,-0.2331909388,-0.6978929639,-8.442399979,45.84759903,-19.16619873,4.72173357,-0.2827968597,-0.636890173,
9.959999999999999,9.97257995,9.973809739,9.968452082999999,9.961203283,,-2.8579275610000003,-5.437689304,1.147358418,-2.107117653,-1.622563004,-0.7722636461,-9.271999359,46.56739807,-14.99380016,-1.377590299,4.493811607,0.6439259052,
9.99,,,10.01845208,10.01120328,,,,,,,,-10.11380005,46.9455986,-10.56519985,-1.141301513,1.6119942669999998,2.422451258,
10.02,10.02257995,10.02461208,,,,-2.015354872,-8.688637733,0.6613163352,-1.4648116830000002,-2.155069113,0.21364383399999998,,,,,,,
10.049999999999999,10.07257995,10.07541359,10.06845208,10.06120328,,-1.15094769,-8.411070824,-2.0392830369999997,-1.5666705369999998,-1.346001983,0.9384140968000001,-10.63840008,47.00659943,-5.685199738,-0.2743577957,0.37895584109999997,-0.3859336376,
10.11,10.12257995,10.12621599,10.11845208,10.11120328,,1.317248821,-12.0670042,3.8910286430000003,-1.6305040119999998,0.49768781659999994,1.031720996,-11.02880001,47.10419846,0.08540000021,2.621328354,-1.426699638,5.399415016,
10.139999999999999,,,10.16845208,10.16120328,,,,,,,,-11.05319977,46.96999741,6.039000034,7.138932228,-3.49140358,4.090411186,
10.17,10.17257995,10.17701911,,,,4.633102893999999,-12.97179031,0.2638086975,-0.2641914487,-1.108840466,-0.06062658876,,,,,,,
10.2,10.22257995,10.22782146,10.21845208,10.21120328,,-1.644168258,-16.29721642,5.736792088,0.7391251922,0.5691569448,-0.6076403260000001,-10.82139969,46.45759964,11.32159996,1.4988528490000002,-6.315608025,6.1396160129999995,
10.26,10.27257995,10.27862297,10.26845208,10.26120328,,-4.038187504,-15.0212431,1.77696991,3.5568108560000002,0.4947862923,-0.9587247968000001,-10.57740021,45.85979843,14.84739971,0.1782176495,-6.78879261,4.010541439,
10.29,,,10.31845208,10.31120328,,,,,,,,-10.45539951,45.62799835,16.60420036,-4.607457161,-8.019132614,-8.729694366,
10.32,10.32257995,10.32942536,,,,-5.939284801,-18.22433472,-7.741977692000001,3.896900177,-0.9820896983,-0.19531841579999998,,,,,,,
10.35,10.37257995,,10.36845208,10.36120328,,-4.189234257,-13.69472218,0.7857431173,,,,-10.00399971,45.72559738,16.49440002,-4.220608711000001,-4.441491127,1.837310433,
10.379999999999999,,10.38022849,,,,,,,3.087374687,1.8723995690000002,0.2576248348,,,,,,,
10.41,10.42257995,10.43103052,10.41845172,10.41120328,,-0.7462615371,-8.169395447000001,-2.673680305,2.7520196439999998,-0.5520532131,-0.0009162708884,-9.247599602000001,45.96960068,14.43260002,1.0599026679999999,0.507733345,-5.870556831,
10.44,,,10.46845172,10.46120328,,,,,,,,-8.661999702000001,46.26239777,10.74819946,2.375095844,3.126674175,-4.770040035,
10.469999999999999,10.47257995,10.48183203,,,,1.82482636,-5.186143875,-2.944069147,2.93924427,1.570946455,-0.3770454824,,,,,,,
10.5,10.52257995,,10.51845172,10.51120328,,0.9990034699,-2.286940336,-1.213161111,,,,-8.576600075,45.88419724,5.72179985,4.454501152,5.005217075,-6.351307868999999,
10.53,,10.53263442,,,,,,,1.677081108,2.655505657,-0.8432746529999999,,,,,,,
10.559999999999999,10.57257995,10.5834376,10.56845172,10.56120328,,-1.435992718,-0.09152546525000001,-2.2235305309999998,-0.5114318728,2.545706034,-1.038745761,-8.222800255,45.96960068,-0.37819999460000003,1.373980165,7.495543957000001,-8.111763,
10.59,,,10.61845172,10.61120328,,,,,,,,-7.929999828,46.17699814,-6.502599716000001,0.8039309978,5.324241638,-2.896800995,
10.62,10.62257995,10.63423989,,,,-1.426421404,-4.139882088,5.6937212939999995,-1.6654750109999998,1.136786699,-1.3895248169999999,,,,,,,
10.65,10.67257995,,10.66845172,10.66120328,,-8.101200104,-24.30539513,15.18156242,,,,-8.064199448,46.39659882,-11.85839939,-5.416466712999999,-7.733735085,7.8655476570000005,
10.68,,10.68504151,,,,,,,0.5115845799000001,1.4556490180000001,-0.3264978528,,,,,,,
10.709999999999999,10.72257995,10.7358439,10.71845172,10.71120328,,-5.082056046,-5.521438122,4.886742115,1.2073396440000002,1.215738773,-0.4370612204,-7.576200008,46.10379791,-16.29920006,-1.6397252080000002,-0.347943306,2.3514709469999997,
10.74,,,10.76845172,10.76120328,,,,,,,,-7.100399971,45.44499969,-20.04459953,-5.0730953219999995,-3.7815647130000003,8.252012253,
10.77,10.77257995,10.78664708,,,,-7.959724426,-17.69073677,2.698804855,-0.3407000601,-0.39262208340000004,0.3550549746,,,,,,,
10.799999999999999,10.82257995,,10.81845172,10.81120328,,-1.687239051,-2.0811574459999997,-9.614062309,,,,-6.783199787,44.77399826,-22.5821991,-0.5530631542000001,1.8995351790000001,-15.18272209,
10.83,,10.83744948,,,,,,,-2.632598877,-2.3819987769999997,0.1768402755,,,,,,,
10.86,10.87257995,10.88825098,10.86845172,10.86120328,,1.4751751419999999,-12.48096275,-10.46650505,-3.86131835,-3.17579484,0.5621321797,-6.844199657000001,44.52999878,-23.32639885,0.9345605373,-1.257612228,-11.30893803,
10.889999999999999,,,10.91845172,10.91120328,,,,,,,,-7.075999737,45.11560059,-21.77700043,2.517002583,-6.230244637,0.2412054539,
10.92,10.92257995,10.93905343,,,,2.248655081,-14.19272804,5.040181637,-2.683451891,0.8906152843999999,-0.09697200358,,,,,,,
10.95,10.97257995,,10.96845172,10.96120328,,1.635793328,-7.14945507,0.728315413,,,,-7.722599982999999,45.75,-18.56839943,5.330532551,0.6168270111,0.33187431100000003,
10.98,,10.98985661,,,,,,,-2.115822077,-1.36646533,-1.075854778,,,,,,,
11.01,11.02257995,,11.01845172,11.01120328,,-2.9297122960000004,-5.562116146,1.640578985,,,,-8.698599815,46.26239777,-14.6765995,-1.090165138,3.8856334689999996,1.250854254,
11.04,,11.04065901,11.06845172,11.06120328,,,,,-1.7865755559999998,-2.14789176,-0.4902049303,-9.564800262,46.38439941,-10.36999989,-1.2684870959999999,0.9259328842,1.849258184,
11.07,11.07257995,11.09146057,,,,-2.16131711,-8.947361946000001,1.211964726,-1.411820769,-1.8453695769999998,0.4129327536,,,,,,,
11.1,11.12257995,,11.11845172,11.11120328,,-1.095912814,-8.624032021,-1.9986051319999998,,,,-10.36999989,46.07939911,-5.343599796,0.15133655070000002,0.2324914932,0.3961418867,
11.129999999999999,,11.14226302,,,,,,,-1.6769284009999998,-0.7518002390999999,1.029583097,,,,,,,
11.16,11.17257995,,11.16845172,11.16120328,,1.6692929269999999,-11.8465662,3.239881754,,,,-10.82139969,46.11599731,0.5611999631,2.759402275,-1.694313049,4.732204437,
11.19,,11.19306619,11.21845172,11.21120328,,,,,-1.421288848,-0.3387148082,0.7559235096,-11.04099941,45.96960068,6.783199787,7.364623547000001,-3.1953506469999997,5.009821892,
11.219999999999999,11.22257995,11.24386864,,,,4.058526516000001,-13.7548418,1.910967946,-0.12140589210000001,-0.3263451457,-0.45385950799999997,,,,,,,
11.25,11.27257995,,11.26845172,11.26120328,,-2.2259233,-14.65962791,7.326523781000001,,,,-10.95559978,45.40839767,12.33419991,0.2994086742,-5.947849274,8.400143623,
11.28,,11.2946702,,,,,,,2.146517277,0.2229592502,-0.4749337435,,,,,,,
11.309999999999999,11.32257995,,11.31845172,11.31120328,,-0.6481558084000001,-15.09542084,0.01016949583,,,,-10.9921999,44.81060028,15.87220001,2.030254841,-6.583518982,3.4358253480000003,
11.34,,11.3454727,11.36845172,11.36120328,,,,,4.035867691,0.09330692142000001,-0.9906415343000001,-10.95559978,44.49340057,17.54360008,-2.690125942,-7.982640266000001,-8.129268646,
11.37,11.37257995,11.39627588,,,,-5.268995285,-18.38495445,-7.976474285,3.510386467,0.6552863717,-0.3901786804,,,,,,,
11.4,11.42257995,,11.41845172,11.41120328,,-5.036592484,-14.37009621,1.391426325,,,,-10.69939995,44.52999878,17.22640038,-4.65156889,-5.072742462,1.9713307619999998,
11.43,,11.44707833,,,,,,,2.8259320260000003,0.6390989423,-0.1021642014,,,,,,,
11.459999999999999,11.47257995,,11.46845172,11.46120328,,-0.451944381,-8.344071388,-2.400898457,,,,-10.29679966,44.77399826,15.01819992,-0.028557419780000003,0.2555007935,-6.319678783,
11.49,,11.49787989,11.51845172,11.51120328,,,,,3.007811785,0.09407047927000001,-0.3717005551,-10.19919968,44.77399826,11.52899933,1.430104256,3.367343903,-3.885917664,
11.52,11.52257995,11.54868239,,,,1.796112537,-5.504688262999999,-2.585145712,2.818907499,2.303046942,-0.6673506497999999,,,,,,,
11.549999999999999,11.57257995,,11.56845172,11.56120328,,1.958824396,-3.0361928939999996,-1.194018483,,,,-10.22359943,44.89599991,6.331799984,4.812485218,4.747640133,-6.764246941000001,
11.58,,11.59948562,,,,,,,1.32324791,3.231076479,-0.8521319031999999,,,,,,,
11.61,11.62257995,,11.61845172,11.61120328,,-1.258624673,-0.242273286,-2.3001008030000003,,,,-10.24800014,44.93259811,0.060999996960000004,1.2708743809999998,6.68562603,-7.818593025,
11.639999999999999,,11.65028802,11.66845172,11.66120328,,,,,-1.155112147,2.66833353,-1.21802938,-10.04059982,44.98139954,-6.52699995,0.3021695614,7.608672619,-3.550077915,
11.67,11.67257995,,,,,-2.422134638,-1.6836497780000002,5.609972477,,,,,,,,,,
11.7,11.72257995,11.70108963,11.71845172,11.71120328,,-11.21097183,-29.96023369,15.89970779,-1.4383926390000001,0.6282563806,-0.9161182045999999,-10.01620007,44.55439758,-12.27320004,-9.368928909,-10.21124363,11.96174812,
11.73,,11.75189213,,,,,,,1.0166025159999998,1.4109044080000002,-0.2072299272,,,,,,,
11.76,11.77257995,,11.76845172,11.76120328,,-2.249851465,-1.475474238,5.28903532,,,,-9.601399422,44.17620087,-17.06780052,-0.3890328407,1.582435131,3.494822979,
11.79,,11.80269536,11.81845172,11.81120328,,,,,-0.233649075,-0.7730271816,-0.22066856920000003,-9.137800217,43.48080063,-20.78879929,-5.983287811,-3.7026281360000004,-6.690532684,
11.82,11.82257995,,,,,-8.539086342000001,-19.18206215,-4.768596649,,,,,,,,,,
11.85,11.87257995,11.85349786,11.86845172,11.86120328,,-1.333101273,-5.586044312,-5.9201421739999995,-1.4422104359999999,-1.973800182,0.5178457499,-8.94260025,42.94400024,-23.02140045,-1.757778406,-1.751244545,-10.91706657,
11.879999999999999,,11.90429948,,,,,,,-4.032660961,-2.8564744,0.09697200358,,,,,,,
11.91,11.92257995,,11.91845172,11.91120328,,0.3765704632,-11.57617664,-5.355136871,,,,-8.967000008,42.88299942,-23.4484005,3.0748159889999997,-0.6266212463,-11.32152176,
11.94,,11.95510198,11.96845172,11.96120328,,,,,-2.573652267,-1.02210021,0.4100312293,-9.2354002,43.30999756,-21.48419952,2.98390913,-4.2312603,3.402696133,
11.969999999999999,11.97257995,,,,,3.732803345,-11.99970627,2.83519578,,,,,,,,,,
12.0,12.02257995,12.00590526,12.01845172,12.01120328,,-0.02333002165,-5.60279417,1.089930773,-2.563878775,-0.3161134422,-0.8261709212999999,-9.918600082000001,43.99319839,-17.8852005,3.796165466,2.528371811,0.4715666771,
12.03,,12.0567077,,,,,,,-1.8733158109999999,-2.750950575,-0.7459971905,,,,,,,
12.059999999999999,12.07257995,,12.06845172,12.06120328,,-2.664108992,-7.496414185,-0.2988037169,,,,-11.11419964,44.51779938,-13.27359962,-1.252367854,2.7847614289999996,1.181206822,
12.09,,12.10750932,12.11845172,12.11120328,,,,,-1.4973393680000002,-2.451635361,0.41491800549999996,-12.27320004,44.82279968,-8.234999657000001,-1.3039772509999998,0.9226093292,0.8573797345,
12.12,12.12257995,,,,,-2.079961061,-8.899505615,-0.9786644578,,,,,,,,,,
12.15,12.17257995,12.15831187,12.16845172,12.16120328,,0.9846464992,-10.73809052,3.256631613,-1.743052602,-0.3020639718,1.071273327,-12.82219982,44.87159729,-2.598599911,1.5188623669999999,0.2528905869,3.920930386,
12.18,,12.20911515,,,,,,,-1.060889006,-0.6994200945,0.7995990515000001,,,,,,,
12.209999999999999,12.22257995,,12.21845172,12.21120328,,5.983551979,-12.37807178,2.200798512,,,,-13.07839966,44.81060028,3.623399973,7.17109108,-3.9485397339999997,5.360786438,
12.24,,12.25991765,12.26845172,12.26120328,,,,,-0.053754560650000005,-0.2370087355,-0.5209000111,-12.90759945,44.51779938,9.564800262,4.175563335,-6.0906066889999995,4.201972961,
12.27,12.27257995,,,,,-0.028115665539999994,-14.40598869,3.5820555689999996,,,,,,,,,,
12.299999999999999,12.32257995,12.31071932,12.31845172,12.31120328,,-1.972284079,-13.75005627,3.589233875,2.354816198,0.5155550838,-0.7235485911,-12.70020008,44.0053978,14.18859959,-0.7279756069,-3.040452003,7.461578846,
12.36,12.37257995,12.36152187,12.36845172,12.36120328,,-4.109972,-20.01296997,-9.645169258,4.3611440660000005,-0.1893626451,-0.76997298,-12.83440018,43.71260071,16.65299988,-2.18879509,-9.684431076000001,-5.976650715,
12.389999999999999,,12.41232515,12.41845172,12.41120328,,,,,3.3613398080000003,0.6843016148000001,-0.317945987,-12.52939987,43.68819809,16.87260056,-5.36207819,-5.52088356,-0.3731578588,
12.42,12.42257995,,,,,-5.391029358,-15.00688648,3.5676984789999997,,,,,,,,,,
12.45,12.47257995,12.46312765,12.46845172,12.46120328,,-1.794916034,-9.751649857,-2.345564365,2.747896433,0.4448495209,-0.09773556142999999,-11.95599937,43.91999817,15.2621994,-1.815645933,-2.6546506880000003,-5.41256237,
12.51,12.52257995,12.51392932,12.51845172,12.51120328,,0.328414917,-4.820042133,-0.39690944549999996,3.063551664,0.19791451100000002,-0.324970752,-11.5777998,44.18840027,11.96819973,-0.2205228806,3.302138329,-5.662398815,
12.54,,12.56473192,12.56845172,12.56120328,,,,,2.456827641,2.236769915,-0.7606575489,-11.06540012,44.94479752,6.88079977,4.702112198,4.588069916,-7.470563889,
12.57,12.57257995,,,,,3.3140592580000003,-2.902194738,-1.378564954,,,,,,,,,,
12.6,12.62257995,12.6155352,12.61845172,12.61120328,,-0.8757730722,1.412064433,-2.8459634780000003,0.9571976662,3.0540835860000004,-0.8434273601000001,-11.00440025,45.03020096,0.8173999786,1.236421943,7.586346149,-7.767751693999999,
12.66,12.67257995,12.66633776,12.66845172,12.66120328,,-1.4455640319999998,-0.8407780528000001,1.295713425,-1.8420099019999998,2.233562946,-1.148851037,-10.96780014,45.03020096,-5.66079998,0.38935732840000004,7.959037781,-5.981949806,
12.69,,12.71713948,12.71845172,12.71120328,,,,,-0.8228112459,1.10028863,-0.6878139973,-10.88239956,45.20100021,-11.35820007,-6.130451202000001,-3.6159725189999996,10.79540443,
12.719999999999999,12.72257995,,,,,-12.54945755,-24.19532585,13.9175539,,,,,,,,,,
12.75,12.77257995,12.76794203,12.76845172,12.76120328,,-1.953141451,-5.926124572999999,5.389533997000001,1.260177851,1.934095144,-0.501047492,-10.08939934,45.03020096,-15.94539928,1.7941203119999998,-7.95029068,5.55055666,
12.809999999999999,12.82257995,12.81874536,12.81845172,12.81120328,,-6.956832886,-13.2329073,5.942574978,0.06459710002,-0.4645493329,-0.2635805905,-9.65019989,44.37139893,-19.76399994,-4.456215858,1.841919899,4.54705143,
12.84,,12.86954791,12.86845172,12.86120328,,,,,-1.235591292,-1.96662271,0.39796698090000004,-9.308599472000001,43.70039749,-22.52120018,-0.43996524810000004,-1.057565689,-14.80000687,
12.87,12.87257995,,,,,-1.632204175,-5.564508915,-10.65793133,,,,,,,,,,
12.9,12.92257995,12.92034963,12.91845172,12.91120328,,0.3765704632,-11.0997057,-9.879964828,-3.8629980089999996,-2.19065094,0.4065188468,-9.2354002,43.4076004,-23.50939941,0.1658110619,-0.04435348511,-6.43244791,
12.959999999999999,12.97257995,12.97115224,12.96845172,12.96120328,,1.444068432,-14.21904945,5.44696188,-2.651382446,-0.8596147895,0.49997848270000006,-9.430600166,43.70039749,-22.20400047,2.010182619,-4.664669991,0.7719726562,
12.99,,,13.01845172,13.01120328,,,,,,,,-9.869799614,44.38359833,-19.32480049,5.198049068,-0.1587762833,-1.038631916,
13.02,13.02257995,13.02195562,,,,2.349153519,-8.003992081,-0.5572285652000001,-2.5272278790000002,-0.2370087355,-0.928029716,,,,,,,
13.049999999999999,13.07257995,13.07275817,13.06845172,13.06120328,,-3.6577284339999996,-6.115157604,1.592722535,-1.9971650840000001,-2.552425385,-0.9176452756,-10.82139969,45.05459976,-15.27439976,-1.6960402730000002,3.123088837,0.9196044803,
13.11,13.12257995,13.12355994,13.11845172,13.11120328,,-1.960319996,-8.461319923,0.0005982056609,-1.415638566,-2.680550575,0.23792500789999999,-11.68760014,45.29859924,-10.93120003,-1.6393803359999999,1.6491990090000002,0.8948261738,
13.139999999999999,,,13.16845172,13.16120328,,,,,,,,-12.4684,45.75,-5.89260006,0.21250927449999998,0.3205909729,-0.9215143919,
13.17,13.17257995,13.17436255,,,,-0.5333003402000001,-8.885149002,-1.3977075819999998,-1.57797122,-1.216044188,0.9561286568999999,,,,,,,
13.2,13.22257995,13.22516593,13.21845172,13.21120328,,2.490330219,-11.5139637,3.0672996039999996,-1.593242407,-0.29885703329999996,0.8977927566,-12.89540005,45.88419724,0.02439999953,2.9979467389999996,-1.6012849809999998,4.903862,
13.26,13.27257995,13.27596849,13.26845172,13.26120328,,3.1438698769999998,-14.8654108,1.365105271,-0.46943610909999994,-0.7415685654,-0.08933641016,-12.98079967,45.83539963,6.270800114,6.240764617999999,-4.206752777,3.768100739,
13.29,,,13.31845172,13.31120328,,,,,,,,-12.77339935,45.35960007,11.82180023,2.207711458,-5.8864440920000005,7.659932137,
13.32,13.32257995,13.32677026,,,,-0.4543372095,-15.0212431,6.80698204,0.7782194018,0.2874036431,-0.7180509567,,,,,,,
13.35,13.37257995,13.37757291,13.36845172,13.36120328,,-2.070389748,-14.24058533,1.851147413,3.6188118460000003,0.3845283389,-0.9220739603,-12.1633997,44.62759781,15.8355999,0.696146965,-5.691186905,4.939033985,
13.41,13.42257995,13.4283763,13.41845172,13.41120328,,-5.07248497,-18.22433472,-8.151449203,4.124898911,-0.1385096163,-0.1811162084,-12.10239983,44.34700012,17.72659874,-3.6053256989999998,-8.378746986,-6.969342232000001,
13.44,,,13.46845172,13.46120328,,,,,,,,-11.67539978,44.43239975,17.56799889,-4.668515205,-4.548141479,-0.6991258859999999,
13.469999999999999,13.47257995,13.4791789,,,,-5.393422127000001,-13.72582912,2.6724836830000003,3.0259845260000002,2.073673725,0.137746051,,,,,,,
13.5,13.52257995,13.52998067,13.51845172,13.51120328,,-2.728715181,-8.51874733,-1.354636669,2.7529358860000004,-1.1297620529999999,0.1826433241,-11.02880001,44.72520065,15.46959972,-1.634560466,-0.113781929,-6.428938866,
13.559999999999999,13.57257995,13.58078338,13.56845172,13.56120328,,2.667698145,-4.793721199,-2.841177702,2.920918941,1.299883008,-0.09040539712000001,-10.83360004,44.54219818,11.78520012,2.313036442,3.470828533,-5.110352516,
13.59,,,13.61845172,13.61120328,,,,,,,,-10.47980022,44.81060028,6.673399925,5.576221466000001,4.586345673,-5.7096385960000005,
13.62,13.62257995,13.63158677,,,,2.2295124530000003,-2.8974092010000003,-0.7079764009,1.581941724,2.576095581,-0.783411622,,,,,,,
13.65,13.67257995,,13.66845172,13.66120328,,-1.3235300779999999,-0.08195417374,-1.7973089219999998,,,,-10.18700027,44.95700073,0.5367999673,0.9823030233,7.2227621079999995,-7.475888728999999,
13.68,,13.68238942,,,,,,,-0.4352286756,2.637638569,-0.8382351398000001,,,,,,,
13.709999999999999,13.72257995,13.73319119,13.71845172,13.71120328,,-1.4694921969999999,-3.156133175,7.683054447000001,-2.020988226,0.9436063170000001,-1.471989155,-9.796599387999999,45.26199722,-5.831599712,1.26045537,6.154211044,-2.08852005,
13.74,,,13.76845172,13.76120328,,,,,,,,-9.381799698,45.93299866,-11.22399998,-9.594171524,-11.96562958,11.79640293,
13.77,13.77257995,13.7839939,,,,-8.824131966,-27.06102943,15.68914032,0.5387672782,1.565907001,-0.1149920002,,,,,,,
13.799999999999999,13.82257995,,13.81845172,13.81120328,,-5.742774487,-6.790232658,7.237989426,,,,-8.820599556,45.7378006,-15.62819958,0.192274332,-0.6395740509000001,2.957205772,
13.83,,13.83479734,,,,,,,1.15755558,0.7088882327,-0.3909422457,,,,,,,
13.86,13.87257995,13.88559994,13.86845172,13.86120328,,-8.050951004,-12.19861031,-9.374779701,-0.4740174711,-1.208714008,0.26312246920000004,-8.198399543999999,45.15219879,-19.27599907,-3.452271461,-8.715420723,-9.403032303,
13.889999999999999,,,13.91845172,13.91120328,,,,,,,,-7.8079996110000005,44.66419983,-21.55739975,0.36140728,6.2102832789999995,-12.04901123,
13.92,13.92257995,13.93640177,,,,-1.234696507,-5.657829285,-2.367099762,-3.811228752,-2.795847893,0.3416163325,,,,,,,
13.95,13.97257995,,13.96845172,13.96120328,,-0.3083750308,-15.0714922,-1.3139587640000001,,,,-7.832399845,44.66419983,-21.72819901,3.468534946,-5.085380553999999,-10.94753265,
13.979999999999999,,13.98720448,,,,,,,-2.533336401,-0.9011524320000001,0.6710157393999999,,,,,,,
14.01,14.02257995,14.03800796,14.01845172,14.01120328,,3.4002010819999997,-10.31426239,1.4344971180000001,-2.256469727,0.5465555786999999,-0.6806365848,-8.052000046,45.04240036,-19.95919991,5.766321659,-2.923378944,2.194419861,
14.04,,,14.06845172,14.06120328,,,,,,,,-8.637599945,45.64019775,-16.90919876,1.61487639,2.952708721,-0.719940722,
14.07,14.07257995,14.08881062,,,,-1.787737608,-5.830112457,0.09391828626,-2.223484039,-1.2119209770000001,-0.9071081877,,,,,,,
14.1,14.12257995,,14.11845172,14.11120328,,-2.601895571,-6.7878394129999995,1.271785259,,,,-9.698999405,46.16479874,-12.96859932,-1.597372174,3.52504921,1.7211905719999998,
14.129999999999999,,14.13961244,,,,,,,-1.6283661130000002,-1.602099657,0.01527118124,,,,,,,
14.16,14.17257995,,14.16845172,14.16120328,,-1.3977075819999998,-8.669495583,0.2566302419,,,,-10.78479958,45.43280029,-8.771800041,-0.6913647652,0.6848011017,2.1421234609999997,
14.19,,14.19041515,14.21845172,14.21120328,,,,,-1.3780714269999998,-1.774969459,0.6617003082999999,-11.35820007,45.57920074,-3.977200031,1.072654128,0.8697690964,-1.391239643,
14.219999999999999,14.22257995,14.24121864,,,,-0.45673000810000003,-8.7032938,-1.4216357469999998,-1.884616494,-0.173633337,0.9946120381,,,,,,,
14.25,14.27257995,,14.26845172,14.26120328,,2.148156643,-12.62722397,4.841278553,,,,-11.67539978,45.68899918,1.768999934,2.506578684,-2.698961258,5.453607082,
14.28,,14.2920213,,,,,,,-1.0001096729999999,-0.5181511641,0.5195255876,,,,,,,
14.309999999999999,14.32257995,,14.31845172,14.31120328,,2.437688112,-13.77877045,1.930110574,,,,-11.72420025,45.53039932,7.576200008,7.485060692,-3.893558502,4.447079659,
14.34,,14.34282317,14.36845172,14.36120328,,,,,0.3208475113,0.021990500389999997,-0.4619532526,-11.49240017,45.03020096,12.18779945,1.109880686,-5.772408485,7.904602528,
14.37,14.37257995,14.39362593,,,,-0.2270190418,-14.48495197,3.625126362,3.064009905,0.6642963886,-0.9460496902,,,,,,,
14.399999999999999,14.42257995,,14.41845172,14.41120328,,-4.598406792,-16.95554161,-2.14696002,,,,-11.48019981,44.70079803,14.95720005,0.4464805126,-6.7426128389999995,2.195583344,
14.43,,14.44442942,,,,,,,3.979975224,-0.4482091665,-0.7957812548000001,,,,,,,
14.459999999999999,14.47257995,,14.46845172,14.46120328,,-7.145865917,-16.5655117,-1.1078768970000001,,,,-11.4435997,44.63980103,16.07959938,-5.241757393,-8.668054581,-7.172087669,
14.49,,14.49523213,14.51845172,14.51120328,,,,,3.2156527039999996,1.83116734,-0.07207997887999999,-11.07759953,44.79840088,15.01819992,-2.85946846,-4.70731163,-1.307284355,
14.52,14.52257995,14.54603401,,,,-4.15334177,-13.01246834,-1.155733347,2.8470063210000003,-0.09498675168,0.02764083818,,,,,,,
14.549999999999999,14.57257995,,14.56845172,14.56120328,,-1.6944174769999998,-6.399903297000001,-2.2450659280000003,,,,-10.88239956,44.66419983,12.45619965,0.2940131426,0.759522438,-5.556520462000001,
14.58,,14.59683677,,,,,,,3.408375025,1.166718245,-0.1404948682,,,,,,,
14.61,14.62257995,,14.61845172,14.61120328,,2.7801609039999997,-3.337987661,-3.75822711,,,,-10.54080009,44.73740005,8.173999786,4.065558434,3.800679207,-8.263805389,
14.639999999999999,,14.64764026,14.66845172,14.66120328,,,,,2.243336678,2.420787573,-0.6931589246,-10.30900002,44.60319901,2.391200066,3.512700558,5.440865992999999,-6.973804474,
14.67,14.67257995,14.69844297,,,,0.14177474380000002,-1.4946168659999999,-2.056032896,0.5065450668,3.245889664,-0.8086090684,,,,,,,
14.7,14.72257995,,14.71845172,14.71120328,,-1.938784599,0.01615155302,-0.3418745399,,,,-9.894199371000001,44.43239975,-4.172399998,0.9637744427,7.824690342,-7.466823578,
14.729999999999999,,14.74924484,,,,,,,-2.19324708,1.1606098409999999,-1.5387243030000002,,,,,,,
14.76,14.77257995,,14.76845172,14.76120328,,-7.993224144,-10.15155029,10.01037312,,,,-10.01620007,44.94479752,-10.67500019,-1.415681839,4.327430725,4.993375301,
14.79,,14.80004765,14.81845172,14.81120328,,,,,0.047798797489999996,0.9382613897,-0.21333840489999997,-9.613599777000001,44.71299744,-15.79899979,-6.618757725,-18.30937004,7.727820873,
14.82,14.82257995,,,,,-2.419741869,-15.09302807,9.081359863,,,,,,,,,,
14.85,14.87257995,14.85085119,14.86845172,14.86120328,,-2.810070992,-7.563413142999999,6.160621166,0.9709417224,1.0343171359999999,-0.6691831946,-8.930399895,44.06639862,-20.26420021,0.3330245018,6.249540328999999,2.179085255,
14.879999999999999,,14.9016539,,,,,,,-0.7113316059,-1.6874655490000001,0.058641336860000004,,,,,,,
14.91,14.92257995,,14.91845172,14.91120328,,-5.43649292,-12.10050392,-6.037390708999999,,,,-8.418000221,43.30999756,-23.33860016,-4.226370811000001,-8.252047539,-10.88806915,
14.94,,14.95245583,14.96845172,14.96120328,,,,,-1.6416519880000002,-0.7363763452,0.1514901221,-8.222800255,42.79759979,-25.11979866,-1.166781068,3.196979523,-4.624533176,
14.969999999999999,14.97257995,,,,,-0.7609176040000001,-6.93619442,-6.5760746,,,,,,,,,,
15.0,15.02257995,15.00325859,15.01845172,15.01120328,,0.565603435,-14.04437351,3.627519131,-3.405778885,-3.4434986110000003,0.3278722763,-8.491199493,42.90739822,-24.50979996,2.103117943,-2.8600091930000002,-6.447106361,
15.03,,15.05406213,,,,,,,-2.2918989659999998,0.9397885203,0.029473381119999996,,,,,,,
15.059999999999999,15.07257995,,15.06845172,15.06120328,,3.64426899,-9.660722733,0.20398813489999998,,,,-9.113399506,43.61499786,-22.19179916,6.097633362000001,-2.628211021,-0.32649374010000004,
15.09,,15.10486489,15.11845172,15.11120328,,,,,-2.361840963,-0.6503996253000001,-1.113574505,-10.28460026,44.44459915,-18.61719894,0.6250569224,3.682617188,0.1374124289,
15.12,15.12257995,,,,,-2.554039001,-5.909374714,0.17527425289999998,,,,,,,,,,
15.149999999999999,15.17257995,15.15566682,15.16845172,15.16120328,,-2.7741787430000002,-7.697710514,1.013360381,-1.8630841969999998,-1.957460046,-0.46668729189999997,-12.19999981,45.16439819,-14.65219975,-2.274526834,2.601867676,1.99586153,
15.18,,15.20646963,,,,,,,-1.259414315,-2.078866005,0.6284091473,,,,,,,
15.209999999999999,15.22257995,,15.21845172,15.21120328,,-1.471885085,-8.157431602,-2.312064886,,,,-13.29799938,45.4815979,-10.19919968,-0.9530851841,0.9801568985,-0.7808568478,
15.24,,15.25727322,15.26845172,15.26120328,,,,,-1.8742320540000001,-0.3686463237,1.011257648,-14.16419983,45.84759903,-4.806799889,1.7943909169999999,0.7535572051999999,4.6871438030000006,
15.27,15.27257995,,,,,0.6110670567,-10.20179939,3.230310678,,,,,,,,,,
15.299999999999999,15.32257995,15.30807598,15.31845172,15.31120328,,5.351248741,-12.19382381,0.618245542,-1.002705812,-0.6074876189,0.8018897176,-14.62779999,46.09159851,0.9882000089,6.161725521,-3.312662125,4.3052997589999995,
15.33,,15.35887791,,,,,,,-0.5254813433,0.09758284687999999,-0.37215870619999997,,,,,,,
15.36,15.37257995,,15.36845172,15.36120328,,0.8551349640000001,-14.51366615,4.800600529,,,,-14.92059994,45.94519806,6.600199699,4.240272522,-5.236199378999999,4.710745811000001,
15.389999999999999,,15.40968078,15.41845172,15.41120328,,,,,1.908744931,0.08567132801,-0.9349017143,-14.85960007,45.60359955,10.77260017,0.5314363241,-5.292228699,5.1659708019999995,
15.42,15.42257995,,,,,-1.7063816790000002,-16.70668793,2.41136694,,,,,,,,,,
15.45,15.47257995,15.46048432,15.46845172,15.46120328,,-5.891428471,-16.91486359,-8.565407752999999,3.988221645,0.041690327230000004,-1.057071209,-14.98159981,45.38399887,13.26139927,-4.326008797,-6.766829491,-0.393298924,
15.51,15.52257995,15.51128713,15.51845172,15.51120328,,-7.440182686,-14.48016644,3.160619497,3.414178133,0.07131642103,-0.231358394,-14.94499969,45.40839767,13.67619991,-7.739214897,-5.308823586,0.5363116264,
15.54,,15.56208906,15.56845172,15.56120328,,,,,2.841508627,0.02122694254,0.19058434670000002,-14.51799965,45.4693985,12.22439957,-1.0052044390000001,-1.399538994,-4.727814673999999,
15.57,15.57257995,,,,,-0.8997012973,-8.913862228,-0.6385845542,,,,,,,,,,
15.6,15.62257995,15.61289192,15.61845172,15.61120328,,2.619841576,-5.688935757,-1.6920247080000002,3.185568571,0.6841489076999999,-0.07543963939,-14.10319996,45.55479813,9.149999618999999,2.1705441469999998,3.3199939730000003,-5.858221531,
15.66,15.67257995,15.66369552,15.66845172,15.66120328,,2.044965982,-4.13509655,1.417747378,2.371767282,2.061914921,-0.7356128097,-13.89579964,45.4815979,4.550600052,4.62396431,4.697491169,-5.3826045989999995,
15.69,,15.71449833,15.71845172,15.71120328,,,,,1.147323847,3.453730345,-0.8037222624,-13.66399956,45.13999939,-1.293200016,1.3916325569999999,5.406989574,-6.895936012000001,
15.719999999999999,15.72257995,,,,,-0.6242275834000001,-1.391426325,-2.7095725539999997,,,,,,,,,,
15.75,15.77257995,15.76530031,15.76845172,15.76120328,,-2.228316069,-1.642971873,2.023430586,-1.2821683879999999,2.086043358,-1.177560806,-13.0661993,45.07899857,-7.478600025,-0.3246860504,6.237388611,-5.331505775,
15.809999999999999,15.82257995,15.81610317,15.81845172,15.81120328,,-11.97727394,-17.41526222,14.05394459,-1.6106514930000002,-0.2267770469,-1.0034693479999999,-12.71239948,44.88380051,-13.29799938,-3.854157686,0.2794265747,7.993567467,
15.84,,15.86690677,15.86845172,15.86120328,,,,,0.7235485911,1.26384294,0.02229592577,-12.24879932,44.52999878,-17.98279953,-2.610233545,-7.946604729,5.597406387,
15.87,15.87257995,,,,,-2.668894529,-8.787042618,8.420641899,,,,,,,,,,
15.899999999999999,15.92257995,15.91770958,15.91845172,15.91120328,,-6.1426749229999995,-11.30070305,1.0851451159999999,0.03894151375,-0.5584670901,-0.09239064902,-11.49240017,43.83459854,-21.60619926,-2.271989584,2.995144367,-1.119787693,
15.959999999999999,15.97257995,15.96851156,15.96845172,15.96120328,,-3.9735810760000003,-9.466903687,-6.865606307999999,-1.204743505,-2.1440739630000003,0.4679090083,-11.01659966,43.21239853,-24.0340004,-4.690872192,-5.442811966,-8.224045753,
15.99,,16.01931442,16.01845172,16.01120328,,,,,-3.839327812,-2.699639559,-0.08063183724999999,-10.91899967,43.01720047,-24.68059921,2.265568018,2.206071854,-8.903188705,
16.02,16.02257995,,,,,1.693221092,-8.727222442999999,-9.403493881000001,,,,,,,,,,
16.05,16.07257995,16.07011765,16.06845172,16.06120328,,0.3547359705,-13.77398491,3.900599957,-2.494241953,-2.157359838,0.5517477989,-11.27279949,43.43199921,-23.15559959,0.9739135504,-3.6392669680000003,-2.521535397,
16.08,,,,,16.09351755,,,,,,,,,,,,,5.0
16.11,16.12257995,16.12092046,16.1184513,16.11120328,,3.086441994,-7.989634991,-1.3235300779999999,-2.4583547119999998,0.12583453949999998,-0.5375455618,-11.87059975,44.2981987,-19.77619934,4.685798645,-0.34992122649999996,-0.6564657092,
16.14,,,16.1684513,16.16120328,,,,,,,,-12.80999947,44.98139954,-15.35979939,0.062257826329999995,2.851415157,0.5609382987,
16.169999999999998,16.17257995,16.17172244,,,,-1.8451653719999999,-6.763911247,0.014955141580000001,-1.9910566809999999,-2.796000719,-0.9023740887999999,,,,,,,
16.2,16.22257995,16.22252536,16.2184513,16.21120328,,-2.371885538,-7.79820919,-0.480658263,-1.3220261340000001,-3.357980013,0.2141019702,-13.89579964,45.43280029,-10.34560013,-1.4511306290000001,2.049360275,1.565139055,
16.259999999999998,16.27257995,16.273329,16.2684513,16.26120328,,-0.2270190418,-8.91146946,1.64775753,-1.7045692209999999,-0.3403946459,1.062568784,-14.45699978,45.56699753,-4.928800106000001,-0.14407444,0.5071706772,2.186120033,
16.29,,,16.3184513,16.31120328,,,,,,,,-14.94499969,45.66460037,1.171200037,5.16215992,-2.050094604,4.76122427,
16.32,16.32257995,16.32413182,,,,5.049753189,-12.00209904,1.980359793,-1.2129899259999999,-0.6462764143999999,0.9914051294,,,,,,,
16.349999999999998,16.37257995,16.37493411,16.3684513,16.36120328,,2.694019079,-13.8673048,1.8678971530000001,-0.5044071078,-0.04382828996,-0.19821994010000002,-15.16459942,45.53039932,7.1858000760000005,6.7953157420000005,-3.192484856,4.644208908,
16.41,16.42257995,16.42573702,16.41845156,16.41120328,,-1.284945726,-14.39163208,5.985645771000001,0.8373188972,-0.009162709117,-0.6172611713,-14.94499969,45.06679916,12.7489996,0.49223637579999996,-5.195573807,8.282164574,
16.439999999999998,,,16.46845156,16.46120328,,,,,,,,-14.57899952,44.46899796,16.70179939,0.34197998049999995,-4.848873138,5.344211102,
16.47,16.47257995,16.47654067,,,,-0.8183453679000001,-14.6763773,1.5735800269999998,3.77961731,0.39491274950000005,-0.7979192138,,,,,,,
16.5,16.52257995,16.52734354,16.51845156,16.51120328,,-5.932106495,-19.51735687,-8.268697739,3.9430191519999997,-0.442864269,-0.35230615740000004,-14.34719944,44.16399765,18.42199898,-3.270095348,-8.134189606,-5.762852192,
16.56,16.57257995,16.57814557,16.56845156,16.56120328,,-5.141876698,-13.99651718,1.587936878,3.1562478539999996,1.682273388,0.1785201132,-13.87139988,44.2859993,18.22679901,-5.534522057,-5.434248923999999,1.061104298,
16.59,,,16.61845156,16.61120328,,,,,,,,-13.10279942,44.61539841,15.87220001,-1.087760448,-0.9710226059,-4.557142258,
16.62,16.62257995,16.62894848,,,,-0.7824530005,-8.990432739,-1.984248161,2.850518703,-0.4237752855,0.1766875684,,,,,,,
16.65,16.67257995,16.67975213,16.66845156,16.66120328,,2.7514469619999997,-4.980361462,-2.46071887,3.029496908,1.2491827009999998,-0.2348707765,-12.56599998,44.98139954,11.93159962,2.581814528,3.083902836,-4.9781084060000005,
16.71,16.72257995,16.73055499,16.71845156,16.71120328,,0.8479565381999999,-3.759423494,1.559223056,1.667307615,2.8465483189999996,-0.8990144729999999,-12.12679958,45.22539902,6.52699995,4.7768855089999995,5.015614033,-7.708898544,
16.74,,,16.76845156,16.76120328,,,,,,,,-12.0170002,45.7378006,0.1341999918,1.136881828,7.392434597,-8.42945385,
16.77,16.77257995,16.78135703,,,,-1.002592683,0.3394817114,-2.7119653219999997,-0.03527642787,2.697806835,-0.9895725846,,,,,,,
16.8,16.82257995,,16.81845156,16.81120328,,-1.091127157,-1.8894325490000001,5.990431309,,,,-11.52899933,45.87199783,-6.380599976,0.90361619,7.304609299,-3.600755453,
16.83,,16.83215999,,,,,,,-2.07550621,0.7087355256,-1.789476991,,,,,,,
16.86,16.87257995,16.88296364,16.86845156,16.86120328,,-10.82542896,-27.12084961,19.61306953,0.1551551968,0.9396358131999999,-0.1064401343,-11.34599972,46.0428009,-11.96819973,-7.8364534379999995,-9.896710396,13.01881504,
16.89,,,16.91845156,16.91120328,,,,,,,,-11.02880001,45.78659821,-16.48220062,0.7014408112,-1.1220531459999998,4.840023518,
16.919999999999998,16.92257995,16.93376656,,,,-1.33788693,-4.017848492,6.838088989,0.7023216486,0.9025267959000001,-0.4567610323,,,,,,,
16.95,16.97257995,,16.96845156,16.96120328,,-6.841678142999999,-16.93161392,-2.87467742,,,,-10.22359943,45.09119797,-20.11779976,-2.6839838030000003,-2.092680931,-1.86395669,
16.98,,16.98456859,,,,,,,-0.7551599145000001,-1.830403805,0.19501298670000003,,,,,,,
17.009999999999998,17.02257995,17.03537156,17.01845156,17.01120328,,-1.146162033,-5.387440205,-7.093223572,-2.207449198,-1.533226609,0.10857810080000001,-10.19919968,44.51779938,-22.20400047,-1.041190028,-0.06401634216,-10.72184563,
17.04,,,17.06845156,17.06120328,,,,,,,,-10.49199963,44.3103981,-22.65539932,0.6719604731000001,-0.38018989560000005,-13.14906979,
17.07,17.07257995,17.0861752,,,,-0.8518448472,-10.98724365,-8.821739197000001,-3.67271924,-3.671497345,0.7589777112,,,,,,,
17.099999999999998,17.12257995,,17.11845156,17.11120328,,1.719542146,-13.58704472,3.627519131,,,,-11.06540012,44.70079803,-20.48379898,0.8042786717,-4.319629668999999,3.1237096789999996,
17.13,,17.13697812,,,,,,,-2.222873211,0.9694145918000001,0.3029802442,,,,,,,
17.16,17.17257995,17.1877802,17.16845156,17.16120328,,3.280559778,-7.4270224570000005,0.12741780279999998,-2.258149624,-1.345391035,-1.026681542,-11.71199989,44.96920013,-16.92140007,5.864144325,0.9424438477,-1.622262955,
17.189999999999998,,,17.21845156,17.21120328,,,,,,,,-12.87099934,45.4937973,-12.55379963,-0.8961680531999999,2.9460325239999996,1.353626251,
17.22,17.22257995,17.23858312,,,,-2.35274291,-6.507879257000001,0.9798609018000001,-1.76137805,-2.6771907809999997,-0.5656445622,,,,,,,
17.25,17.27257995,,17.26845156,17.26120328,,-2.506182671,-8.863613128999999,0.36909288170000004,,,,-13.57859993,45.57920074,-8.03979969,-1.48557663,1.197386742,1.896661282,
17.28,,17.28938682,,,,,,,-1.187181592,-2.245932579,0.621078968,,,,,,,
17.31,17.32257995,,17.31845156,17.31120328,,-0.2988037169,-7.678567886000001,0.3619144261,,,,-13.99339962,45.59140015,-2.866999865,0.02094662189,1.351945877,-0.24832963940000002,
17.34,,17.34018973,17.36845156,17.36120328,,,,,-1.768555522,0.004886778072,1.147323847,-13.88359928,45.38399887,3.110999823,3.675888062,-2.121031761,6.198569298,
17.37,17.37257995,17.39099182,,,,3.7016966339999997,-12.48096275,3.450450182,-0.7033905983,-0.8699992298999999,0.6093201637,,,,,,,
17.4,17.42257995,,17.41845156,17.41120328,,2.267797709,-14.32702541,0.9125627279,,,,-13.61520004,45.10339737,8.991399765,6.893520355,-3.616828918,2.692865372,
17.43,,17.44179479,,,,,,,-0.4679090083,0.3901786804,-0.5711421967,,,,,,,
17.46,17.47257995,,17.46845156,17.46120328,,-2.209173441,-14.02523041,6.0457654,,,,-13.22480011,44.46899796,14.31059933,-0.7805547714,-5.872299194,10.30981255,
17.49,,17.49259848,17.51845156,17.51120328,,,,,2.7115509510000004,-0.1939440072,-0.46806171539999997,-12.80999947,43.81019974,17.44599915,0.7555071115,-5.454388617999999,3.2877521510000003,
17.52,17.52257995,17.5434014,,,,-1.574776411,-15.25574017,0.8623134494,3.894914865,-0.3457395434,-0.8315158485999999,,,,,,,
17.55,17.57257995,,17.56845156,17.56120328,,-5.417350292,-17.78884125,-6.947261332999999,,,,-12.6026001,43.57839966,18.87339973,-3.35609293,-8.701996803,-9.062900543,
17.58,,17.59420348,,,,,,,3.3538568019999997,0.7493568659000001,-0.22998400030000002,,,,,,,
17.61,17.62257995,,17.61845156,17.61120328,,-2.7095725539999997,-14.27408409,0.704387188,,,,-12.07800007,43.77359772,18.16580009,-2.399752617,-5.2211103439999995,1.229269624,
17.64,,17.6450065,17.66845156,17.66120328,,,,,2.522188425,0.4698942602,-0.11438114939999999,-11.52899933,44.16399765,15.88439941,-0.31973767280000004,0.6909837723000001,-6.78058815,
17.669999999999998,17.67257995,17.6958102,,,,-2.0081763269999997,-8.425427437,-1.790130496,2.87052393,0.309394151,-0.4271349311,,,,,,,
17.7,17.72257995,,17.71845156,17.71120328,,2.368296146,-4.12073946,-2.558824778,,,,-11.28499985,44.50559998,12.13899994,1.942762375,4.267671108,-4.9355587960000005,
17.73,,17.74661312,,,,,,,2.414221048,2.280903578,-0.7823426126999999,,,,,,,
17.759999999999998,17.77257995,,17.76845156,17.76120328,,0.9221340418,-2.480758905,0.01016949583,,,,-10.93120003,44.5666008,7.051599979,4.520454883999999,5.85986042,-7.490774155,
17.79,,17.79741526,17.81845156,17.81120328,,,,,0.9985825419,3.346832037,-0.7936432958,-10.94339943,44.78619766,0.9637999534999999,1.519347072,6.86094141,-7.692437172000001,
17.82,17.82257995,17.84821822,,,,-0.6385845542,-0.2733799815,-2.204387903,-1.5326157809999998,2.4049055580000003,-1.112810969,,,,,,,
17.849999999999998,17.87257995,,17.86845156,17.86120328,,-1.0863415,-3.256631613,5.56929493,,,,-10.78479958,45.15219879,-5.221600056000001,0.7311669587999999,6.260364056,-3.758980274,
17.88,,17.89902192,,,,,,,-1.432436824,0.37399122119999995,-1.027597785,,,,,,,
17.91,17.92257995,,17.91845156,17.91120328,,-9.144769669,-31.7560463,17.82712746,,,,-10.8579998,45.43280029,-10.2723999,-11.31620979,-15.417202,11.20460606,
17.939999999999998,,17.94982489,17.96845156,17.96120328,,,,,1.293163657,2.290677309,-0.3695625961,-10.49199963,45.37179947,-14.61559963,1.5072453019999998,0.812664032,3.304759026,
17.97,17.97257995,,,,,-1.105484009,-2.387438774,5.286642551,,,,,,,,,,
18.0,18.02257995,18.00062697,18.01845156,18.01120328,,-6.49232626,-17.50379753,-7.153044223999999,0.1458397806,-0.5028799772,-0.5480827093,-10.29679966,44.79840088,-17.8852005,-1.7969604730000002,-3.062132835,-1.43869257,
18.029999999999998,,18.05142999,,,,,,,-0.8980981708,-2.093831778,0.3773508966,,,,,,,
18.06,18.07257995,,18.06845156,18.06120328,,-4.574478626,-5.04736042,-2.168495417,,,,-10.32119942,44.2981987,-19.98359871,-4.3279261589999996,1.7752275469999999,-12.34539509,
18.09,,18.10223374,18.11845156,18.11120328,,,,,-3.549022675,-1.5164283509999998,0.5404471159,-10.4187994,44.2737999,-20.21539879,2.806320667,-0.09832668304,-13.72539902,
18.12,18.12257995,,,,,2.179263115,-10.3788681,-9.446564674,,,,,,,,,,
18.15,18.17257995,18.15303666,18.16845156,18.16120328,,3.287738323,-13.56072426,4.111168385,-2.289761066,-2.451788187,0.6646018028,-10.67500019,44.60319901,-18.42199898,2.651594162,-5.318815231,3.0689902310000003,
18.18,,18.2038388,,,,,,,-2.651535273,0.8215895891,-0.6010736822999999,,,,,,,
18.21,18.22257995,,18.21845156,18.21120328,,1.156929731,-6.64427042,1.453639746,,,,-11.18739986,45.16439819,-15.18900013,4.129915237,1.248800278,-0.4743733704,
18.24,,18.25464182,18.26845156,18.26120328,,,,,-1.9742583040000001,-1.998844981,-0.9801044464,-12.07800007,45.57920074,-11.19960022,-2.270424366,3.4309296610000004,0.9446967244,
18.27,18.27257995,,,,,-2.383849621,-6.538986206000001,0.4220340848,,,,,,,,,,
18.3,18.32257995,18.30544552,18.31845156,18.31120328,,-2.5253252980000003,-8.995218277000001,-0.102293171,-1.370893955,-2.840439796,0.13362284,-12.70020008,45.59140015,-6.978399754,-1.9008643630000002,1.105778694,1.5711076259999999,
18.33,,18.35624848,,,,,,,-1.555980682,-1.1005940440000002,0.9726215601,,,,,,,
18.36,18.37257995,,18.36845156,18.36120328,,0.8958129883,-8.3201437,1.8607187269999999,,,,-12.72459984,45.66460037,-1.79339993,1.378041625,1.3922114369999998,1.237457395,
18.39,,18.40705062,18.41845156,18.41120328,,,,,-1.602405071,0.13499724859999998,0.9269607067,-12.88319969,45.54259872,3.952800035,4.746739388,-2.257954597,5.838288307000001,
18.419999999999998,18.42257995,,,,,4.108775616,-12.11964703,3.048156977,,,,,,,,,,
18.45,18.47257995,18.45785364,18.46845156,18.46120328,,1.015753269,-14.67398453,1.357926846,-0.4614951015,-0.6784985662,0.01954711229,-12.52939987,45.20100021,9.662400246,5.226643085,-3.9468927380000003,4.050416946,
18.48,,18.50865739,,,,,,,0.46500748399999997,0.23028941449999998,-0.5358657836999999,,,,,,,
18.509999999999998,18.52257995,,18.51845156,18.51120328,,-0.2294118702,-12.99571896,4.075275898,,,,-12.17560005,44.49340057,14.49359989,0.966835022,-5.496674538,8.480503082,
18.54,,18.55946031,18.56845156,18.56120328,,,,,3.5711658,0.42102646829999996,-0.8913788795,-11.83399963,43.93219757,17.71439934,0.08860337734,-6.08630085,2.93037653,
18.57,18.57257995,,,,,-3.080759048,-16.13450432,1.535294771,,,,,,,,,,
18.599999999999998,18.62257995,18.61026244,18.61845156,18.61120328,,-6.204888344,-16.71147346,-4.4955153469999996,3.962566137,-1.010188699,-0.49967306850000004,-11.62659931,43.74919891,18.84899902,-4.111441612,-8.912837029,-9.070896149,
18.66,18.67257995,18.66106546,18.66845156,18.66120328,,-2.510968208,-13.85773277,-0.09750752151,3.0386595730000003,1.7945165630000002,0.004886778072,-11.11419964,43.88339996,18.05599976,-2.399517059,-5.700819968999999,-0.2466558218,
18.689999999999998,,18.71186921,18.71845156,18.71120328,,,,,2.624810696,-0.1003316641,-0.23380178210000002,-10.45539951,44.18840027,15.45739937,1.782735348,0.10190677640000001,-6.071933746,
18.72,18.72257995,,,,,-0.11904292550000001,-8.013563156,-1.519741535,,,,,,,,,,
18.75,18.77257995,18.76267218,18.76845156,18.76120328,,2.7275187969999997,-5.09760952,-3.037688255,3.0800445080000003,1.8039846419999999,-0.3703261614,-10.05280018,44.51779938,11.45580006,2.940527916,3.3162746430000003,-5.1860947610000006,
18.81,18.82257995,18.81347432,18.81845156,18.81120328,,0.1298106313,-2.4233310219999997,-1.785344839,2.016559601,3.128607035,-0.8544226289,-9.772199631,44.65200043,5.9414000510000005,3.129906178,4.505161762,-6.523893833,
18.84,,18.86427734,18.86845156,18.86120328,,,,,0.4112529159,3.0805027480000002,-0.7838697433,-9.442799568,44.73740005,-0.5001999736,0.37380921840000003,7.548561096,-8.410645485,
18.87,18.87257995,,,,,-1.756630898,-0.1824527234,-2.261815548,,,,,,,,,,
18.9,18.92257995,18.91508114,18.91845156,18.91120328,,-2.426920414,-3.522234917,10.40758228,-1.803221107,1.216502309,-1.477028728,-8.930399895,44.89599991,-6.978399754,0.4550749063,6.033055305,-1.2051882740000002,
18.96,18.97257995,18.96588416,18.96845166,18.96120328,18.98876723,-9.01316452,-28.66033173,14.22383499,-0.1505738497,1.04714489,-0.2458660156,-8.967000008,44.84719849,-12.38299942,-10.41731071,-19.13386154,14.68949699,0.0
18.99,,19.0166863,19.01845161,19.01120328,,,,,0.8791618943,1.167787194,-0.5242596865,-8.295999527000001,44.42020035,-16.73839951,-0.1272592545,3.391889095,2.2848768230000003,
19.02,19.02257995,,,,,-3.2075786589999997,-3.163311481,5.586044312,,,,,,,,,,
19.05,19.07257995,19.06748932,19.06845161,19.06120328,,-5.376672267999999,-17.19512177,-9.099306107,-0.47829338909999997,-1.0763129,0.1255291104,-7.661599636,43.76139832,-20.15439987,-1.7193911080000002,-7.853900909,-1.185725451,
19.11,19.12257995,19.11829307,19.11845161,19.11120328,,-2.951247692,-3.6493537430000003,-1.5340983869999998,-1.953031421,-1.5061966180000002,0.06474980712,-7.295599937,43.26119995,-22.15519905,-1.163885713,5.446012973999999,-12.45957851,
19.14,,19.16909609,19.16845161,19.16120328,,,,,-3.7044832710000004,-3.391729355,0.5842754245,-7.197999954,43.18799973,-22.36260033,2.6607306,-1.468084335,-13.6236515,
19.169999999999998,19.17257995,,,,,0.23030917350000002,-12.39482117,-6.322136402000001,,,,,,,,,,
19.2,19.22257995,19.21989822,19.21845161,19.21120328,,3.347558975,-12.55035496,2.413759947,-2.029387236,0.7200362086,0.2347180545,-7.344399929,43.66379929,-20.31299973,3.5962409969999998,-4.869976997,3.557785511,
19.259999999999998,19.27257995,19.27070124,19.26845161,19.26120328,,0.5560321807999999,-6.313761711000001,0.594317317,-2.309613466,-0.8464815617,-1.075091124,-7.905600071,44.34700012,-16.94579887,3.227116585,1.630414009,-0.46861213450000005,
19.29,,,19.31845161,19.31120328,,,,,,,,-8.918199539,44.89599991,-12.7489996,-1.756644249,3.63323307,1.602277994,
19.32,19.32257995,19.32150505,,,,-2.2689940930000003,-6.69451952,1.38185513,-1.793447495,-1.914242625,-0.6065713167,,,,,,,
19.349999999999998,19.37257995,19.37230859,19.36845249,19.36120328,19.35962588,-1.359422326,-8.877969742000001,-0.8063812256,-1.207645059,-2.007549524,0.3298575282,-9.94299984,45.07899857,-8.649800301,-0.8027124405,0.7654542923000001,1.342248678,5.0
19.41,19.42257995,19.42311072,19.41845218,19.41120328,,-0.7271189690000001,-8.643174171,-0.5237290859,-1.732362866,-1.298661232,0.8730534315,-10.57740021,45.26199722,-3.598999977,0.2933861017,0.9591941833,-1.35866785,
19.439999999999998,,,19.46845218,19.46120328,,,,,,,,-10.97999954,45.29859924,2.183799982,2.57285738,-2.1824922559999997,5.46426487,
19.47,19.47257995,19.47391379,,,,2.363510609,-11.97817135,4.082454681000001,-1.608360887,0.2970244884,0.9797990322,,,,,,,
19.5,19.52257995,19.52471754,19.51845218,19.51120328,,4.484747887,-13.67318726,1.271785259,-0.1388150454,-0.949867487,-0.2822114229,-10.89459991,44.99359894,7.942199707,8.640387535,-3.1877613069999997,4.312944412,
19.56,19.57257995,19.57552056,19.56845218,19.56120328,,-2.613859653,-13.74018574,6.687341213,1.506807446,0.6215370893,-0.5198310018,-10.60179996,44.39579773,12.84659958,-0.4520113468,-5.821917534,11.328372,
19.59,,,19.61845218,19.61120328,,,,,,,,-10.45539951,43.85899734,15.93319988,1.4235033990000001,-5.456978798,3.52049017,
19.62,19.62257995,19.6263227,,,,-1.165304661,-15.88535118,-0.07597211747999999,4.29746294,-0.1397313178,-0.8718317747,,,,,,,
19.65,19.67257995,19.67712577,19.66845218,19.66120328,,-6.867999077,-18.62184334,-4.481158733,3.456326485,0.018936265259999998,-0.42957833409999996,-10.43099976,43.71260071,17.14099884,-3.3913412089999997,-9.902513504,-9.169915199,
19.71,19.72257995,19.72792958,19.71845218,19.71120328,,-3.6601214410000003,-14.06590843,-1.093519926,2.876632452,1.3795984980000002,-0.04153761268,-10.05280018,43.89559937,16.26259995,-2.674906254,-5.365016937,-0.266702652,
19.74,,,19.76845218,19.76120328,,,,,,,,-10.18700027,43.49300003,13.83479977,-0.39035618310000003,0.4554862976,-5.878509045,
19.77,19.77257995,19.77873254,,,,-2.020140409,-8.415856361,-1.6393826009999999,2.650313616,-0.1082726792,-0.36727190020000006,,,,,,,
19.8,19.82257995,19.82953473,19.81845218,19.81120328,,2.4448664190000002,-3.9939200880000003,-2.6880371569999997,2.640081882,2.016865015,-0.6336013079,-10.15040016,43.76139832,9.955200195,3.0036273,4.430938721,-5.611458777999999,
19.86,19.87257995,19.88033775,19.86845218,19.86120328,,0.7618148923,-1.987837434,-2.024926186,1.34355855,3.3824141030000003,-0.7490514517,-10.23579979,43.96879959,4.672599792,2.792632341,4.181615829,-6.2546963689999995,
19.89,,,19.91845218,19.91120328,,,,,,,,-10.34560013,44.13959885,-1.585999966,0.8026871681000001,7.793034554,-8.011228561,
19.919999999999998,19.92257995,19.93114156,,,,-1.2993026970000001,0.030508488419999997,-2.17806673,-0.7547017932,2.610913992,-0.8791618943,,,,,,,
19.95,19.97257995,,19.96845218,19.96120328,,-2.304886341,-3.680460215,8.964112282,,,,-10.15040016,44.99359894,-7.649399757,0.8759692907,6.477594376,-1.2127997879999999,
19.98,,19.98194458,,,,,,,-2.109255552,0.5028799772,-1.3950223919999998,,,,,,,
20.009999999999998,20.02257995,20.03274676,20.01845218,20.01120328,,-8.680562019,-29.01955414,13.14407349,0.8437327743,1.412584305,-0.1099525094,-10.21140003,45.18880081,-12.65139961,-10.67659187,-23.14748383,15.83961201,
20.04,,,20.06845218,20.06120328,,,,,,,,-9.955200195,44.82279968,-16.82379913,-0.7792465687000001,4.068736076,2.964268684,
20.07,20.07257995,20.08354978,,,,-4.512265205,-5.8564333920000005,6.617949009,0.4198047817,-0.06505523622,-0.4391991794,,,,,,,
20.099999999999998,20.12257995,,20.11845218,20.11120328,,-4.761417866,-10.79551888,-5.862714767000001,,,,-9.796599387999999,44.20059967,-19.88599968,-2.152435541,-8.02889061,-10.56436729,
20.13,,20.13435359,,,,,,,-0.8458707333,-1.836817741,0.20982603730000002,,,,,,,
20.16,20.17257995,20.18515661,20.16845218,20.16120328,,-3.171686411,-7.4030942920000005,-1.1820544,-3.8040513989999996,-2.321066856,0.5369347334000001,-9.906399727,43.67599869,-21.82579994,-2.7385606769999997,4.555241108,-8.717882156,
20.189999999999998,,,20.21845218,20.21120328,,,,,,,,-10.05280018,43.67599869,-21.60619926,2.605076313,-3.711392403,-10.10517502,
20.22,20.22257995,20.23595879,,,,0.8934201598,-13.86251926,-1.467099428,-2.25265193,-1.9128681419999998,0.8996253014,,,,,,,
20.25,20.27257995,,20.26845218,20.26120328,,4.52781868,-10.1587286,1.144965649,,,,-10.23579979,44.13959885,-19.56879997,5.849768162,-3.180921555,2.630650043,
20.279999999999998,,20.28676187,,,,,,,-2.488133669,0.45844087,-0.71423316,,,,,,,
20.31,20.32257995,20.33756567,20.31845218,20.31120328,,-0.9140582681,-6.467201233,1.171286702,-1.8878234619999998,-2.008007765,-0.972468853,-10.87020016,44.77399826,-16.00639915,1.292379618,3.0374555589999996,1.092547297,
20.34,,,20.36845218,20.36120328,,,,,,,,-11.28499985,45.00579834,-11.85839939,-1.339338541,2.3926343919999997,1.172835827,
20.37,20.37257995,20.38836869,,,,-1.76859498,-7.477271557000001,1.216750264,-1.339588046,-2.1828627590000003,0.01618745178,,,,,,,
20.4,20.42257995,,20.41845218,20.41120328,,-1.36899364,-8.667102814,-1.32113719,,,,-11.91940022,45.13999939,-7.673799992,-0.7533834576999999,0.9521369934,1.063456297,
20.43,,20.43917082,,,,,,,-1.496728539,-1.408766508,0.7088882327,,,,,,,
20.46,20.47257995,20.4899739,20.46845218,20.46120328,,0.06759724021,-9.4310112,2.255833626,-1.860793471,0.16217994689999998,0.9674293398999999,-12.38299942,45.27420044,-2.696199894,1.124610305,1.10006237,2.289107561,
20.49,,,20.51845218,20.51120328,,,,,,,,-12.51719952,45.29859924,2.9401998519999997,3.7371187210000003,-3.370090485,6.251753807,
20.52,20.52257995,20.5407777,,,,3.696911097,-12.06939697,4.393820763,-0.4953971207,-0.7392778993000001,0.38025242090000005,,,,,,,
20.55,20.57257995,,20.56845218,20.56120328,,2.641377211,-14.40359592,2.0832512380000003,,,,-12.29759979,45.15219879,8.62539959,6.450767517,-4.958913803,4.7189488410000004,
20.58,,20.59158072,,,,,,,0.4204156399,0.2020377368,-0.6827745437999999,,,,,,,
20.61,20.62257995,,20.61845218,20.61120328,,-1.603490233,-13.17996597,5.021039009,,,,-11.87059975,44.65200043,12.98079967,-0.6135085821,-4.317118645,8.799435616,
20.64,,20.64238291,20.66845218,20.66120328,,,,,3.487937927,0.6911736727,-0.5882459283,-11.66319942,44.2859993,15.3842001,0.6652562618,-5.862028122000001,0.3412944674,
20.669999999999998,20.67257995,20.69318598,,,,-1.265803218,-17.07518196,-8.117949486,3.9094223980000002,-0.6183301210000001,-0.7986828089,,,,,,,
20.7,20.72257995,,20.71845218,20.71120328,,-7.837690352999999,-17.23819351,1.298106313,,,,-11.41919994,44.21279907,15.65259933,-6.699736595,-8.650004387000001,-3.891592026,
20.73,,20.74398984,,,,,,,2.803483486,1.991820216,-0.1152974218,,,,,,,
20.759999999999998,20.77257995,,20.76845218,20.76120328,,-3.715156317,-12.76600838,-1.378564954,,,,-10.63840008,44.55439758,14.12759972,-3.170082331,-4.678966522,-3.39712739,
20.79,,20.79479286,20.81845218,20.81120328,,,,,2.5200502869999997,-0.6760551929,-0.186919257,-10.05280018,44.66419983,11.15079975,-0.19937223199999998,-0.23287010190000001,-4.561995506000001,
20.82,20.82257995,20.84559504,,,,-0.9212366939,-7.345666409,-1.584347725,2.994220495,1.245517612,-0.3019112647,,,,,,,
20.849999999999998,20.87257995,,20.86845218,20.86120328,,2.55254364,-4.029812336,-3.636193037,,,,-9.71119976,44.70079803,6.905200005,2.855944633,3.6889023780000003,-8.238073349,
20.88,,20.89639812,,,,,,,1.889197826,2.717201233,-0.8115105629000001,,,,,,,
20.91,20.92257995,,20.91845218,20.91120328,,-0.5021936297,-0.8096713423999999,-1.847857237,,,,-9.35739994,44.63980103,1.281000018,1.993701339,5.947200297999999,-6.685200691,
20.939999999999998,,20.94720192,20.96845218,20.96120328,,,,,0.42637139560000004,3.1544151310000004,-0.5981721878,-8.930399895,44.71299744,-4.904399872,0.4007453918,8.663736343,-7.342592716,
20.97,20.97257995,20.99800494,,,,-1.1126625540000001,0.5165506005,-0.6457630396,-1.555827975,1.668987393,-1.216196895,,,,,,,
21.0,21.02257995,,21.01845218,21.01120328,,-5.7379884720000005,-8.00638485,8.248059272999999,,,,-8.442399979,44.73740005,-10.89459991,-0.7607127428,4.327498436,8.42032814,
21.029999999999998,,21.04880682,,,,,,,-0.1462979168,1.1419789790000001,-0.23425991829999998,,,,,,,
21.06,21.07257995,,21.06845187,21.06120328,21.07634327,-3.3320055010000003,-14.43709564,8.370392799,,,,-7.97879982,44.51779938,-15.68919945,-6.68525219,-17.68527031,8.211946487,0.0
21.09,,21.09960989,21.11845187,21.11120328,,,,,0.680331111,0.9199360013,-0.4859289825,-7.295599937,43.98099899,-19.38579941,0.9930524826,9.003236771000001,0.8972806931,
21.119999999999997,21.12257995,,,,,-1.239482164,-0.8407780528000001,2.694019079,,,,,,,,,,
21.15,21.17257995,21.15041374,21.16845187,21.16120328,,-8.867202759,-21.93769646,-2.932105064,-1.367686987,-1.7028894419999998,-0.036650836469999996,-7.258999825,43.49300003,-21.67939949,-6.69146204,-12.43727207,-4.592869759,
21.18,,21.20121676,,,,,,,-0.8473978639,-1.0792144540000002,0.5897729993,,,,,,,
21.21,21.22257995,,21.21845187,21.21120328,,-0.06400800496,-5.485546112000001,-3.710370541,,,,-7.027199745,43.32220078,-22.75300026,0.5997759104,1.9205913540000001,-9.982199669,
21.24,,21.25201895,21.26845187,21.26120328,,,,,-3.4534249310000003,-3.50656867,-0.07345438004,-7.100399971,43.55400085,-22.14299965,3.591937065,0.24881362920000002,-10.31669426,
21.27,21.27257995,,,,,0.5584250092999999,-11.6766758,-2.513360977,,,,,,,,,,
21.3,21.32257995,21.30282202,21.31845187,21.31120328,,4.281058788,-12.66072369,1.68125701,-2.648786545,-0.4184303582,0.3574983478,-7.612799644,44.24939728,-19.39799881,4.300533295,-4.871222496000001,1.487443447,
21.33,,21.35362588,,,,,,,-2.3410720830000002,-0.3119902313,-0.8637380004,,,,,,,
21.36,21.37257995,,21.36845187,21.36120328,,-1.098305583,-6.191727638,1.9396818880000002,,,,-9.101200104,45.37179947,-15.43299961,2.251742363,2.993257523,1.781615019,
21.39,,21.4044289,21.41845187,21.41120328,,,,,-1.8010830880000002,-2.7932517530000003,-0.9234483242,-10.45539951,45.87199783,-10.93120003,-1.869016886,3.0834550860000003,1.501848221,
21.419999999999998,21.42257995,,,,,-2.5253252980000003,-7.132705212,1.2646067140000001,,,,,,,,,,
21.45,21.47257995,21.45523155,21.46845234,21.46120328,21.47068452,-1.412064433,-8.485248566000001,-2.491825581,-1.140451789,-2.82257247,0.2837385535,-11.55340004,46.15259933,-5.929199696,-1.294918299,1.02475071,0.08593225479000001,5.0
21.48,,21.50603463,,,,,,,-1.893473744,-0.7531746626000001,0.9468132256999999,,,,,,,
21.509999999999998,21.52257995,,21.51845234,21.51120328,,0.8647062778,-9.011968612999999,3.996312857,,,,-12.38299942,46.33559799,-0.23179998989999998,1.496959925,1.282509804,3.3078918460000004,
21.54,,21.55683848,21.56845234,21.56120328,,,,,-1.53734982,-0.1128540337,0.8626690506999999,-12.96859932,45.98180008,5.563199997000001,4.807338715,-3.716462135,6.675307274,
21.57,21.57257995,,,,,4.590032101,-13.27119255,2.63389945,,,,,,,,,,
21.599999999999998,21.62257995,21.6076415,21.61845234,21.61120328,,1.944467545,-14.61894989,3.9460637569999997,-0.1156028435,-0.7450809479,-0.31870955230000003,-13.0661993,45.4815979,11.3093996,4.939332962,-5.941553116000001,5.542836189,
21.63,,21.65844369,,,,,,,1.80978775,0.3177932799,-0.7965448499,,,,,,,
21.66,21.67257995,,21.66845234,21.66120328,,-1.325922847,-15.55514145,3.694518089,,,,-13.2003994,44.85939789,16.15279961,-0.08773183822999998,-4.219542503,7.739142417999999,
21.689999999999998,,21.70924681,21.71845234,21.71120328,,,,,4.173003197,0.2354816198,-0.7365291118999999,-13.37119961,44.51779938,18.65379906,-3.617445946,-8.270490646,-3.5771811010000003,
21.72,21.72257995,,,,,-4.536193371,-18.85663795,-8.761918068,,,,,,,,,,
21.75,21.77257995,21.76005062,21.76845234,21.76120328,,-4.995914459,-15.89492226,3.898207188,3.4399862289999996,0.06062658876,-0.2160872221,-13.45660019,44.55439758,19.22719955,-5.246368408,-6.192257881000001,0.3065999746,
21.779999999999998,,,,,21.80930864,,,,,,,,,,,,,0.0
21.81,21.82257995,21.81085312,21.81845176,21.81120328,,-0.9499505758,-9.895518303,-1.4048860069999998,2.882130146,0.7615737915,0.144618094,-13.16379929,44.89599991,17.66559982,-1.289223194,-3.0440673830000002,-4.96869278,
21.84,,21.8616553,21.86845176,21.86120328,,,,,2.815547705,0.4016320705,-0.07330167293999999,-12.9197998,45.32299805,14.6765995,-0.42786663770000005,2.940406799,-5.462555407999999,
21.869999999999997,21.87257995,,,,,0.6804589629000001,-4.92054081,-0.7968099117,,,,,,,,,,
21.9,21.92257995,21.91245838,21.91845176,21.91120328,,2.89980197,-3.584448338,-1.7733806369999998,2.781645775,2.499128819,-0.4511106908,-12.84659958,45.62799835,9.833199501000001,4.332980633,4.678536415,-8.101454735,
21.96,21.97257995,21.96326223,21.96845176,21.96120328,,-0.3035893738,0.008973085321,-2.518146753,1.429687977,3.287274599,-0.6971294284,-12.76119995,45.92079926,3.733199835,1.835779667,6.729978561,-7.564160824,
21.99,,22.0140653,22.01845176,22.01120328,,,,,-0.9318475127,2.505237341,-0.9787300229000001,-12.62699986,46.11599731,-3.220799923,0.5348949432,7.0800933839999995,-6.171000957,
22.02,22.02257995,,,,,-2.00099802,-1.082752228,1.192822099,,,,,,,,,,
22.05,22.07257995,22.06486749,22.06845176,22.06120328,,-11.941082,-16.80718613,12.77079391,-1.6691401,0.2370087355,-0.9987352490000001,-12.38299942,46.42099762,-9.637999535,-5.144042969,0.3625020981,5.938301086,
22.11,22.12257995,22.11567062,22.11845176,22.11120328,,-2.508575439,-8.619246483,7.386344433,0.8939749599,1.511999726,-0.03710897267,-11.8949995,46.34779739,-14.85960007,-0.7095043659,-8.169884682000001,4.780071735,
22.14,,22.16647442,22.16845176,22.16120328,,,,,0.5902311802,0.1750077456,-0.3356605768,-11.63879967,45.98180008,-19.3613987,-2.814659595,-0.9620265961,4.016861916,
22.169999999999998,22.17257995,,,,,-3.8036906719999997,-13.77637768,4.403391838,,,,,,,,,,
22.2,22.22257995,22.21727749,22.21845176,22.21120328,,-3.590729475,-5.502295494,-9.712467194,-1.4338111880000002,-2.0106036659999997,-0.060321167110000004,-10.97999954,45.24979782,-22.47239876,-0.9963867664,0.4168438911,-14.42211056,
22.259999999999998,22.27257995,22.26807973,22.26845176,22.26120328,,0.5847460628,-11.2384901,-9.934999466,-3.70662117,-2.974826097,0.5306735635000001,-10.63840008,44.82279968,-24.02179909,-0.2440464497,-1.2605381009999999,-10.86057186,
22.29,,22.3188828,22.31845176,22.31120328,,,,,-2.5702924730000003,-0.2066190839,0.5439594984,-10.62619972,44.99359894,-23.08239937,2.5334734919999997,-4.69712925,1.4998314380000002,
22.32,22.32257995,,,,,3.381058455,-12.65354538,4.558925152,,,,,,,,,,
22.349999999999998,22.37257995,22.36968754,22.36845176,22.36120328,,2.48793745,-8.10449028,1.211964726,-2.383984089,-0.39827242490000003,-0.7941014170999999,-10.87020016,45.54259872,-20.31299973,4.632611275,0.24826622010000002,-0.2008269429,
22.41,22.42257995,22.42049062,22.41845265,22.41120328,,-2.156531334,-5.636293887999999,1.56879437,-2.040535212,-1.988613248,-1.031415582,-11.72420025,46.23799896,-16.22599983,-0.9075061083,3.435474396,1.48987031,
22.439999999999998,,,22.46845265,22.46120328,,,,,,,,-12.52939987,46.59180069,-11.91940022,-1.1851099729999999,2.668118,2.377379894,
22.47,22.47257995,22.4712928,,,,-1.5221343040000002,-7.580461979,0.36670008299999995,-1.3832635880000002,-2.366880417,0.007941014133,,,,,,,
22.5,22.52257995,22.52209593,22.51845265,22.51120328,,-1.488634825,-10.33101177,-2.194816589,-1.6700564619999998,-1.163053155,0.7389724851,-13.16379929,46.73819733,-7.088200092,-0.3448793888,-0.7242546082,-1.5743710990000002,
22.56,22.57257995,22.57289978,22.56845265,22.56120328,,0.7977072597,-11.29113197,3.330809116,-2.03534317,0.2586938143,0.8713735937999999,-13.66399956,46.38439941,-1.09799993,1.294943571,-1.58963871,5.061248302,
22.59,,,22.61845265,22.61120328,,,,,,,,-13.85919952,46.29899979,5.197199821,5.748491287,-2.477056503,5.764778137,
22.619999999999997,22.62257995,22.62370286,,,,5.076074123,-12.75643635,2.710768938,-0.17790926989999997,-1.544221878,0.4283566475,,,,,,,
22.65,22.67257995,22.67450504,22.66845265,22.66120328,,1.243071318,-15.20788383,4.068097591,0.35627666119999996,0.8339592218,-0.7904363275,-13.5053997,45.88419724,10.76039982,4.287844658,-5.459198952,4.814968109,
22.71,22.72257995,22.72530817,22.71845265,22.71120328,,-1.284945726,-15.72503185,2.9141588210000005,3.36485219,0.7175928354000001,-1.0019421579999999,-13.27359962,45.23759842,15.00599957,1.21464169,-6.160243034,6.0212912560000005,
22.74,,,22.76845265,22.76120328,,,,,,,,-13.61520004,45.01799774,17.18980026,-3.737078905,-7.171983719,-5.993400097,
22.77,22.77257995,22.77611202,,,,-4.294518471,-19.00977898,-9.233603477,4.277305126,-0.8280034661,-0.5089884996,,,,,,,
22.8,22.82257995,22.8269151,22.81845265,22.81120328,,-4.983950615,-15.06670666,3.129513025,3.1192915439999997,2.231577635,-0.008246437646,-13.27359962,45.01799774,17.34840012,-5.230937481000001,-5.781264305,1.7036160230000001,
22.86,22.87257995,22.87771734,22.86845265,22.86120328,,-0.5524429083,-8.875576973,-2.788535595,2.785463572,-0.5882459283,-0.054823540149999996,-12.73680019,45.26199722,15.73799992,0.5608931184,-0.8469209671,-4.379693031,
22.89,,,22.91845265,22.91120328,,,,,,,,-12.39519978,45.53039932,12.52939987,0.7968856096,3.180531502,-4.145690918000001,
22.919999999999998,22.92257995,22.92852046,,,,1.98514545,-5.437689304,-1.249053478,3.349886417,1.63477993,-0.08429691940999999,,,,,,,
22.95,22.97257995,22.97932431,22.96845265,22.96120328,,2.0114665030000003,-3.26141715,-2.7095725539999997,2.097954988,3.14296174,-0.6464291215,-12.37080002,45.62799835,7.527400017000001,4.258009911,3.610990524,-3.521620035,
23.009999999999998,23.02257995,23.03012739,23.01845265,23.01120328,,-1.4048860069999998,-0.7331010103,-2.877070189,0.2916795611,2.9076330660000003,-0.882979691,-12.13899994,45.82320023,1.32980001,1.3739833830000001,6.2557535170000005,-8.586278915,
23.04,,,23.06845265,23.06120328,,,,,,,,-12.09019947,46.07939911,-5.111799717,-0.4483399391,6.245313167999999,-5.013343811,
23.07,23.07257995,23.08092963,,,,-2.53968215,-1.6836497780000002,4.422534466,-1.941578031,0.8041804432999999,-1.528339863,,,,,,,
23.099999999999998,23.12257995,,23.11845265,23.11120328,,-9.870393753,-22.78296089,18.82044792,,,,-12.18779945,46.43320084,-10.91899967,-7.435294151,-5.681891441,5.289126396,
23.13,,23.13173275,,,,,,,-0.48440188170000004,0.7530219555,-0.2648022771,,,,,,,
23.16,23.17257995,23.18253661,23.16845265,23.16120328,,-2.829213619,-6.503093719,9.299106598,0.9643751383,1.087002754,-0.184781298,-11.91940022,46.36000061,-15.49399948,-0.024165391919999998,-2.0209407809999997,5.015559673,
23.189999999999998,,,23.21845265,23.21120328,,,,,,,,-11.72420025,45.92079926,-19.42239952,-3.9517898560000004,-12.05190182,-0.16916608809999997,
23.22,23.22257995,23.23333968,,,,-5.134698391000001,-17.59233093,-12.27159119,-0.309088707,-1.4093773369999998,0.1163664013,,,,,,,
23.25,23.27257995,,23.26845265,23.26120328,,-2.563610315,-2.435295343,-3.6457643510000004,,,,-11.8828001,45.4693985,-22.13080025,-0.2631597519,8.023569107,-13.16737175,
23.279999999999998,,23.28414192,,,,,,,-3.403030157,-2.199966431,0.020310672,,,,,,,
23.31,23.32257995,23.3349451,23.31845265,23.31120328,,0.7307082415,-14.44188118,-5.834000587,-3.33721137,-3.397379637,0.8409839869,-12.44399929,45.50600052,-22.60659981,3.1176347730000002,-3.48476696,-15.95678043,
23.34,,,23.36845265,23.36120328,,,,,,,,-13.11499977,45.94519806,-20.8375988,5.269592285,-4.232385635,4.968070984,
23.369999999999997,23.37257995,23.38574895,,,,4.887041092,-11.31266689,2.966800928,-2.231119633,0.8438854814,-0.2531961799,,,,,,,
23.4,23.42257995,,23.41845265,23.41120328,,0.7713862062000001,-6.270690918,0.5823532343,,,,-14.34719944,46.67720032,-17.25079918,3.3478140830000003,2.555104256,-0.375587821,
23.43,,23.43655202,,,,,,,-2.14269948,-1.51230514,-1.089904189,,,,,,,
23.46,23.47257995,23.48735426,23.46845265,23.46120328,,-2.010569334,-6.653841496,1.0851451159999999,-1.6781501769999998,-2.155069113,-0.3348970115,-15.9819994,47.25059891,-12.73680019,-1.614416361,3.6556730269999997,1.263294935,
23.49,,,23.51845265,23.51120328,,,,,,,,-17.27519989,47.42139816,-7.990999699,-0.6463998556,0.5529575348,2.645489693,
23.52,23.52257995,23.53815739,,,,-1.249053478,-9.143573761,0.5440680385,-1.235743999,-2.0249586109999997,0.5444176197,,,,,,,
23.55,23.57257995,,23.56845197,23.56120328,23.56942984,-0.2892324328,-8.329714775,-1.5101702209999999,,,,-18.22679901,47.20179749,-2.781599998,0.4919062257,0.95408535,-0.9120504856,5.0
23.58,,23.58896062,,,,,,,-1.788866162,-0.4619532526,1.113269091,,,,,,,
23.61,23.62257995,23.63976369,23.61845197,23.61120328,,1.927717686,-11.59053421,2.291725874,-1.3994510169999999,-0.43797749280000003,0.7259919643000001,-18.94659996,47.2262001,3.5501999860000004,2.72045064,-2.147185326,3.8558902739999996,
23.64,,,23.66845197,23.66120328,,,,,,,,-19.09300041,46.98220062,10.08939934,6.406997204,-4.150343895,6.663328171,
23.669999999999998,23.67257995,23.69056593,,,,3.4552359580000003,-14.99492264,3.129513025,0.06413896382,-0.15484978259999999,-0.4214846194,,,,,,,
23.7,23.72257995,,23.71845197,23.71120328,,0.2638086975,-15.33230972,5.949753284,,,,-18.81239891,46.32339859,15.3963995,2.497484446,-6.709429741,8.881229401,
23.73,,23.74136911,,,,,,,2.6380965709999997,0.542737782,-0.7010999322,,,,,,,
23.759999999999998,23.77257995,,23.76845197,23.76120328,,-0.890130043,-16.4216423,-0.6505486369,,,,-18.65379906,45.75,18.28779984,2.7182450289999998,-6.956448555,2.640313625,
23.79,,23.7921728,23.81845182,23.81120328,23.79321119,,,,4.433071136000001,0.1346918195,-1.011257648,-18.50740051,45.56699753,19.12960052,-4.557731152,-9.656822205,-8.512264252000001,0.0
23.82,23.82257995,23.84297588,,,,-7.79461956,-19.17249107,-3.399004459,3.3153734210000003,1.1752700809999999,-0.23425991829999998,,,,,,,
23.849999999999998,23.87257995,,23.86845182,23.86120328,,-4.433301926,-13.33101273,-1.960319996,,,,-18.00720024,45.66460037,17.8973999,-3.6273136139999997,-4.8138294219999995,-1.709218383,
23.88,,23.89377812,,,,,,,2.7715666289999996,-0.01649287529,-0.2166980654,,,,,,,
23.91,23.92257995,,23.91845182,23.91120328,,-1.129412293,-7.850851059,-0.6601199508,,,,-17.3118,45.92079926,14.8107996,1.0333604809999999,-0.04778003693,-5.901535987999999,
23.939999999999998,,23.94458124,23.96845182,23.96120328,,,,,3.46854353,1.046839476,-0.2901524603,-16.60420036,46.22579956,9.991799355,3.1006414889999996,3.146314621,-7.4402933120000005,
23.97,23.97257995,23.99538515,,,,3.843172312,-2.36111784,-7.478767395,2.2538735869999997,2.524937153,-0.7524111270999999,,,,,,,
24.0,24.02257995,,24.01845182,24.01120328,,-0.028115665539999994,-0.6445665956000001,-2.554039001,,,,-16.07959938,46.0428009,3.513599873,1.497407317,5.792341709,-8.629821777,
24.029999999999998,,24.04618822,,,,,,,0.7661551833,3.463045835,-0.7197307944,,,,,,,
24.06,24.07257995,,24.06845182,24.06120328,,-1.333101273,0.6194419861,-0.8853443861,,,,-15.43299961,45.82320023,-3.794199944,0.6378022432,8.421726227,-7.868805885,
24.09,,24.09699046,24.11845182,24.11120328,,,,,-1.651731014,1.77176249,-1.52482748,-14.63999939,45.71339798,-10.97999954,0.1264170408,4.4978423119999995,6.817529202,
24.119999999999997,24.12257995,24.14779359,,,,-5.424529076000001,-10.64716339,10.6543417,-0.014660334209999999,1.516275644,-0.39460733530000003,,,,,,,
24.15,24.17257995,,24.16845182,24.16120328,,-2.087139606,-13.79312706,8.877969742000001,,,,-13.95679951,45.24979782,-17.16539955,-3.7909147739999995,-14.2007761,8.186142921,
24.18,,24.19859744,,,,,,,0.8066238165,1.109756708,-0.4459185004,,,,,,,
24.21,24.22257995,,24.21845182,24.21120328,,-5.261816978,-8.542675972,4.266701698,,,,-12.68799973,44.43239975,-22.05760002,-2.7301769260000004,4.465625286,1.290987492,
24.24,,24.24940051,24.26845182,24.26120328,,,,,-1.018740535,-1.586981177,-0.1021642014,-11.68760014,43.65159988,-25.35159874,-3.6092338560000004,-6.754865646,-11.39220238,
24.27,24.27257995,,,,,-4.318446636,-8.877969742000001,-6.279065609,,,,,,,,,,
24.3,24.32257995,24.30020275,24.31845182,24.31120328,,-2.206780672,-9.270691872,-5.761917114,-2.124221325,-1.764432311,0.2881672084,-11.11419964,43.1391983,-27.04739952,-2.379038334,0.6180000305,-4.226531982,
24.33,,24.35100588,,,,,,,-3.639733315,-3.271697998,0.4950917065,,,,,,,
24.36,24.37257995,,24.36845182,24.36120328,,2.404188633,-12.60060406,0.12741780279999998,,,,-10.90679932,43.33440018,-26.15679932,3.376150608,-2.384352684,-5.924314498999999,
24.39,,24.40181046,24.41845254,24.41120328,,,,,-2.550745487,0.41476529840000004,-0.01328592747,-11.1385994,44.09079742,-23.167799,5.517721176,-2.603117943,-0.08635079861,
24.419999999999998,24.42257995,,,,,3.3260235789999997,-9.895518303,-0.1671984792,,,,,,,,,,
24.45,24.47257995,24.45261353,24.46845254,24.46120328,,-1.52931273,-6.701697826,1.4991034269999999,-2.463394165,-0.8686248064000001,-1.010494113,-12.00479984,45.03020096,-18.81239891,0.120942235,3.2265996930000003,1.6868414880000002,
24.48,,24.50341572,,,,,,,-1.752673507,-2.7640838619999997,-0.6198572515999999,,,,,,,
24.509999999999998,24.52257995,,24.51845254,24.51120328,,-2.16131711,-7.417450905,-0.413659215,,,,-13.32240009,45.62799835,-13.65180016,-1.424648404,2.4527769090000002,0.9152135848999999,
24.54,,24.55421812,24.56845181,24.56120328,24.5519626,,,,-1.4455699919999998,-2.689560413,0.4057552814,-14.54239941,46.37220001,-7.832399845,-1.439435005,0.35795307159999995,-1.160284519,5.0
24.57,24.57257995,,,,,-1.9674984219999998,-9.720542907999999,-1.953141451,,,,,,,,,,
24.599999999999998,24.62257995,24.60502197,24.61845181,24.61120328,,1.281356573,-11.4825573,2.26540494,-1.94417417,-0.04672981426,1.02316916,-15.44519997,46.6405983,-1.32980001,1.558023214,-1.633862495,3.941812754,
24.63,,24.65582499,,,,,,,-0.9860602020999999,-1.0923476220000001,0.6073349118,,,,,,,
24.66,24.67257995,,24.66845181,24.66120328,,5.123930454,-12.18425274,1.966002941,,,,-15.88439941,46.51860046,5.355799675,6.979592322999999,-3.195363045,6.22940588,
24.689999999999998,,24.70662718,24.71845181,24.71120328,,,,,-0.17592400309999998,-0.2571666837,-0.3272614181,-15.88439941,46.10379791,11.66319942,1.087445021,-5.743280411000001,4.625688076,
24.72,24.72257995,,,,,-2.015354872,-13.75244904,5.729613781,,,,,,,,,,
