"Time (s)","Gyroscope x (rad/s)","Gyroscope y (rad/s)","Gyroscope z (rad/s)"
6.739640800E-2,-3.542914093E-1,3.119902313E-1,-3.994941115E-1
1.181973460E-1,-2.425063550E-1,3.817795310E-3,-3.330644667E-1
1.689991690E-1,-2.909159958E-1,-3.710896969E-1,-3.038965166E-1
2.198017730E-1,-5.932853818E-1,-8.362498879E-1,-5.018110275E-1
2.706034920E-1,-3.655920923E-1,-6.381826997E-1,-6.219952106E-1
3.214045330E-1,-3.761292100E-1,-8.867974877E-1,-3.446705639E-1
3.722064080E-1,-1.264453828E-1,-8.869501948E-1,8.964183182E-2
4.230094800E-1,2.370087355E-1,-1.221694469E0,-2.825168520E-2
4.738111980E-1,5.546492934E-1,-1.341725945E0,1.012479365E-1
5.246122400E-1,-2.029540092E-1,-4.940227270E-1,3.016058207E-1
5.754141150E-1,-1.374406274E-3,-3.706315756E-1,1.437018216E-1
6.262167190E-1,9.932376146E-1,-8.506048322E-1,-8.276980370E-2
6.770185940E-1,6.248967648E-1,-1.793294787E0,-9.810206890E-1
7.278195840E-1,-1.730835676E0,-1.928750277E0,-6.430694461E-1
7.786214590E-1,-4.243250370E0,-2.686964273E0,-7.070557028E-2
8.294241150E-1,-5.141043186E0,-3.483356476E0,-7.269082218E-2
8.802258860E-1,-5.655223846E0,-2.968564987E0,-3.949127495E-1
9.310269800E-1,-4.080307007E0,-2.506764412E0,2.417428046E-1
9.818289070E-1,-3.086763859E0,-1.355775476E0,7.476770282E-1
1.032631511E0,-1.893626526E-2,-1.886143565E0,1.153890491E0
1.083433334E0,-1.218487620E0,-1.355928183E0,2.346722364E0
1.134234531E0,-2.129108191E0,-6.012263894E-1,1.794516563E0
1.185036458E0,4.259132445E-1,-7.252284288E-1,4.564556181E-1
1.235839114E0,1.435490996E-1,-1.428008199E0,5.792359114E-1
1.286640937E0,-4.285093546E-1,6.878139973E-1,6.864396334E-1
1.337442083E0,-3.329117596E-1,7.502731681E-1,1.544527292E0
1.388244010E0,-6.074876189E-1,-2.551814318E-1,1.732057452E0
1.439046666E0,-7.588250041E-1,-4.511106908E-1,2.392383337E0
1.489848593E0,-1.517955512E-1,-4.146125913E-1,2.105895996E0
1.540649635E0,1.823379099E-1,-4.475983381E-1,2.307933569E0
1.591451614E0,3.997995257E-1,-2.322746664E-1,2.229745150E0
1.642254322E0,-3.574983478E-1,-3.329575777E0,1.927528501E0
1.693056249E0,6.659762263E-1,-1.791462302E0,8.840487003E-1
1.743857291E0,-2.137965336E-2,1.321720719E0,1.677539229E0
1.794659270E0,6.164975762E-1,-1.122737288E0,1.251778722E0
1.845461978E0,1.123195410E0,3.833066523E-1,1.677997470E0
1.896263958E0,1.015533581E-1,2.307170153E0,2.512872934E0
1.947065051E0,-6.693359017E-1,2.044963837E0,4.375193596E0
1.997867031E0,-1.371352077E-1,6.597150564E-1,-1.391815424E0
2.048669739E0,9.197832346E-1,1.034011722E0,2.903051674E-1
2.099471614E0,1.444959164E0,3.622324169E-1,2.026485801E-1
2.150272812E0,2.267159700E0,5.893148780E-1,3.976615667E-1
2.201074791E0,2.262883663E0,5.283828825E-2,3.657447994E-1
2.251877551E0,1.130678296E0,3.628432751E-1,-2.186833173E-1
2.302679531E0,7.762341499E-1,2.608317733E-1,-2.309002578E-1
2.353480624E0,3.894151151E-1,9.552124143E-1,-3.883461356E-1
2.404282656E0,5.714476109E-1,1.486191392E0,-5.195255876E-1
2.455085416E0,5.523586273E-1,8.887827396E-1,-6.572716236E-1
2.505887343E0,-7.082774043E-1,-7.947123051E-1,-4.708105326E-1
2.556688541E0,-1.446180940E-1,-1.044090629E0,1.304158866E-1
2.607490572E0,-2.578233480E0,-9.040539265E-1,2.095206082E-1
2.658293333E0,-1.830098391E0,-1.486344099E0,8.857285380E-1
2.709095364E0,-2.417275429E0,1.271936655E0,-6.861341596E-1
2.759896510E0,-1.546970725E0,-9.155073166E-1,-7.304205894E-1
2.810698541E0,-1.586064935E0,-1.209935665E0,6.032116711E-2
2.861501353E0,-1.112963676E0,-1.841857195E0,6.055023670E-1
2.912303281E0,-1.731141090E0,2.512109280E-1,8.606837988E-1
2.963104531E0,-6.313106418E-1,-8.942803741E-1,3.118375242E-1
3.013906614E0,5.619794875E-2,-1.841704547E-1,-4.518742561E-1
3.064709374E0,2.345958948E0,-2.075353563E-1,-6.056550741E-1
3.115511353E0,3.869870186E0,-5.375455618E-1,-9.513946176E-1
3.166312603E0,3.137616873E0,7.815790772E-1,-2.811424434E-1
3.217114687E0,2.647259235E0,-1.383569092E-1,-6.016845629E-2
3.267917499E0,3.009949923E0,5.323534012E-1,-3.788780272E-1
3.318719531E0,2.633973360E0,1.916380525E0,-6.511631608E-1
3.369520728E0,1.095554590E0,2.966732502E0,-7.638645172E-1
3.420322812E0,-1.127624035E0,2.088944912E0,-8.075400591E-1
3.471125624E0,-1.584079623E0,-2.115058601E-1,-8.108997345E-1
3.521927708E0,9.252808690E-1,1.474738002E0,-1.965401024E-1
3.572728906E0,-2.748812735E-2,-1.847812906E-2,-3.426853120E-1
3.623530989E0,-1.122126460E0,-1.448776960E0,2.231119573E-1
3.674333853E0,-2.831887960E0,-1.719229579E0,-1.369825006E-1
3.725135833E0,-2.911145210E0,-1.869650722E0,2.939702570E-1
3.775937135E0,-2.130635262E0,3.359659761E-2,-2.009687424E-1
3.826739270E0,-1.851478100E0,-1.457328796E0,-5.372401476E-1
3.877542083E0,-1.445417285E0,-2.364284277E0,4.611896724E-2
3.928344114E0,-1.371046662E0,-1.586828470E0,6.525375843E-1
3.979145416E0,-1.886907220E0,9.315420873E-3,9.623898268E-1
4.029947551E0,-4.813476503E-1,-8.651124239E-1,3.991886973E-1
4.080750416E0,-2.489202619E-1,2.192941606E-1,-6.219952106E-1
4.131552499E0,2.963220119E0,-8.185353130E-2,-5.398362875E-1
4.182353749E0,4.010670185E0,-4.779879749E-1,-8.235748410E-1
4.233155885E0,3.231381893E0,1.616607308E0,-2.402156889E-1
4.283958749E0,2.647717476E0,-6.734591126E-1,-2.461714447E-1
4.334760885E0,3.402724743E0,9.588775039E-1,-1.995943487E-1
4.385562135E0,2.024653196E0,2.181335449E0,-7.621846795E-1
4.436364270E0,4.492781460E-1,2.734305143E0,-6.514685750E-1
4.487167187E0,-1.991667509E0,1.743663549E0,-1.088682532E0
4.537969322E0,-2.397575527E-1,1.124722481E0,-2.415900975E-1
4.588770572E0,1.092500329E0,1.337144613E0,-5.722111464E-1
4.639572760E0,-2.695363462E-1,-9.579612017E-1,2.855710872E-2
4.690375676E0,-2.231577635E0,-1.518566251E0,3.037438095E-1
4.741177812E0,-3.284983873E0,-2.313584089E0,6.392516494E-1
4.791979062E0,-2.462325335E0,6.542174220E-1,-2.692309320E-1
4.842781301E0,-2.044963837E0,-9.278770089E-1,-8.640434742E-1
4.893584218E0,-1.737249613E0,-1.759850979E0,-2.174616307E-1
4.944386353E0,-1.254680276E0,-1.625922680E0,3.939964771E-1
4.995187656E0,-1.714190125E0,-7.571451664E-1,8.144121170E-1
5.045989843E0,-1.930735469E0,2.356343269E-1,7.930324674E-1
5.096792812E0,-1.188097894E-1,-1.358218908E0,-7.788302377E-3
5.147594947E0,1.463742733E0,4.054498672E-1,-6.245913506E-1
5.198396249E0,3.870175600E0,6.688777357E-2,-1.031720996E0
5.249198489E0,3.663556337E0,-4.769189954E-1,-3.860554695E-1
5.300001406E0,2.731861591E0,1.078145385E0,-8.460234851E-2
5.350803593E0,2.880297422E0,-6.071822047E-1,-5.554128885E-1
5.401604947E0,2.929165363E0,2.274184227E0,-7.120952010E-1
5.452407135E0,1.461299300E0,3.148154020E0,-8.310576677E-1
5.503210103E0,-9.901834130E-1,2.558228254E0,-1.146560311E0
5.554012291E0,-1.619508743E0,8.025006056E-1,-9.474241138E-1
5.604813645E0,9.833113551E-1,1.921878219E0,-1.936385781E-1
5.655615885E0,-1.036913246E-1,-4.188885093E-1,-3.637595475E-1
5.706418853E0,-8.898517489E-1,-1.433963895E0,3.403946459E-1
5.757221041E0,-3.716700077E0,-2.326411724E0,2.287622988E-1
5.808022395E0,-2.748354435E0,-5.613686442E-1,3.208475113E-1
5.858824635E0,-2.499434233E0,-2.031067163E-1,-8.261709213E-1
5.909627656E0,-2.026791096E0,-1.909355879E0,-6.128324866E-1
5.960429843E0,-1.526507258E0,-2.237991571E0,4.283566475E-1
6.011231197E0,-1.950893402E0,-5.740436912E-1,1.048213840E0
6.062033437E0,-1.229941010E0,-5.473191738E-1,8.655705452E-1
6.112836458E0,-2.996205688E-1,-5.558710098E-1,-3.810159862E-1
6.163638593E0,1.470614791E0,6.887302548E-2,-7.085828185E-1
6.214440051E0,3.830317736E0,1.863084137E-1,-9.791881442E-1
6.265242291E0,3.572234869E0,1.426328421E-1,-2.252499312E-1
6.316045312E0,2.907633066E0,1.998997629E-1,1.805053651E-1
6.366847551E0,2.811729908E0,-4.445441067E-1,-1.450762302E-1
6.417648906E0,2.594115496E0,1.601183414E0,-6.450546980E-1
6.468451197E0,1.182142138E0,3.211529493E0,-7.937960029E-1
6.519254218E0,-1.108687758E0,2.558228254E0,-1.163663983E0
6.570056458E0,-1.189472318E0,6.972821355E-1,-1.050504565E0
6.620857812E0,1.039509296E0,1.586370349E0,-2.819060087E-1
6.671660103E0,5.679352283E-1,-3.384093940E-1,-1.288887709E-1
6.722463124E0,-1.310267329E0,-1.657686710E0,5.176930428E-1
6.773265416E0,-3.805120230E0,-2.790044785E0,3.970507085E-1
6.824066770E0,-3.095621109E0,-6.146650314E-1,2.916795574E-2
6.874869062E0,-2.580066204E0,-8.128849864E-1,-8.545753360E-1
6.925672135E0,-1.956696510E0,-2.292815208E0,-5.305208564E-1
6.976474374E0,-1.463895440E0,-2.948865175E0,3.501681983E-1
7.027275781E0,-1.583316088E0,-4.269822240E-1,8.835905790E-1
7.078078072E0,-1.388608575E0,-6.368082762E-2,9.026795626E-1
7.128881093E0,-3.006895781E-1,-5.021164417E-1,-2.031067200E-2
7.179683281E0,1.305991411E0,3.263451457E-1,-6.426113248E-1
7.230484791E0,4.182318687E0,-1.647760421E-1,-7.857022882E-1
7.281287083E0,3.862998009E0,-3.057290614E-1,-1.921114624E-1
7.332090103E0,2.945810795E0,1.232995152E0,1.580567211E-1
7.382892395E0,3.373404026E0,-1.568350345E-1,3.573456407E-2
7.433693801E0,2.775079012E0,1.664558768E0,-7.090409398E-1
7.484496093E0,1.359135151E0,2.996052980E0,-9.318475127E-1
7.535299166E0,-1.406933904E0,1.990140319E0,-1.305838704E0
7.586101406E0,-1.639514089E0,4.220954478E-1,-8.481613994E-1
7.636902864E0,1.247044683E0,2.004342556E0,-3.290939629E-1
7.687705156E0,-1.708845198E-1,-8.525900841E-1,-2.229592502E-1
7.738508228E0,-1.435032964E0,-1.586675763E0,1.116323397E-1
7.789310416E0,-4.177584171E0,-2.568154573E0,3.752129376E-1
7.840111926E0,-2.148349762E0,1.056765765E-1,4.333961308E-1
7.890914270E0,-2.048323631E0,-3.052709103E-1,-7.756233215E-1
7.941717291E0,-1.880645990E0,-1.730530262E0,-6.763606071E-1
7.992519583E0,-1.277739763E0,-1.865832925E0,3.002314270E-1
8.043321041E0,-1.664406061E0,-7.806627750E-1,8.909206986E-1
8.094123385E0,-1.593089700E0,-5.955760833E-3,9.506310225E-1
8.144926406E0,-1.043021679E-1,-9.286405444E-1,-5.589252338E-2
8.195728697E0,1.209630251E0,7.047650218E-1,-6.659762263E-1
8.246530156E0,3.925304413E0,1.374406274E-3,-1.052184463E0
8.297332499E0,3.730902433E0,-7.882983685E-1,-3.625378609E-1
8.348135572E0,2.731709003E0,1.498866439E0,8.643488586E-2
8.398937864E0,3.070881844E0,-4.266768098E-1,-1.710372269E-1
8.449739322E0,2.773399353E0,1.807649732E0,-4.659237564E-1
8.500541666E0,1.256818295E0,2.863346577E0,-7.660024762E-1
8.551344739E0,-8.794673681E-1,2.280140162E0,-1.031873703E0
8.602147031E0,-1.774053097E0,6.748335361E-1,-1.254374862E0
8.652948489E0,7.553126216E-1,1.711899400E0,-2.043284029E-1
8.703750833E0,2.831276953E-1,-6.204680800E-1,-3.573456407E-1
8.754553958E0,-9.009997249E-1,-1.450609565E0,1.353026628E-1
8.805356249E0,-3.932329178E0,-2.698875904E0,5.071559548E-1
8.856157708E0,-2.805010557E0,-6.844543815E-1,5.234960914E-1
8.906960103E0,-2.476680279E0,-2.295258641E-1,-8.269344568E-1
8.957763176E0,-2.196606636E0,-2.191414595E0,-7.653915882E-1
9.008565520E0,-1.314543247E0,-3.127232552E0,2.872509360E-1
9.059366978E0,-1.729155898E0,-2.716743052E-1,9.749122262E-1
9.110169322E0,-1.248113632E0,-3.939964771E-1,8.299887180E-1
9.160972447E0,-1.175880954E-1,-3.753656447E-1,-2.249445021E-1
9.211774791E0,1.706707239E0,5.949652195E-1,-7.866185308E-1
9.262576249E0,4.136199474E0,-2.501419485E-1,-1.141673565E0
9.313378645E0,3.633013964E0,-5.471664071E-1,-3.315373361E-1
9.364181770E0,2.784547329E0,1.087766290E0,1.131594554E-1
9.414984062E0,3.420286417E0,7.513421029E-2,-1.786728203E-1
9.465785572E0,2.741787910E0,2.240893126E0,-5.158604980E-1
9.516587916E0,1.231620789E0,3.123414755E0,-8.933641315E-1
9.567391041E0,-1.344780207E0,2.207907438E0,-9.823951125E-1
9.618193385E0,-1.838802934E0,8.597674966E-2,-6.671979427E-1
9.668994895E0,1.054016948E0,1.685022116E0,-1.931804419E-1
9.719797239E0,-7.589777559E-2,-3.958290219E-1,-1.884463727E-1
9.770600364E0,-1.214364409E0,-1.613400340E0,4.402681589E-1
9.821402708E0,-3.880407095E0,-2.566780090E0,2.034121305E-1
9.872204218E0,-2.534099817E0,-6.798729897E-1,4.682144225E-1
9.923006614E0,-2.128802776E0,-2.331909388E-1,-6.978929639E-1
9.973809739E0,-2.107117653E0,-1.622563004E0,-7.722636461E-1
1.002461208E1,-1.464811683E0,-2.155069113E0,2.136438340E-1
1.007541359E1,-1.566670537E0,-1.346001983E0,9.384140968E-1
1.012621599E1,-1.630504012E0,4.976878166E-1,1.031720996E0
1.017701911E1,-2.641914487E-1,-1.108840466E0,-6.062658876E-2
1.022782146E1,7.391251922E-1,5.691569448E-1,-6.076403260E-1
1.027862297E1,3.556810856E0,4.947862923E-1,-9.587247968E-1
1.032942536E1,3.896900177E0,-9.820896983E-1,-1.953184158E-1
1.038022849E1,3.087374687E0,1.872399569E0,2.576248348E-1
1.043103052E1,2.752019644E0,-5.520532131E-1,-9.162708884E-4
1.048183203E1,2.939244270E0,1.570946455E0,-3.770454824E-1
1.053263442E1,1.677081108E0,2.655505657E0,-8.432746530E-1
1.058343760E1,-5.114318728E-1,2.545706034E0,-1.038745761E0
1.063423989E1,-1.665475011E0,1.136786699E0,-1.389524817E0
1.068504151E1,5.115845799E-1,1.455649018E0,-3.264978528E-1
1.073584390E1,1.207339644E0,1.215738773E0,-4.370612204E-1
1.078664708E1,-3.407000601E-1,-3.926220834E-1,3.550549746E-1
1.083744948E1,-2.632598877E0,-2.381998777E0,1.768402755E-1
1.088825098E1,-3.861318350E0,-3.175794840E0,5.621321797E-1
1.093905343E1,-2.683451891E0,8.906152844E-1,-9.697200358E-2
1.098985661E1,-2.115822077E0,-1.366465330E0,-1.075854778E0
1.104065901E1,-1.786575556E0,-2.147891760E0,-4.902049303E-1
1.109146057E1,-1.411820769E0,-1.845369577E0,4.129327536E-1
1.114226302E1,-1.676928401E0,-7.518002391E-1,1.029583097E0
1.119306619E1,-1.421288848E0,-3.387148082E-1,7.559235096E-1
1.124386864E1,-1.214058921E-1,-3.263451457E-1,-4.538595080E-1
1.129467020E1,2.146517277E0,2.229592502E-1,-4.749337435E-1
1.134547270E1,4.035867691E0,9.330692142E-2,-9.906415343E-1
1.139627588E1,3.510386467E0,6.552863717E-1,-3.901786804E-1
1.144707833E1,2.825932026E0,6.390989423E-1,-1.021642014E-1
1.149787989E1,3.007811785E0,9.407047927E-2,-3.717005551E-1
1.154868239E1,2.818907499E0,2.303046942E0,-6.673506498E-1
1.159948562E1,1.323247910E0,3.231076479E0,-8.521319032E-1
1.165028802E1,-1.155112147E0,2.668333530E0,-1.218029380E0
1.170108963E1,-1.438392639E0,6.282563806E-1,-9.161182046E-1
1.175189213E1,1.016602516E0,1.410904408E0,-2.072299272E-1
1.180269536E1,-2.336490750E-1,-7.730271816E-1,-2.206685692E-1
1.185349786E1,-1.442210436E0,-1.973800182E0,5.178457499E-1
1.190429948E1,-4.032660961E0,-2.856474400E0,9.697200358E-2
1.195510198E1,-2.573652267E0,-1.022100210E0,4.100312293E-1
1.200590526E1,-2.563878775E0,-3.161134422E-1,-8.261709213E-1
1.205670770E1,-1.873315811E0,-2.750950575E0,-7.459971905E-1
1.210750932E1,-1.497339368E0,-2.451635361E0,4.149180055E-1
1.215831187E1,-1.743052602E0,-3.020639718E-1,1.071273327E0
1.220911515E1,-1.060889006E0,-6.994200945E-1,7.995990515E-1
1.225991765E1,-5.375456065E-2,-2.370087355E-1,-5.209000111E-1
1.231071932E1,2.354816198E0,5.155550838E-1,-7.235485911E-1
1.236152187E1,4.361144066E0,-1.893626451E-1,-7.699729800E-1
1.241232515E1,3.361339808E0,6.843016148E-1,-3.179459870E-1
1.246312765E1,2.747896433E0,4.448495209E-1,-9.773556143E-2
1.251392932E1,3.063551664E0,1.979145110E-1,-3.249707520E-1
1.256473192E1,2.456827641E0,2.236769915E0,-7.606575489E-1
1.261553520E1,9.571976662E-1,3.054083586E0,-8.434273601E-1
1.266633776E1,-1.842009902E0,2.233562946E0,-1.148851037E0
1.271713948E1,-8.228112459E-1,1.100288630E0,-6.878139973E-1
1.276794203E1,1.260177851E0,1.934095144E0,-5.010474920E-1
1.281874536E1,6.459710002E-2,-4.645493329E-1,-2.635805905E-1
1.286954791E1,-1.235591292E0,-1.966622710E0,3.979669809E-1
1.292034963E1,-3.862998009E0,-2.190650940E0,4.065188468E-1
1.297115224E1,-2.651382446E0,-8.596147895E-1,4.999784827E-1
1.302195562E1,-2.527227879E0,-2.370087355E-1,-9.280297160E-1
1.307275817E1,-1.997165084E0,-2.552425385E0,-9.176452756E-1
1.312355994E1,-1.415638566E0,-2.680550575E0,2.379250079E-1
1.317436255E1,-1.577971220E0,-1.216044188E0,9.561286569E-1
1.322516593E1,-1.593242407E0,-2.988570333E-1,8.977927566E-1
1.327596849E1,-4.694361091E-1,-7.415685654E-1,-8.933641016E-2
1.332677026E1,7.782194018E-1,2.874036431E-1,-7.180509567E-1
1.337757291E1,3.618811846E0,3.845283389E-1,-9.220739603E-1
1.342837630E1,4.124898911E0,-1.385096163E-1,-1.811162084E-1
1.347917890E1,3.025984526E0,2.073673725E0,1.377460510E-1
1.352998067E1,2.752935886E0,-1.129762053E0,1.826433241E-1
1.358078338E1,2.920918941E0,1.299883008E0,-9.040539712E-2
1.363158677E1,1.581941724E0,2.576095581E0,-7.834116220E-1
1.368238942E1,-4.352286756E-1,2.637638569E0,-8.382351398E-1
1.373319119E1,-2.020988226E0,9.436063170E-1,-1.471989155E0
1.378399390E1,5.387672782E-1,1.565907001E0,-1.149920002E-1
1.383479734E1,1.157555580E0,7.088882327E-1,-3.909422457E-1
1.388559994E1,-4.740174711E-1,-1.208714008E0,2.631224692E-1
1.393640177E1,-3.811228752E0,-2.795847893E0,3.416163325E-1
1.398720448E1,-2.533336401E0,-9.011524320E-1,6.710157394E-1
1.403800796E1,-2.256469727E0,5.465555787E-1,-6.806365848E-1
1.408881062E1,-2.223484039E0,-1.211920977E0,-9.071081877E-1
1.413961244E1,-1.628366113E0,-1.602099657E0,1.527118124E-2
1.419041515E1,-1.378071427E0,-1.774969459E0,6.617003083E-1
1.424121864E1,-1.884616494E0,-1.736333370E-1,9.946120381E-1
1.429202130E1,-1.000109673E0,-5.181511641E-1,5.195255876E-1
1.434282317E1,3.208475113E-1,2.199050039E-2,-4.619532526E-1
1.439362593E1,3.064009905E0,6.642963886E-1,-9.460496902E-1
1.444442942E1,3.979975224E0,-4.482091665E-1,-7.957812548E-1
1.449523213E1,3.215652704E0,1.831167340E0,-7.207997888E-2
1.454603401E1,2.847006321E0,-9.498675168E-2,2.764083818E-2
1.459683677E1,3.408375025E0,1.166718245E0,-1.404948682E-1
1.464764026E1,2.243336678E0,2.420787573E0,-6.931589246E-1
1.469844297E1,5.065450668E-1,3.245889664E0,-8.086090684E-1
1.474924484E1,-2.193247080E0,1.160609841E0,-1.538724303E0
1.480004765E1,4.779879749E-2,9.382613897E-1,-2.133384049E-1
1.485085119E1,9.709417224E-1,1.034317136E0,-6.691831946E-1
1.490165390E1,-7.113316059E-1,-1.687465549E0,5.864133686E-2
1.495245583E1,-1.641651988E0,-7.363763452E-1,1.514901221E-1
1.500325859E1,-3.405778885E0,-3.443498611E0,3.278722763E-1
1.505406213E1,-2.291898966E0,9.397885203E-1,2.947338112E-2
1.510486489E1,-2.361840963E0,-6.503996253E-1,-1.113574505E0
1.515566682E1,-1.863084197E0,-1.957460046E0,-4.666872919E-1
1.520646963E1,-1.259414315E0,-2.078866005E0,6.284091473E-1
1.525727322E1,-1.874232054E0,-3.686463237E-1,1.011257648E0
1.530807598E1,-1.002705812E0,-6.074876189E-1,8.018897176E-1
1.535887791E1,-5.254813433E-1,9.758284688E-2,-3.721587062E-1
1.540968078E1,1.908744931E0,8.567132801E-2,-9.349017143E-1
1.546048432E1,3.988221645E0,4.169032723E-2,-1.057071209E0
1.551128713E1,3.414178133E0,7.131642103E-2,-2.313583940E-1
1.556208906E1,2.841508627E0,2.122694254E-2,1.905843467E-1
1.561289192E1,3.185568571E0,6.841489077E-1,-7.543963939E-2
1.566369552E1,2.371767282E0,2.061914921E0,-7.356128097E-1
1.571449833E1,1.147323847E0,3.453730345E0,-8.037222624E-1
1.576530031E1,-1.282168388E0,2.086043358E0,-1.177560806E0
1.581610317E1,-1.610651493E0,-2.267770469E-1,-1.003469348E0
1.586690677E1,7.235485911E-1,1.263842940E0,2.229592577E-2
1.591770958E1,3.894151375E-2,-5.584670901E-1,-9.239064902E-2
1.596851156E1,-1.204743505E0,-2.144073963E0,4.679090083E-1
1.601931442E1,-3.839327812E0,-2.699639559E0,-8.063183725E-2
1.607011765E1,-2.494241953E0,-2.157359838E0,5.517477989E-1
1.612092046E1,-2.458354712E0,1.258345395E-1,-5.375455618E-1
1.617172244E1,-1.991056681E0,-2.796000719E0,-9.023740888E-1
1.622252536E1,-1.322026134E0,-3.357980013E0,2.141019702E-1
1.627332900E1,-1.704569221E0,-3.403946459E-1,1.062568784E0
1.632413182E1,-1.212989926E0,-6.462764144E-1,9.914051294E-1
1.637493411E1,-5.044071078E-1,-4.382828996E-2,-1.982199401E-1
1.642573702E1,8.373188972E-1,-9.162709117E-3,-6.172611713E-1
1.647654067E1,3.779617310E0,3.949127495E-1,-7.979192138E-1
1.652734354E1,3.943019152E0,-4.428642690E-1,-3.523061574E-1
1.657814557E1,3.156247854E0,1.682273388E0,1.785201132E-1
1.662894848E1,2.850518703E0,-4.237752855E-1,1.766875684E-1
1.667975213E1,3.029496908E0,1.249182701E0,-2.348707765E-1
1.673055499E1,1.667307615E0,2.846548319E0,-8.990144730E-1
1.678135703E1,-3.527642787E-2,2.697806835E0,-9.895725846E-1
1.683215999E1,-2.075506210E0,7.087355256E-1,-1.789476991E0
1.688296364E1,1.551551968E-1,9.396358132E-1,-1.064401343E-1
1.693376656E1,7.023216486E-1,9.025267959E-1,-4.567610323E-1
1.698456859E1,-7.551599145E-1,-1.830403805E0,1.950129867E-1
1.703537156E1,-2.207449198E0,-1.533226609E0,1.085781008E-1
1.708617520E1,-3.672719240E0,-3.671497345E0,7.589777112E-1
1.713697812E1,-2.222873211E0,9.694145918E-1,3.029802442E-1
1.718778020E1,-2.258149624E0,-1.345391035E0,-1.026681542E0
1.723858312E1,-1.761378050E0,-2.677190781E0,-5.656445622E-1
1.728938682E1,-1.187181592E0,-2.245932579E0,6.210789680E-1
1.734018973E1,-1.768555522E0,4.886778072E-3,1.147323847E0
1.739099182E1,-7.033905983E-1,-8.699992299E-1,6.093201637E-1
1.744179479E1,-4.679090083E-1,3.901786804E-1,-5.711421967E-1
1.749259848E1,2.711550951E0,-1.939440072E-1,-4.680617154E-1
1.754340140E1,3.894914865E0,-3.457395434E-1,-8.315158486E-1
1.759420348E1,3.353856802E0,7.493568659E-1,-2.299840003E-1
1.764500650E1,2.522188425E0,4.698942602E-1,-1.143811494E-1
1.769581020E1,2.870523930E0,3.093941510E-1,-4.271349311E-1
1.774661312E1,2.414221048E0,2.280903578E0,-7.823426127E-1
1.779741526E1,9.985825419E-1,3.346832037E0,-7.936432958E-1
1.784821822E1,-1.532615781E0,2.404905558E0,-1.112810969E0
1.789902192E1,-1.432436824E0,3.739912212E-1,-1.027597785E0
1.794982489E1,1.293163657E0,2.290677309E0,-3.695625961E-1
1.800062697E1,1.458397806E-1,-5.028799772E-1,-5.480827093E-1
1.805142999E1,-8.980981708E-1,-2.093831778E0,3.773508966E-1
1.810223374E1,-3.549022675E0,-1.516428351E0,5.404471159E-1
1.815303666E1,-2.289761066E0,-2.451788187E0,6.646018028E-1
1.820383880E1,-2.651535273E0,8.215895891E-1,-6.010736823E-1
1.825464182E1,-1.974258304E0,-1.998844981E0,-9.801044464E-1
1.830544552E1,-1.370893955E0,-2.840439796E0,1.336228400E-1
1.835624848E1,-1.555980682E0,-1.100594044E0,9.726215601E-1
1.840705062E1,-1.602405071E0,1.349972486E-1,9.269607067E-1
1.845785364E1,-4.614951015E-1,-6.784985662E-1,1.954711229E-2
1.850865739E1,4.650074840E-1,2.302894145E-1,-5.358657837E-1
1.855946031E1,3.571165800E0,4.210264683E-1,-8.913788795E-1
1.861026244E1,3.962566137E0,-1.010188699E0,-4.996730685E-1
1.866106546E1,3.038659573E0,1.794516563E0,4.886778072E-3
1.871186921E1,2.624810696E0,-1.003316641E-1,-2.338017821E-1
1.876267218E1,3.080044508E0,1.803984642E0,-3.703261614E-1
1.881347432E1,2.016559601E0,3.128607035E0,-8.544226289E-1
1.886427734E1,4.112529159E-1,3.080502748E0,-7.838697433E-1
1.891508114E1,-1.803221107E0,1.216502309E0,-1.477028728E0
1.896588416E1,-1.505738497E-1,1.047144890E0,-2.458660156E-1
1.901668630E1,8.791618943E-1,1.167787194E0,-5.242596865E-1
1.906748932E1,-4.782933891E-1,-1.076312900E0,1.255291104E-1
1.911829307E1,-1.953031421E0,-1.506196618E0,6.474980712E-2
1.916909609E1,-3.704483271E0,-3.391729355E0,5.842754245E-1
1.921989822E1,-2.029387236E0,7.200362086E-1,2.347180545E-1
1.927070124E1,-2.309613466E0,-8.464815617E-1,-1.075091124E0
1.932150505E1,-1.793447495E0,-1.914242625E0,-6.065713167E-1
1.937230859E1,-1.207645059E0,-2.007549524E0,3.298575282E-1
1.942311072E1,-1.732362866E0,-1.298661232E0,8.730534315E-1
1.947391379E1,-1.608360887E0,2.970244884E-1,9.797990322E-1
1.952471754E1,-1.388150454E-1,-9.498674870E-1,-2.822114229E-1
1.957552056E1,1.506807446E0,6.215370893E-1,-5.198310018E-1
1.962632270E1,4.297462940E0,-1.397313178E-1,-8.718317747E-1
1.967712577E1,3.456326485E0,1.893626526E-2,-4.295783341E-1
1.972792958E1,2.876632452E0,1.379598498E0,-4.153761268E-2
1.977873254E1,2.650313616E0,-1.082726792E-1,-3.672719002E-1
1.982953473E1,2.640081882E0,2.016865015E0,-6.336013079E-1
1.988033775E1,1.343558550E0,3.382414103E0,-7.490514517E-1
1.993114156E1,-7.547017932E-1,2.610913992E0,-8.791618943E-1
1.998194458E1,-2.109255552E0,5.028799772E-1,-1.395022392E0
2.003274676E1,8.437327743E-1,1.412584305E0,-1.099525094E-1
2.008354978E1,4.198047817E-1,-6.505523622E-2,-4.391991794E-1
2.013435359E1,-8.458707333E-1,-1.836817741E0,2.098260373E-1
2.018515661E1,-3.804051399E0,-2.321066856E0,5.369347334E-1
2.023595879E1,-2.252651930E0,-1.912868142E0,8.996253014E-1
2.028676187E1,-2.488133669E0,4.584408700E-1,-7.142331600E-1
2.033756567E1,-1.887823462E0,-2.008007765E0,-9.724688530E-1
2.038836869E1,-1.339588046E0,-2.182862759E0,1.618745178E-2
2.043917082E1,-1.496728539E0,-1.408766508E0,7.088882327E-1
2.048997390E1,-1.860793471E0,1.621799469E-1,9.674293399E-1
2.054077770E1,-4.953971207E-1,-7.392778993E-1,3.802524209E-1
2.059158072E1,4.204156399E-1,2.020377368E-1,-6.827745438E-1
2.064238291E1,3.487937927E0,6.911736727E-1,-5.882459283E-1
2.069318598E1,3.909422398E0,-6.183301210E-1,-7.986828089E-1
2.074398984E1,2.803483486E0,1.991820216E0,-1.152974218E-1
2.079479286E1,2.520050287E0,-6.760551929E-1,-1.869192570E-1
2.084559504E1,2.994220495E0,1.245517612E0,-3.019112647E-1
2.089639812E1,1.889197826E0,2.717201233E0,-8.115105629E-1
2.094720192E1,4.263713956E-1,3.154415131E0,-5.981721878E-1
2.099800494E1,-1.555827975E0,1.668987393E0,-1.216196895E0
2.104880682E1,-1.462979168E-1,1.141978979E0,-2.342599183E-1
2.109960989E1,6.803311110E-1,9.199360013E-1,-4.859289825E-1
2.115041374E1,-1.367686987E0,-1.702889442E0,-3.665083647E-2
2.120121676E1,-8.473978639E-1,-1.079214454E0,5.897729993E-1
2.125201895E1,-3.453424931E0,-3.506568670E0,-7.345438004E-2
2.130282202E1,-2.648786545E0,-4.184303582E-1,3.574983478E-1
2.135362588E1,-2.341072083E0,-3.119902313E-1,-8.637380004E-1
2.140442890E1,-1.801083088E0,-2.793251753E0,-9.234483242E-1
2.145523155E1,-1.140451789E0,-2.822572470E0,2.837385535E-1
2.150603463E1,-1.893473744E0,-7.531746626E-1,9.468132257E-1
2.155683848E1,-1.537349820E0,-1.128540337E-1,8.626690507E-1
2.160764150E1,-1.156028435E-1,-7.450809479E-1,-3.187095523E-1
2.165844369E1,1.809787750E0,3.177932799E-1,-7.965448499E-1
2.170924681E1,4.173003197E0,2.354816198E-1,-7.365291119E-1
2.176005062E1,3.439986229E0,6.062658876E-2,-2.160872221E-1
2.181085312E1,2.882130146E0,7.615737915E-1,1.446180940E-1
2.186165530E1,2.815547705E0,4.016320705E-1,-7.330167294E-2
2.191245838E1,2.781645775E0,2.499128819E0,-4.511106908E-1
2.196326223E1,1.429687977E0,3.287274599E0,-6.971294284E-1
2.201406530E1,-9.318475127E-1,2.505237341E0,-9.787300229E-1
2.206486749E1,-1.669140100E0,2.370087355E-1,-9.987352490E-1
2.211567062E1,8.939749599E-1,1.511999726E0,-3.710897267E-2
2.216647442E1,5.902311802E-1,1.750077456E-1,-3.356605768E-1
2.221727749E1,-1.433811188E0,-2.010603666E0,-6.032116711E-2
2.226807973E1,-3.706621170E0,-2.974826097E0,5.306735635E-1
2.231888280E1,-2.570292473E0,-2.066190839E-1,5.439594984E-1
2.236968754E1,-2.383984089E0,-3.982724249E-1,-7.941014171E-1
2.242049062E1,-2.040535212E0,-1.988613248E0,-1.031415582E0
2.247129280E1,-1.383263588E0,-2.366880417E0,7.941014133E-3
2.252209593E1,-1.670056462E0,-1.163053155E0,7.389724851E-1
2.257289978E1,-2.035343170E0,2.586938143E-1,8.713735938E-1
2.262370286E1,-1.779092699E-1,-1.544221878E0,4.283566475E-1
2.267450504E1,3.562766612E-1,8.339592218E-1,-7.904363275E-1
2.272530817E1,3.364852190E0,7.175928354E-1,-1.001942158E0
2.277611202E1,4.277305126E0,-8.280034661E-1,-5.089884996E-1
2.282691510E1,3.119291544E0,2.231577635E0,-8.246437646E-3
2.287771734E1,2.785463572E0,-5.882459283E-1,-5.482354015E-2
2.292852046E1,3.349886417E0,1.634779930E0,-8.429691941E-2
2.297932431E1,2.097954988E0,3.142961740E0,-6.464291215E-1
2.303012739E1,2.916795611E-1,2.907633066E0,-8.829796910E-1
2.308092963E1,-1.941578031E0,8.041804433E-1,-1.528339863E0
2.313173275E1,-4.844018817E-1,7.530219555E-1,-2.648022771E-1
2.318253661E1,9.643751383E-1,1.087002754E0,-1.847812980E-1
2.323333968E1,-3.090887070E-1,-1.409377337E0,1.163664013E-1
2.328414192E1,-3.403030157E0,-2.199966431E0,2.031067200E-2
2.333494510E1,-3.337211370E0,-3.397379637E0,8.409839869E-1
2.338574895E1,-2.231119633E0,8.438854814E-1,-2.531961799E-1
2.343655202E1,-2.142699480E0,-1.512305140E0,-1.089904189E0
2.348735426E1,-1.678150177E0,-2.155069113E0,-3.348970115E-1
2.353815739E1,-1.235743999E0,-2.024958611E0,5.444176197E-1
2.358896062E1,-1.788866162E0,-4.619532526E-1,1.113269091E0
2.363976369E1,-1.399451017E0,-4.379774928E-1,7.259919643E-1
2.369056593E1,6.413896382E-2,-1.548497826E-1,-4.214846194E-1
2.374136911E1,2.638096571E0,5.427377820E-1,-7.010999322E-1
2.379217280E1,4.433071136E0,1.346918195E-1,-1.011257648E0
2.384297588E1,3.315373421E0,1.175270081E0,-2.342599183E-1
2.389377812E1,2.771566629E0,-1.649287529E-2,-2.166980654E-1
2.394458124E1,3.468543530E0,1.046839476E0,-2.901524603E-1
2.399538515E1,2.253873587E0,2.524937153E0,-7.524111271E-1
2.404618822E1,7.661551833E-1,3.463045835E0,-7.197307944E-1
2.409699046E1,-1.651731014E0,1.771762490E0,-1.524827480E0
2.414779359E1,-1.466033421E-2,1.516275644E0,-3.946073353E-1
2.419859744E1,8.066238165E-1,1.109756708E0,-4.459185004E-1
2.424940051E1,-1.018740535E0,-1.586981177E0,-1.021642014E-1
2.430020275E1,-2.124221325E0,-1.764432311E0,2.881672084E-1
2.435100588E1,-3.639733315E0,-3.271697998E0,4.950917065E-1
2.440181046E1,-2.550745487E0,4.147652984E-1,-1.328592747E-2
2.445261353E1,-2.463394165E0,-8.686248064E-1,-1.010494113E0
2.450341572E1,-1.752673507E0,-2.764083862E0,-6.198572516E-1
2.455421812E1,-1.445569992E0,-2.689560413E0,4.057552814E-1
2.460502197E1,-1.944174170E0,-4.672981426E-2,1.023169160E0
2.465582499E1,-9.860602021E-1,-1.092347622E0,6.073349118E-1
2.470662718E1,-1.759240031E-1,-2.571666837E-1,-3.272614181E-1
2.475743030E1,1.791920424E0,7.666133344E-2,-1.299577504E-1
2.480823364E1,4.007005215E0,7.380561829E-1,-9.660549164E-1
2.485903671E1,3.471445084E0,7.887565494E-1,-5.729747415E-1
2.490983890E1,2.895416021E0,1.597823739E0,-2.802261710E-1
2.496064192E1,2.887933016E0,-4.208737612E-1,-3.752129376E-1
2.501144577E1,3.063399076E0,2.321983099E0,-2.878617644E-1
2.506224879E1,1.445569992E0,3.213056564E0,-8.532009125E-1
2.511305093E1,-6.930062175E-1,3.066453218E0,-1.007287145E0
2.516385400E1,-1.848576546E0,4.949389994E-1,-1.259872437E0
2.521465775E1,8.159392476E-1,1.798334360E0,3.206948051E-3
2.526546077E1,9.833113551E-1,-2.751866877E-1,1.467560530E-1
2.531626291E1,-1.745190620E0,-2.137812614E0,1.827960461E-1
2.536706598E1,-4.282649994E0,-3.597432137E0,3.268032968E-1
2.541787056E1,-2.701472044E0,2.499892414E-1,3.405473530E-1
2.546867353E1,-2.126817465E0,-1.142284393E0,-1.184432864E0
2.551947567E1,-2.071077585E0,-2.037939072E0,-8.704573512E-1
2.557027869E1,-1.298966646E0,-3.127537966E0,2.452551723E-1
2.562108270E1,-1.591562510E0,-1.444653749E0,1.008814216E0
2.567188494E1,-1.815896153E0,2.869454920E-1,1.000873208E0
2.572268707E1,-4.902049303E-1,-7.459971905E-1,6.093201414E-2
2.577349015E1,1.034011722E0,4.222481549E-1,-3.828485310E-1
2.582429390E1,3.770607471E0,7.203416228E-1,-1.203521848E0
2.587509681E1,3.867579460E0,-7.847860456E-1,-4.952444136E-1
2.592589890E1,3.102798700E0,1.575069666E0,4.703523964E-2
2.597670187E1,2.956958771E0,1.345391124E-1,2.550287358E-2
2.602750556E1,2.972993612E0,1.492605329E0,-3.271087110E-1
2.607830848E1,1.634932637E0,3.355994940E0,-9.219212532E-1
2.612911056E1,-2.406738251E-1,3.252761602E0,-9.935430884E-1
2.617991348E1,-2.150335073E0,2.380777150E-1,-1.533226609E0
2.623071718E1,3.452814221E-1,1.274380088E0,9.620844573E-2
2.628152010E1,6.557445526E-1,4.060607255E-1,-2.313583940E-1
2.633232213E1,-7.698202729E-1,-1.895153642E0,2.250972092E-1
2.638312504E1,-4.074351311E0,-2.515163660E0,1.574458778E-1
2.643393015E1,-2.701472044E0,-1.971051335E0,7.403468490E-1
2.648473301E1,-2.459729195E0,5.848862603E-2,-8.751913905E-1
2.653553504E1,-1.984337330E0,-2.274337053E0,-1.183516622E0
2.658633796E1,-1.434269309E0,-2.898012161E0,8.017370105E-2
2.663714030E1,-1.521925926E0,-1.355317354E0,1.005454540E0
2.668794317E1,-1.624701023E0,-8.047912270E-2,9.466605186E-1
2.673874515E1,-3.842229247E-1,-8.145648241E-1,-7.895200700E-2
2.678954806E1,1.001942158E0,4.639385045E-1,-5.183038712E-1
2.684035155E1,3.806341887E0,7.259919643E-1,-9.584193230E-1
2.689115436E1,3.858111382E0,-8.460234404E-1,-5.158604980E-1
2.694195634E1,2.941076756E0,2.353136301E0,1.047603041E-1
2.699275921E1,2.633820772E0,1.882936656E-1,-8.948912472E-2
2.704356280E1,3.139296770E0,1.699682474E0,-1.382041872E-1
2.709436561E1,1.765959382E0,2.774468184E0,-7.518002391E-1
2.714516754E1,-5.512896553E-2,3.378748894E0,-8.389987350E-1
2.719597041E1,-1.731293797E0,1.237271070E0,-1.671278119E0
2.724677395E1,3.191677034E-1,1.152516007E0,-1.382041872E-1
2.729757676E1,1.037524104E0,6.623111367E-1,-3.736858070E-1
2.734837869E1,-7.986828089E-1,-1.623173833E0,1.459924877E-1
2.739918176E1,-3.459533453E0,-2.602667570E0,4.494308829E-1
2.744998530E1,-2.901371717E0,-2.326106310E0,5.376983285E-1
2.750078806E1,-2.523715496E0,3.034383655E-1,-6.329904795E-1
2.755158999E1,-2.192178011E0,-1.614316583E0,-1.103190184E0
2.760239275E1,-1.546818018E0,-2.606637955E0,-9.086353332E-2
2.765319587E1,-1.492452621E0,-2.489202499E0,7.036960125E-1
2.770399864E1,-2.188054800E0,6.103891134E-1,1.187945247E0
2.775480051E1,-5.430431962E-1,-1.533684731E0,3.501681983E-1
2.780560332E1,3.901786804E-1,6.109999418E-1,-4.563029110E-1
2.785640681E1,3.395089149E0,5.187620521E-1,-9.465078115E-1
2.790720952E1,3.974172354E0,-2.425063550E-1,-7.267554998E-1
2.795801093E1,3.146626949E0,1.629435062E0,-1.079672500E-1
2.800881369E1,2.680550575E0,4.692834020E-1,-1.007897966E-2
2.805961718E1,3.209544182E0,1.337297320E0,-1.766875684E-1
2.811041988E1,2.156138182E0,2.560518980E0,-7.317950130E-1
2.816122176E1,3.883461356E-1,3.013309479E0,-8.263236284E-1
2.821202447E1,-2.008313179E0,1.947075605E0,-1.683342338E0
2.826282796E1,4.886778072E-3,8.616000414E-1,-7.780666947E-1
2.831363061E1,7.638645172E-1,1.787644506E0,-6.462764144E-1
2.836443244E1,-1.251473308E0,-2.404447556E0,-3.399364948E-1
2.841523535E1,-1.224290609E0,-1.626686215E0,6.297835112E-1
2.846603879E1,-3.440749884E0,-2.545400620E0,7.559234649E-2
2.851684145E1,-2.117349386E0,-9.234483242E-1,2.793098986E-1
2.856764327E1,-2.749423504E0,-2.151709497E-1,-9.426900148E-1
2.861844598E1,-1.696933627E0,-3.242377281E0,-7.936432958E-1
2.866924942E1,-1.219403863E0,-3.191676855E0,5.227325559E-1
2.872005207E1,-2.033663273E0,-1.507265568E-1,1.147781968E0
2.877085384E1,-6.623111367E-1,-1.281557560E0,6.627692580E-1
2.882165655E1,-9.865183383E-2,3.341334462E-1,-7.684458494E-1
2.887245994E1,3.305141687E0,5.590779781E-1,-6.739172339E-1
2.892326259E1,4.162312984E0,-5.926745534E-1,-6.540647149E-1
2.897406436E1,3.066300631E0,1.986628056E0,-1.937913001E-1
2.902486702E1,2.703151941E0,-1.050657257E-1,-9.055810422E-2
2.907567040E1,3.445789337E0,1.563616276E0,1.151447073E-1
2.912647306E1,2.175837994E0,2.494700193E0,-5.552601814E-1
2.917727483E1,4.269822240E-1,3.254288673E0,-7.295043468E-1
2.922807744E1,-2.036412001E0,1.921572804E0,-1.593089700E0
2.927888082E1,-2.762556672E-1,7.769976854E-1,-5.161659122E-1
2.932968343E1,6.784985662E-1,1.315001488E0,-5.112791657E-1
2.938048520E1,-1.295148849E0,-1.813452840E0,-2.696890533E-1
2.943128780E1,-1.326760292E0,-2.220735312E0,6.158867478E-1
2.948209119E1,-3.358438253E0,-2.832345963E0,2.962609194E-2
2.953289374E1,-2.245627165E0,-5.975613594E-1,3.309265077E-1
2.958369551E1,-2.720713615E0,-1.003316641E-1,-8.270871639E-1
2.963449811E1,-1.770388126E0,-2.881671906E0,-9.559759498E-1
2.968530145E1,-1.412431598E0,-2.731709003E0,3.335226178E-1
2.973610400E1,-1.677692056E0,-3.947600424E-1,1.141520858E0
2.978690572E1,-1.542236567E0,-2.620534599E-1,6.684195995E-1
2.983770837E1,1.505738497E-1,-8.228112459E-1,-4.891359508E-1
2.988851166E1,2.314347506E0,5.294518471E-1,-4.091149569E-1
2.993931421E1,4.573260784E0,2.423536479E-1,-5.775560737E-1
2.999011593E1,3.082029819E0,1.183363795E0,-5.314370990E-1
3.004091853E1,2.911603451E0,1.573848009E0,2.244863659E-2
3.009172186E1,3.115779161E0,4.169032574E-1,-4.492781460E-1
3.014252436E1,2.727891207E0,2.665279388E0,-7.166765332E-1
3.019332608E1,1.109604001E0,3.533446074E0,-8.327375054E-1
3.024412863E1,-1.610040665E0,1.767944694E0,-1.349667072E0
3.029493192E1,-1.000567794E0,5.998520255E-1,-6.571189165E-1
3.034573447E1,1.164122105E0,1.649440289E0,-3.658975065E-1
3.039653613E1,-4.506525695E-1,-1.836054206E0,-4.159869850E-1
3.044733869E1,-1.683800459E0,-1.207492352E0,5.405998230E-2
3.049814197E1,-3.728458881E0,-3.946073294E0,8.223531246E-1
3.054894447E1,-2.025722265E0,3.061871827E-1,6.281036735E-1
3.059974613E1,-2.571972370E0,-7.948650122E-1,-1.182752967E0
3.065054869E1,-1.793447495E0,-2.465990305E0,-7.614210844E-1
3.070135207E1,-1.107771516E0,-2.493936539E0,4.845545888E-1
3.075215457E1,-1.691741467E0,-6.864396334E-1,1.065164924E0
3.080295619E1,-1.495812178E0,-8.338065445E-2,7.342383862E-1
3.085375874E1,-1.152974218E-1,-4.089622498E-1,-2.562504113E-1
3.090456202E1,2.114905834E0,4.489727318E-1,-6.969767213E-1
3.095536520E1,4.157273769E0,2.929012477E-1,-9.228374958E-1
3.100616686E1,3.643245697E0,2.000524700E-1,-2.110477239E-1
3.105696936E1,2.681619406E0,1.074938416E0,2.260134928E-2
3.110777259E1,2.952224731E0,4.518742561E-1,-1.469087601E-1
3.115857509E1,2.774162769E0,2.813256979E0,-3.151971996E-1
3.120937671E1,9.764393568E-1,3.089818239E0,-6.690304875E-1
3.126017921E1,-1.574306130E0,2.159192324E0,-1.272089362E0
3.131098244E1,-1.514595747E0,5.534276366E-1,-1.204896212E0
3.136178489E1,9.918632507E-1,2.128344536E0,-1.513374150E-1
3.141258608E1,1.299577504E-1,-4.535540938E-2,-4.402681589E-1
3.146338858E1,-1.196497083E0,-2.220735312E0,2.973299026E-1
3.151419181E1,-3.000634432E0,-2.464768648E0,-6.108472496E-2
3.156499426E1,-2.590755939E0,-2.256317139E0,4.304946065E-1
3.161579582E1,-2.412999392E0,4.845545888E-1,-5.306735635E-1
3.166659832E1,-2.117196560E0,-2.413304806E0,-1.138161182E0
3.171740171E1,-1.395938754E0,-3.184804916E0,-7.421794534E-2
3.176820410E1,-1.429993391E0,-1.349667072E0,9.168817401E-1
3.181900572E1,-1.870414257E0,1.417165697E-1,9.914051294E-1
3.186980817E1,-3.232909143E-1,-1.273921967E0,8.796200156E-2
3.192061140E1,5.418215394E-1,6.151232123E-1,-5.592306852E-1
3.197141379E1,4.003034592E0,4.205683470E-1,-7.241594195E-1
3.202221540E1,4.001049519E0,-6.372663975E-1,-5.460974574E-1
3.207301790E1,2.806690454E0,2.379250050E0,-1.679829881E-2
3.212382108E1,2.750492573E0,-3.069507517E-2,3.573456407E-2
3.217462348E1,3.189233541E0,2.119334459E0,-7.482878864E-3
3.222542504E1,1.745190620E0,3.231687307E0,-7.400414348E-1
3.227622749E1,-3.868190348E-1,2.927638292E0,-9.559759498E-1
3.232703066E1,-2.108033895E0,5.604523420E-1,-1.703194857E0
3.237783337E1,5.732801557E-1,1.291789293E0,5.864133686E-2
3.242863494E1,8.764131069E-1,7.085828185E-1,-3.295520842E-1
3.247943733E1,-1.219709277E0,-2.091999054E0,3.329117596E-1
3.253024051E1,-3.601555347E0,-2.445832491E0,-2.458660305E-2
3.258104290E1,-2.349471331E0,-1.589271903E0,4.407263100E-1
3.263184441E1,-2.665584803E0,3.011476994E-1,-8.473978639E-1
3.268264686E1,-2.129413605E0,-2.732930660E0,-1.143811464E0
3.273344915E1,-1.297897696E0,-2.987653971E0,2.215848416E-1
3.278425150E1,-1.651731014E0,-1.009119630E0,9.856020808E-1
3.283505301E1,-1.985711694E0,1.600419879E-1,8.570187092E-1
3.288585546E1,-2.220429778E-1,-1.275143623E0,1.024696305E-1
3.293665858E1,9.408574700E-1,7.783721089E-1,-5.074613690E-1
3.298746066E1,3.901786804E0,7.901309133E-1,-1.129762053E0
3.303826218E1,3.997689962E0,-5.212054253E-1,-4.625640810E-1
3.308906457E1,2.824099541E0,1.802152157E0,1.747023165E-1
3.313986770E1,2.966274261E0,-3.727695346E-1,-4.367557913E-2
3.319067004E1,3.071492672E0,2.363673449E0,-2.012741715E-1
3.324147155E1,1.460077643E0,3.239475727E0,-7.973083854E-1
3.329227395E1,-7.177455425E-1,2.851893187E0,-1.175881028E0
3.334307712E1,-1.878508091E0,6.940752268E-1,-1.533837438E0
3.339387978E1,1.037371397E0,2.163620949E0,2.504473738E-2
3.344468124E1,5.793886185E-1,-1.817270555E-2,-4.541649222E-1
3.349548368E1,-1.036913276E0,-1.938829184E0,3.208475113E-1
3.354628681E1,-3.731360435E0,-3.152735472E0,1.275143623E-1
3.359708915E1,-2.455758810E0,-8.829796910E-1,6.022953987E-1
3.364789066E1,-2.707885981E0,-1.690519750E-1,-8.762603998E-1
3.369869306E1,-1.997165084E0,-2.435142517E0,-1.088377118E0
3.374949697E1,-1.392579079E0,-2.655047655E0,1.798945218E-1
3.380029931E1,-1.622410297E0,-1.287818789E0,8.970292211E-1
3.385110082E1,-1.672805190E0,-2.037175596E-1,9.655967951E-1
3.390190322E1,-1.611109674E-1,-1.023321867E0,1.612636745E-1
3.395270634E1,7.450809479E-1,8.373188972E-1,-6.726955175E-1
3.400350874E1,3.961802721E0,7.715001106E-1,-8.561024070E-1
3.405430947E1,3.883766890E0,-5.086830258E-1,-4.818057716E-1
3.410511186E1,2.821656227E0,1.932568073E0,8.017370105E-2
3.415591504E1,2.713078022E0,5.085303187E-1,-5.558710173E-2
3.420671738E1,3.063857079E0,2.061304092E0,-2.399102598E-1
3.425751889E1,1.565907001E0,3.022930384E0,-7.637118101E-1
3.430832134E1,-5.775560737E-1,2.743314981E0,-1.045923233E0
3.435912447E1,-2.181335449E0,7.525638342E-1,-1.702736735E0
3.440992691E1,7.131641507E-1,1.405406833E0,4.428642616E-2
3.446072848E1,1.046839476E0,3.043546379E-1,-3.188622594E-1
3.451153087E1,-5.725166202E-1,-2.164537191E0,2.832804024E-1
3.456233405E1,-4.442234039E0,-2.075659037E0,2.483094037E-1
3.461313644E1,-2.545095205E0,-2.029081821E0,3.416163325E-1
3.466393801E1,-2.353594542E0,-2.724378705E-1,-1.069135427E0
3.471474046E1,-2.082989216E0,-2.008924007E0,-8.886300325E-1
3.476554348E1,-1.231620789E0,-3.075615883E0,2.741177082E-1
3.481634587E1,-1.222610831E0,-1.284917235E0,9.478822351E-1
3.486714744E1,-1.690672517E0,-1.710372269E-1,1.029430389E0
3.491794994E1,-6.623111367E-1,-4.871506989E-1,2.079934925E-1
3.496875311E1,5.825955868E-1,4.535540938E-2,-4.767662883E-1
3.501955551E1,3.840702057E0,8.725953102E-1,-1.051726222E0
3.507035910E1,3.853529930E0,-2.134911120E-1,-5.745018721E-1
3.512116155E1,2.828222752E0,9.930849075E-1,-8.124268800E-2
3.517196478E1,3.050418615E0,-3.096995652E-1,-1.374406368E-1
3.522276718E1,3.215499878E0,2.756906509E0,-3.367295563E-1
3.527356879E1,1.554606318E0,3.734414816E0,-1.092805743E0
3.532437129E1,-6.027535200E-1,3.360270739E0,-1.414569497E0
3.537517269E1,-1.752368093E0,3.280249834E-1,-1.327829242E0
3.542597504E1,9.167290330E-1,1.684869409E0,1.392731816E-1
3.547677670E1,-1.740914732E-1,-1.049893737E0,-3.168770075E-1
3.552757915E1,-1.126860499E0,-1.887823462E0,6.303943992E-1
3.557838238E1,-3.853529930E0,-2.890071154E0,1.867665499E-1
3.562918488E1,-2.750797987E0,-5.347967744E-1,3.229855001E-1
3.567998650E1,-2.487370014E0,-2.377723008E-1,-9.561286569E-1
3.573078900E1,-1.667154908E0,-2.368712902E0,-7.792884111E-1
3.578159223E1,-1.525591016E0,-2.168660402E0,3.449759781E-1
3.583239473E1,-1.633405566E0,-7.456917763E-1,1.023474574E0
3.588319634E1,-9.982771277E-1,-8.874083757E-1,8.580876589E-1
3.593399889E1,-2.397575527E-1,-3.559712470E-1,-5.039489865E-1
3.598480212E1,2.343973637E0,6.923953891E-1,-4.042281806E-1
3.603560462E1,4.029606819E0,1.656923145E-1,-8.802309036E-1
3.608640629E1,3.071187258E0,1.187792540E0,-3.324536085E-1
3.613720879E1,2.717506647E0,3.422271907E-1,-9.254335612E-2
3.618801207E1,2.858154297E0,4.057552814E-1,-3.255815804E-1
3.623881457E1,2.549218416E0,3.014073133E0,-7.443174124E-1
3.628961624E1,1.194206357E0,3.734720230E0,-8.026533127E-1
3.634041879E1,-1.003316641E0,2.652756929E0,-1.334090471E0
3.639122207E1,-1.287055135E0,4.883723855E-1,-1.022100210E0
3.644202493E1,8.968765140E-1,1.558118701E0,-1.527118087E-1
3.649282660E1,-1.180462316E-1,-1.190235853E0,-1.061347127E-1
3.654362920E1,-1.348139882E0,-1.236354828E0,2.510582209E-1
3.659443249E1,-3.620491743E0,-3.974630356E0,-2.687728032E-2
3.664523499E1,-2.643899679E0,2.877090573E-1,4.001049399E-1
3.669603670E1,-2.483094215E0,-9.084826112E-1,-1.070051670E0
3.674683926E1,-1.838650227E0,-3.179307222E0,-8.733588457E-1
3.679764259E1,-1.286749721E0,-2.776453495E0,5.195255876E-1
3.684844509E1,-1.899124146E0,-1.933331639E-1,1.185349107E0
3.689924681E1,-1.132358074E0,-7.641699314E-1,6.134433746E-1
3.695004936E1,-2.417428046E-1,-1.572931707E-1,-4.315635860E-1
3.700085269E1,2.467364788E0,3.176405728E-1,-7.582141757E-1
3.705165525E1,4.336709976E0,-1.246128380E-1,-8.657232523E-1
3.710245696E1,3.083098888E0,8.586985469E-1,-2.890834510E-1
3.715325952E1,3.235352516E0,-5.360184610E-2,4.459185153E-2
3.720406285E1,3.121124029E0,1.003774762E0,-1.779092699E-1
3.725486540E1,2.406280041E0,2.967495918E0,-7.562289238E-1
3.730566712E1,8.559496999E-1,3.605067730E0,-8.620582223E-1
3.735646973E1,-1.479624748E0,2.358481169E0,-1.476875901E0
3.740727306E1,-1.130678296E0,5.280774832E-1,-6.972821355E-1
3.745807566E1,1.156486630E0,1.633710980E0,-1.360662282E-1
3.750887738E1,5.722111464E-1,-3.210002482E-1,1.298050396E-2
3.755967999E1,-2.072299242E0,-2.307933569E0,2.741177082E-1
3.761048332E1,-3.873687983E0,-4.205072403E0,6.690304875E-1
3.766128592E1,-2.249750376E0,-9.162709117E-3,6.166502833E-1
3.771208764E1,-2.779049635E0,-9.581139088E-1,-1.076465607E0
3.776289025E1,-1.768555522E0,-2.543415308E0,-9.617789984E-1
3.781369363E1,-1.431062460E0,-2.487522840E0,1.119377613E-1
3.786449618E1,-1.737249613E0,-1.107007980E0,8.003626466E-1
3.791529795E1,-1.600878000E0,-2.011214644E-1,8.701519370E-1
3.796610061E1,-3.744493723E-1,-1.006065488E0,3.955236077E-2
3.801690394E1,-2.290677279E-1,8.399149403E-3,-4.747810364E-1
3.806770655E1,3.569485903E0,3.984251320E-1,-3.848337829E-1
3.811850832E1,4.129785538E0,-2.205158621E-1,-8.364025950E-1
3.816931098E1,2.992540836E0,1.929819226E0,-1.812689304E-1
3.822011431E1,3.157774925E0,-1.006065488E0,1.524063945E-1
3.827091691E1,3.086611271E0,1.421441555E0,-2.761029601E-1
3.832171868E1,1.762294292E0,3.151055574E0,-8.606837988E-1
3.837252134E1,-1.869192570E-1,3.347901106E0,-1.001636744E0
3.842332472E1,-1.690367103E0,1.111131191E0,-1.753437042E0
3.847412681E1,8.397622705E-1,1.819561243E0,-6.994201243E-2
3.852492858E1,1.153432369E0,-6.795675755E-1,1.392731816E-1
3.857573124E1,-1.630656719E0,-1.949366331E0,3.180987239E-1
3.862653462E1,-4.810575008E0,-4.026094437E0,3.793361485E-1
3.867733722E1,-2.645121336E0,5.474718809E-1,2.666348219E-1
3.872813936E1,-2.235853672E0,-1.959139824E0,-1.358677030E0
3.877894207E1,-1.917449594E0,-2.760724068E0,-7.385143638E-1
3.882974545E1,-1.292858243E0,-2.698723078E0,6.426113248E-1
3.888054806E1,-1.805969954E0,-8.612946272E-1,1.077687263E0
3.893134983E1,-1.340809703E0,-4.240806997E-1,8.298360109E-1
3.898215254E1,-2.133384049E-1,-4.245388508E-2,-2.837385535E-1
3.903295592E1,1.564074397E0,4.986040890E-1,-6.603258848E-1
3.908375858E1,4.219274521E0,9.349017143E-1,-8.014315963E-1
3.913456035E1,3.687379360E0,1.944021434E-1,-1.737860441E-1
3.918536301E1,2.741635323E0,1.423426867E0,2.615953386E-1
3.923616644E1,2.992693424E0,-6.800256968E-1,1.311794519E-1
3.928696905E1,2.606637955E0,2.138118029E0,-2.973299026E-1
3.933777087E1,1.120904684E0,3.138075113E0,-8.254073858E-1
3.938857358E1,-1.307824016E0,2.264716148E0,-1.168398142E0
3.943937660E1,-1.126402378E0,4.972296655E-1,-1.170994163E0
3.949017926E1,1.055696726E0,2.191872597E0,-1.550024897E-1
3.954098103E1,1.974563748E-1,-1.113269106E-1,-4.147652984E-1
3.959178374E1,-9.648332596E-1,-2.463699818E0,2.764083743E-1
3.964258717E1,-3.722961426E0,-1.948144674E0,1.269035190E-1
3.969338998E1,-2.857696295E0,-2.776911736E0,6.943806410E-1
3.974419181E1,-2.950697660E0,2.053973973E-1,-9.162709117E-1
3.979499452E1,-1.699071646E0,-2.322899342E0,-1.183974743E0
3.984579795E1,-1.253000498E0,-2.488286257E0,3.206948191E-2
3.989660061E1,-1.608360887E0,-1.224596024E0,9.729269743E-1
3.994740243E1,-1.311794519E0,-6.423059106E-1,1.211157441E0
3.999820514E1,-5.645755529E-1,-4.382829070E-1,-1.881409585E-1
4.004900858E1,1.233758807E0,2.924431264E-1,-6.769714952E-1
4.009981124E1,3.979211807E0,9.439117312E-1,-1.245059371E0
4.015061311E1,3.992955923E0,-8.163973689E-1,-3.538332880E-1
4.020141582E1,2.898622990E0,1.806122661E0,3.460449576E-1
4.025221926E1,3.245584249E0,-2.893888950E-1,2.765611112E-1
4.030302196E1,2.549676418E0,1.836817741E0,-3.915531039E-1
4.035382379E1,1.601794243E0,3.888959169E0,-7.053758502E-1
4.040462665E1,-2.119639963E-1,3.645078421E0,-9.936957955E-1
4.045543009E1,-1.145949483E0,1.849340051E-1,-1.426633716E0
4.050623280E1,7.681404352E-1,1.115101695E0,1.322484314E-1
4.055703467E1,1.361120462E0,6.809419990E-1,2.675510943E-1
4.060783738E1,-2.744384050E0,-3.417995930E0,-3.939964995E-2
4.065864087E1,-4.043808937E0,-5.316814423E0,1.189625025E0
4.070944358E1,-2.813256979E0,1.235438585E0,1.899735034E-1
4.076024545E1,-2.469197273E0,-1.113727212E0,-1.134801507E0
4.081104821E1,-2.108492136E0,-1.413958669E0,-9.013051391E-1
4.086185170E1,-1.936385870E0,-2.338017941E0,7.207997888E-2
4.091265441E1,-1.982657433E0,-1.621188641E0,1.090056896E0
4.096345629E1,-1.455190897E0,-8.006680608E-1,1.201994658E0
4.101425905E1,-2.968717813E-1,-1.473974466E0,-4.133908749E-1
4.106506254E1,2.084974289E0,7.473716140E-1,-5.696150661E-1
4.111586530E1,4.447273254E0,4.932591617E-1,-1.388913989E0
4.116666717E1,3.408985853E0,1.501920700E0,-5.835118294E-1
4.121746993E1,3.114404678E0,5.390727147E-2,-4.169032723E-2
4.126827342E1,3.577274323E0,3.707842827E-1,-6.719319522E-2
4.131907618E1,3.018348932E0,3.379207134E0,-7.444701195E-1
4.136987806E1,1.614621997E0,4.760943413E0,-9.155073166E-1
4.142068087E1,-6.540647149E-1,2.896790504E0,-1.743968964E0
4.147148436E1,-7.104153633E-1,-1.627907902E-1,-9.677347541E-1
4.152228712E1,2.750339806E-1,1.245670319E0,4.978405312E-2
4.157308900E1,-1.291942000E-1,-5.441122055E-1,-2.944283783E-1
4.162389181E1,-1.530783176E0,-2.475000381E0,5.804576278E-1
4.167469535E1,-3.511302710E0,-3.719449043E0,1.136175916E-1
4.172549806E1,-3.382261276E0,-1.331036210E0,2.141019702E-1
4.177629998E1,-2.316027403E0,2.987042964E-1,-3.058817685E-1
4.182710280E1,-2.115211248E0,-1.915464282E0,-1.048213840E0
4.187790634E1,-2.027249336E0,-2.582356691E0,-5.234960914E-1
4.192870905E1,-1.475043416E0,-2.675663710E0,7.072083950E-1
4.197951098E1,-1.947991967E0,-1.443126649E-1,1.069288135E0
4.203031379E1,-6.575770974E-1,-1.519940734E0,1.559187621E-1
4.208111733E1,5.173876286E-1,7.020162344E-1,-6.948387623E-1
4.213192009E1,3.901786804E0,1.080588818E0,-4.566083252E-1
4.218272202E1,3.991276026E0,-2.017323077E-1,-6.062659025E-1
4.223352483E1,3.017738104E0,2.423078299E0,-1.491994411E-1
4.228432837E1,2.984141588E0,-4.634803534E-1,1.872246861E-1
4.233513113E1,3.264978647E0,1.757865667E0,6.474980712E-2
4.238593306E1,1.858350039E0,2.701319218E0,-6.183301210E-1
4.243673592E1,-1.695101112E-1,3.468238115E0,-8.632798791E-1
4.248753946E1,-2.212946892E0,1.066691995E0,-1.685327530E0
4.253834222E1,5.215108395E-1,1.445569992E0,2.221956849E-1
4.258914415E1,6.554391384E-1,7.385143638E-1,-6.004628539E-1
4.263994696E1,-1.030193925E0,-2.222109556E0,1.540862173E-1
4.269075056E1,-2.452093601E0,-1.641957402E0,2.637332976E-1
4.274155332E1,-2.830360889E0,-3.145863295E0,2.202104330E-1
4.279235530E1,-2.519286871E0,6.022953987E-1,-5.013529062E-1
4.284315811E1,-2.044658422E0,-7.421793938E-1,-1.079977989E0
4.289396165E1,-1.648218632E0,-2.280598164E0,-3.501681983E-1
4.294476446E1,-1.323400617E0,-2.204089642E0,6.823163629E-1
4.299556639E1,-2.008465767E0,2.515163720E-1,1.054169655E0
4.304636926E1,-7.253811359E-1,-1.328440070E0,4.912739098E-1
4.309717280E1,1.601946950E-1,4.260659516E-1,-4.695888162E-1
4.314797561E1,3.162967205E0,6.925480962E-1,-6.357392669E-1
4.319877754E1,4.536915302E0,-3.155026138E-1,-7.238540053E-1
4.324958040E1,2.614578962E0,1.825975180E0,-3.324536085E-1
4.330038394E1,2.751255989E0,-2.447970361E-1,-9.071081877E-2
4.335118676E1,3.171977043E0,1.576902151E0,-7.391251624E-2
4.340198915E1,1.895000935E0,3.023694038E0,-6.942279339E-1
4.345279196E1,3.950654566E-1,3.350955248E0,-8.344173431E-1
4.350359556E1,-1.966622710E0,1.625006437E0,-1.586828470E0
4.355439837E1,-4.903576374E-1,1.969982497E-2,-3.171824515E-1
4.360520030E1,7.163711190E-1,1.353942990E0,-2.460187376E-1
4.365600316E1,-8.678612709E-1,-2.397575378E0,1.542389393E-1
4.370680675E1,-1.718007922E0,-1.726101637E0,1.408002973E-1
4.375760952E1,-3.034078360E0,-3.694404125E0,4.150707126E-1
4.380841149E1,-2.288539171E0,1.141826272E0,4.703523964E-2
4.385921436E1,-2.382151604E0,-1.123195410E0,-1.159235358E0
4.391001795E1,-1.485122442E0,-2.964594364E0,-5.868715048E-1
4.396082076E1,-1.114643574E0,-2.324884653E0,5.198310018E-1
4.401162269E1,-1.968608022E0,1.950129867E-1,9.900307059E-1
4.406242556E1,-7.603521347E-1,-1.285986185E0,5.413633585E-1
4.411322915E1,-6.331431866E-1,2.168507688E-2,-1.739387512E-1
4.416403196E1,1.719534993E0,1.849340051E-1,-1.936385781E-1
4.421483394E1,3.929885864E0,6.850652099E-1,-7.525638342E-1
4.426563681E1,3.653477430E0,3.237490356E-2,-4.308000207E-1
4.431644040E1,2.696279764E0,1.686854720E0,-3.008422814E-2
4.436724321E1,2.738886356E0,-2.605263591E-1,-3.109212518E-1
4.441804514E1,2.545095205E0,2.527380466E0,-5.986303091E-1
4.446884800E1,1.203216434E0,3.509622812E0,-1.082115889E0
4.451965160E1,-1.136939406E0,2.511345863E0,-1.364938259E0
4.457045441E1,-1.882325888E0,-1.409530044E-1,-1.059819937E0
4.462125639E1,7.525638342E-1,1.809482336E0,5.054761097E-2
4.467205925E1,-5.769452453E-1,-1.746870399E0,-9.315420687E-2
4.472286285E1,-7.663078904E-1,-1.507570982E0,1.907370538E-1
4.477366566E1,-3.353704214E0,-3.501529217E0,6.108472347E-1
4.482446764E1,-1.945701241E0,2.102841735E-1,8.052493930E-1
4.487527050E1,-3.149681091E0,2.397575416E-2,-1.273616552E0
4.492607415E1,-1.367076159E0,-2.909923553E0,-1.060736299E0
4.497687696E1,-1.036607742E0,-2.416664362E0,2.654131353E-1
4.502767894E1,-1.436560035E0,-1.319124699E0,9.576557875E-1
4.507848181E1,-1.894390106E0,-2.915268540E-1,9.836167693E-1
4.512928540E1,-4.969242513E-1,-5.635066032E-1,1.992889196E-1
4.518008821E1,7.548545003E-1,3.910949528E-1,-6.027535200E-1
4.523089019E1,4.023498058E0,4.546230733E-1,-9.608627558E-1
4.528169306E1,3.850017548E0,4.382828996E-2,-7.832589149E-1
4.533249665E1,3.095163107E0,2.150335073E0,-3.833066672E-2
4.538329946E1,3.031329632E0,-6.818582416E-1,1.298050433E-1
4.543410144E1,3.447010994E0,2.894041538E0,-1.417165697E-1
4.548490436E1,1.604695797E0,3.519701958E0,-6.184828281E-1
4.553570795E1,-4.622586668E-1,2.950850487E0,-1.094791055E0
4.558651076E1,-1.706249118E0,2.422009408E-1,-1.629740477E0
4.563731274E1,5.612159371E-1,1.361731291E0,1.348445266E-1
4.568811561E1,2.237228155E-1,7.482878864E-3,-3.352024257E-1
4.573891920E1,-1.259567022E0,-2.387954712E0,4.382829070E-1
4.578972285E1,-3.098980904E0,-2.729876518E0,-2.670929730E-1
4.584052483E1,-2.659781694E0,-2.622519970E0,3.269560039E-1
4.589132769E1,-2.748201847E0,5.103628635E-1,-4.979932308E-1
4.594213123E1,-1.933789730E0,-2.466448545E0,-1.192984700E0
4.599293404E1,-1.367076159E0,-3.412498236E0,-1.307213157E-1
4.604373602E1,-1.485275149E0,-1.949671745E0,9.743013978E-1
4.609453889E1,-1.980519533E0,1.203369126E-1,9.736905098E-1
4.614534248E1,-2.483094037E-1,-1.424801230E0,1.420219894E-2
4.619614524E1,1.094791055E0,3.544441164E-1,-4.755446017E-1
4.624694722E1,4.081223011E0,5.294518471E-1,-6.896465421E-1
4.629775003E1,3.608732939E0,1.014006436E-1,-4.669927359E-1
4.634855363E1,2.817074776E0,1.452442050E0,1.542389393E-1
4.639935550E1,2.958027840E0,-9.559759498E-2,-8.399149403E-3
4.645015743E1,3.070118427E0,3.098675489E0,-6.795676053E-2
4.650096030E1,1.392579079E0,3.640954971E0,-6.923953891E-1
4.655176384E1,-1.060278177E0,2.585563660E0,-1.502684236E0
4.660256660E1,-1.794211149E0,4.199574888E-1,-1.429993391E0
4.665336852E1,1.367686987E0,1.985864401E0,3.573456407E-2
4.670417139E1,1.476723254E-1,-2.195995897E-1,-4.711159468E-1
4.675497493E1,-1.222305417E0,-2.462477922E0,3.396310806E-1
4.680577769E1,-3.636220932E0,-3.044157267E0,1.931804419E-1
4.685657962E1,-2.428575993E0,-9.562813640E-1,4.593571424E-1
4.690738243E1,-2.742856979E0,-3.686463237E-1,-9.628480077E-1
4.695818597E1,-1.773136854E0,-2.348707676E0,-1.042410851E0
4.700898868E1,-1.328898191E0,-2.608928680E0,1.901262105E-1
4.705979061E1,-1.845216870E0,-3.846810758E-1,9.416210651E-1
4.711059342E1,-1.196955204E0,-5.786250830E-1,8.057075143E-1
4.716139696E1,1.296523362E-1,-4.582881629E-1,-4.421007037E-1
4.721219967E1,2.086807013E0,7.771504521E-1,-6.586460471E-1
4.726300160E1,4.482244492E0,3.171824515E-1,-6.700994372E-1
4.731380436E1,3.429601908E0,1.846285909E-1,-3.066453338E-1
4.736460790E1,2.669860601E0,1.408613801E0,4.932591692E-2
4.741541061E1,2.800581932E0,7.992936373E-1,4.337015375E-2
4.746621248E1,2.590450525E0,2.965510845E0,3.191677108E-2
4.751701524E1,6.363501549E-1,3.010255337E0,-4.083513916E-1
4.756781873E1,-1.832999945E0,2.148808002E0,-1.405559540E0
4.761862144E1,-4.266768098E-1,9.200887084E-1,-9.379559755E-1
4.766942332E1,1.117086887E0,1.653716207E0,-4.928010404E-1
4.772022608E1,-1.369825006E-1,-2.655658424E-1,-4.129327536E-1
4.777102957E1,-1.239867210E0,-2.420482159E0,3.054236174E-1
4.782183227E1,-3.274904966E0,-2.744384050E0,4.169032723E-2
4.787263410E1,-2.460340023E0,-1.686702013E0,5.699204803E-1
4.792343686E1,-3.057290554E0,-2.550287358E-2,-9.813261032E-1
4.797424035E1,-1.921878219E0,-2.775079012E0,-1.145796776E0
4.802504300E1,-1.150072694E0,-3.033009291E0,1.301104724E-1
4.807584483E1,-1.772373319E0,-8.464815617E-1,9.677347541E-1
4.812664759E1,-1.826127887E0,-1.313321572E-2,7.259919643E-1
4.817745102E1,1.757712960E-1,-1.364327312E0,-1.233911440E-1
4.822825368E1,1.882020354E0,1.017366052E0,-7.197307944E-1
4.827905556E1,4.270738602E0,6.823163629E-1,-7.397360206E-1
4.832985826E1,3.732276678E0,4.734066315E-3,-1.771457121E-2
4.838066170E1,2.874952555E0,1.656006932E0,3.416163325E-1
4.843146467E1,3.137158871E0,4.967715442E-1,1.145338640E-2
4.848226644E1,2.500655890E0,2.800276518E0,-4.059080184E-1
4.853306915E1,8.948912621E-1,3.469612360E0,-9.080244303E-1
4.858387258E1,-1.716022611E0,1.965553761E0,-1.636001706E0
4.863467524E1,-4.818057716E-1,1.346460104E0,-8.716790676E-1
4.868547701E1,1.298813939E0,1.166107416E0,-1.727170646E-1
4.873627972E1,-9.713998437E-1,-1.164580345E0,-4.071297050E-1
4.878708311E1,-1.183516622E0,-2.659018040E0,5.557183027E-1
4.883788576E1,-3.417385101E0,-2.931608677E0,-3.665083554E-3
4.888868753E1,-2.477138281E0,-8.777875304E-1,2.168507725E-1
4.893949019E1,-2.756448269E0,-1.320957243E-1,-1.107313395E0
4.899029363E1,-2.017781258E0,-2.686811686E0,-9.923213720E-1
4.904109660E1,-1.631573081E0,-2.728043795E0,4.869979918E-1
4.909189837E1,-1.761683464E0,-2.467822880E-1,1.147934675E0
4.914270102E1,-8.350282311E-1,-1.334548593E0,5.120427012E-1
4.919350441E1,-3.293993771E-1,1.276670843E-1,-3.081724346E-1
4.924430701E1,2.082530975E0,4.027010500E-1,-6.093201637E-1
4.929510873E1,4.285857201E0,8.266290426E-1,-8.061656952E-1
4.934591024E1,3.609343767E0,6.901046634E-1,-3.443651497E-1
4.939671425E1,2.906258583E0,1.379140377E0,2.394521236E-1
4.944751686E1,2.953140974E0,5.340332389E-1,2.794626169E-2
4.949831857E1,2.742551565E0,2.828222752E0,-2.026485801E-1
4.954912123E1,9.532271624E-1,3.631334305E0,-8.078454733E-1
4.959992456E1,-1.329356313E0,2.892819881E0,-1.652341843E0
4.965072717E1,-3.205420971E-1,1.220930934E0,-7.357655168E-1
4.970152894E1,1.021489382E0,6.012263894E-1,-1.221694499E-1
4.975233154E1,5.063923597E-1,-2.875563502E-1,3.199312389E-1
4.980313493E1,-2.295411348E0,-3.281929493E0,2.597627938E-1
4.985393748E1,-3.893540382E0,-3.400739431E0,1.659977436E-1
4.990473920E1,-2.906563997E0,6.103891134E-1,1.840177327E-1
4.995554160E1,-2.202715158E0,-1.035691500E0,-1.298050404E0
5.000634493E1,-1.982657433E0,-3.011782408E0,-1.076771021E0
5.005714753E1,-1.191763043E0,-2.898622990E0,3.619270027E-1
5.010794925E1,-2.022667885E0,-6.945333481E-1,1.069593549E0
5.015875186E1,-1.365854502E0,-4.668400288E-1,5.691569448E-1
5.020955524E1,1.491994411E-1,-4.869979918E-1,-5.008947253E-1
5.026035779E1,2.429186821E0,7.988355160E-1,-7.853968740E-1
5.031115951E1,4.621059418E0,-1.224748790E-1,-9.675820470E-1
5.036196217E1,3.479996920E0,1.219403863E0,-7.879929990E-2
5.041276514E1,2.842425108E0,6.406260729E-1,1.525591016E-1
5.046356774E1,3.558948755E0,1.049130201E0,2.577775419E-1
5.051436946E1,1.966928124E0,2.406432867E0,-4.848600030E-1
5.056517212E1,4.697415531E-1,3.541081667E0,-7.577560544E-1
5.061597545E1,-1.839719176E0,1.561020136E0,-1.861862421E0
5.066677800E1,-1.389677543E-2,9.998042583E-1,-3.513898849E-1
5.071757977E1,8.247964978E-1,8.854231238E-1,-4.164451063E-1
5.076838238E1,-1.421288848E0,-2.434989929E0,2.324273884E-1
5.081918576E1,-2.429339647E0,-1.782605052E0,1.528645307E-1
5.086998831E1,-3.192287683E0,-3.897052765E0,2.761029601E-1
5.092079008E1,-2.630919218E0,3.939964771E-1,-2.631224692E-1
5.097159295E1,-2.232646704E0,-1.468324065E0,-1.280946732E0
5.102239628E1,-1.602863193E0,-2.969939470E0,-4.863871336E-1
5.107319889E1,-1.250709772E0,-2.979712963E0,7.342383862E-1
5.112400061E1,-2.084821701E0,7.053758502E-1,1.162595034E0
5.117480326E1,-5.092939138E-1,-1.508029222E0,1.986780763E-1
5.122560665E1,-3.344388679E-2,6.702521443E-1,-5.529694557E-1
5.127640925E1,3.165563107E0,4.114056230E-1,-3.559712470E-1
5.132721102E1,4.272418499E0,3.222219348E-1,-7.660024762E-1
5.137801420E1,3.128607035E0,2.098718405E0,-2.655658424E-1
5.142881759E1,2.862124920E0,6.387935281E-1,3.848337755E-2
5.147962019E1,3.168464661E0,7.571451664E-1,1.207950488E-1
5.153042191E1,2.356343269E0,2.942145824E0,-2.593046725E-1
5.158122446E1,6.499415040E-1,3.259175539E0,-5.741963983E-1
5.163202790E1,-1.814521790E0,1.635543585E0,-1.428313613E0
5.168283050E1,-5.635066032E-1,8.641961813E-1,-4.892886579E-1
5.173363227E1,1.046534061E0,9.098569751E-1,-2.933593988E-1
5.178443493E1,-9.026795626E-1,-2.157054424E0,4.825693369E-2
5.183523837E1,-2.740871668E0,-2.501877546E0,3.619270027E-1
5.188604097E1,-3.036979914E0,-3.845588923E0,6.768187881E-1
5.193684274E1,-2.385053158E0,9.086353183E-1,-6.306997687E-2
5.198764545E1,-2.058402538E0,-1.108993173E0,-1.120446563E0
5.203844883E1,-1.870108843E0,-1.930124640E0,-5.777087808E-1
5.208925149E1,-1.442363143E0,-2.259065866E0,4.109475017E-1
5.214005326E1,-2.189123869E0,4.123219103E-2,1.019504070E0
5.219085597E1,-1.157402873E0,-7.053758502E-1,5.502206683E-1
5.224165941E1,3.833066523E-1,1.806580722E-1,-4.992149174E-1
5.229246206E1,3.337669373E0,9.784246087E-1,-8.900044560E-1
5.234326383E1,4.650380135E0,-5.995466113E-1,-7.073611021E-1
5.239406618E1,3.400281191E0,1.805969954E0,4.581354442E-4
5.244486962E1,3.051182032E0,6.317687631E-1,4.285093546E-1
5.249567227E1,3.372945786E0,1.820477486E0,4.398100376E-1
5.254647409E1,1.938523769E0,2.857238054E0,-6.412369013E-1
5.259727680E1,-1.049130186E-1,2.729265451E0,-9.938485026E-1
5.264808024E1,-1.978992462E0,5.028799772E-1,-1.544527292E0
5.269888290E1,-2.718270384E-2,1.049130201E0,2.519745007E-2
5.274968472E1,1.170230627E0,8.344173431E-1,-5.833591148E-2
5.280048743E1,-1.287971497E0,-2.498212576E0,1.681357026E-1
5.285129092E1,-3.670733929E0,-3.207100868E0,3.080197275E-1
5.290209357E1,-2.461867094E0,-1.485427856E0,7.499676943E-1
5.295289540E1,-2.341224909E0,5.207473040E-1,-7.153021693E-1
5.300369811E1,-2.230661392E0,-1.294079900E0,-1.191610336E0
5.305450159E1,-1.727017879E0,-1.561020136E0,-3.336753249E-1
5.310530425E1,-1.447555304E0,-2.401851416E0,5.580089688E-1
5.315610613E1,-2.161941051E0,-5.097520351E-1,9.651386738E-1
5.320690883E1,-1.075702071E0,-8.165500760E-1,1.878355294E-1
5.325771232E1,4.556920528E-1,-4.436278343E-1,-3.898732662E-1
5.330851498E1,3.215958118E0,6.352811456E-1,-6.384881139E-1
5.335931686E1,4.233477116E0,2.774773538E-1,-4.046863019E-1
5.341011962E1,3.075157881E0,2.304421186E0,-4.046862945E-2
5.346092305E1,2.618549585E0,1.739387512E-1,-1.160609815E-2
5.351172576E1,3.090581656E0,1.114032745E0,-2.049392611E-1
5.356252764E1,2.198439360E0,2.770803213E0,-6.181774139E-1
5.361333040E1,2.849602401E-1,3.153498888E0,-9.333745837E-1
5.366413389E1,-1.806428075E0,1.625617266E0,-1.645317078E0
5.371493659E1,3.860554695E-1,1.369366884E0,-2.693836391E-1
5.376573847E1,1.101968408E0,1.323553324E0,-4.851654470E-1
5.381654123E1,-1.040731072E0,-2.185916901E0,-4.993676394E-2
5.386734472E1,-2.012588978E0,-1.672499776E0,2.374668717E-1
5.391814743E1,-3.394020081E0,-3.904077530E0,7.928797603E-1
5.396894930E1,-2.436517000E0,7.771504521E-1,8.261708915E-2
5.401975206E1,-2.754310369E0,-5.105155706E-1,-1.306296825E0
5.407055555E1,-1.874995708E0,-2.773246527E0,-8.222004175E-1
5.412135831E1,-1.437323570E0,-2.573804855E0,5.210527182E-1
5.417216019E1,-2.014421463E0,-1.634016484E-1,1.187945247E0
5.422296295E1,-1.435185671E0,-4.653128982E-1,5.813738704E-1
5.427376649E1,4.886777997E-1,-2.574721277E-1,-3.599417508E-1
5.432456920E1,2.608470440E0,1.270562291E0,-8.541171551E-1
5.437537107E1,4.218511105E0,3.846810758E-1,-6.152759194E-1
5.442617389E1,3.434030533E0,7.290462255E-1,-8.964183182E-2
5.447697738E1,2.628323078E0,1.221236348E0,-6.261184067E-2
5.452778014E1,3.653324842E0,7.400414348E-1,-2.264716178E-1
5.457858201E1,2.700402975E0,2.760571480E0,-6.242858768E-1
5.462938482E1,8.608365059E-1,4.159717083E0,-9.498674870E-1
5.468018837E1,-1.353332043E0,1.798639774E0,-1.403268814E0
5.473099113E1,-4.245388508E-1,6.455128193E-1,-4.886777997E-1
5.478179300E1,9.457442760E-1,9.061918855E-1,-3.680354729E-2
5.483259581E1,-3.753656447E-1,-1.800472260E0,1.831014603E-1
5.488339936E1,-2.224858522E0,-2.230050564E0,4.555393457E-1
5.493420212E1,-3.571012974E0,-3.964246035E0,6.062659025E-1
5.498500404E1,-3.000939846E0,1.409530044E-1,2.101314515E-1
5.503580686E1,-2.754310369E0,-5.083776116E-1,-1.340198874E0
5.508661040E1,-1.979297876E0,-2.080545664E0,-9.445225596E-1
5.513741316E1,-1.113574505E0,-3.733651161E0,4.315635860E-1
5.518821508E1,-1.845369577E0,-6.068767309E-1,1.281099439E0
5.523901795E1,-1.804900885E0,1.371352077E-1,9.454388618E-1
5.528982149E1,-3.588727489E-2,-5.247178078E-1,-3.872771561E-1
5.534062425E1,2.582356691E0,1.007592559E0,-7.521057129E-1
5.539142623E1,4.423297882E0,5.138752460E-1,-1.004996419E0
5.544222904E1,3.317816973E0,1.047755718E0,-3.342861533E-1
5.549303264E1,2.829444408E0,9.138274789E-1,2.066190839E-1
5.554383540E1,3.493435383E0,1.059056401E0,2.359397560E-1
5.559463738E1,2.383067846E0,2.690171242E0,-5.972558856E-1
5.564544019E1,8.225058317E-1,3.886515617E0,-8.721371889E-1
5.569624378E1,-1.192831993E0,1.878508091E0,-1.792073131E0
5.574704659E1,-3.231382072E-1,7.609629631E-1,-6.322268844E-1
5.579784852E1,9.568922520E-1,1.228108406E0,7.177455351E-3
5.584865139E1,-5.587725043E-1,-1.456717968E0,-9.666658193E-2
5.589945498E1,-2.101772785E0,-3.071492672E0,5.926745534E-1
5.595025779E1,-3.535125732E0,-3.406847954E0,2.356343269E-1
5.600105977E1,-2.907174826E0,-3.558185324E-2,5.054761097E-2
5.605186258E1,-2.947490692E0,-9.245173335E-1,-1.105786204E0
5.610266618E1,-1.864305854E0,-3.303309202E0,-9.878927469E-1
5.615346899E1,-1.128998399E0,-2.944283724E0,4.103366435E-1
5.620427097E1,-1.526049137E0,-3.271087110E-1,1.121821046E0
5.625507383E1,-1.290262103E0,-7.139277458E-1,4.541649222E-1
5.630587748E1,-2.571666837E-1,2.347180545E-1,-6.108472347E-1
5.635668029E1,3.159760237E0,8.012788892E-1,-3.194731176E-1
5.640748227E1,4.398863792E0,-2.993151546E-2,-5.299099684E-1
5.645828514E1,3.242224455E0,1.032789946E0,-4.191939235E-1
5.650908873E1,2.691698551E0,1.389219403E0,1.128540337E-1
5.655989159E1,3.518632889E0,1.451678514E0,5.496098399E-1
5.661069357E1,2.340766668E0,2.925500154E0,-4.176668227E-1
5.666149644E1,6.177192926E-1,3.730291605E0,-7.672241330E-1
5.671230008E1,-1.560714722E0,1.745343328E0,-1.587286592E0
5.676310295E1,-4.437805414E-1,4.830274582E-1,-6.351284385E-1
5.681390493E1,1.318208337E0,1.107313395E0,-1.160609797E-1
5.686470779E1,-4.714213610E-1,-1.729155898E0,2.309002578E-1
5.691551144E1,-2.391925097E0,-2.805468798E0,3.965925872E-1
5.696631430E1,-3.783587933E0,-3.835662603E0,2.273878902E-1
5.701711628E1,-2.630155563E0,4.669927359E-1,-8.551861346E-2
5.706791920E1,-2.333283901E0,-8.254073858E-1,-1.178324342E0
5.711872284E1,-2.000372171E0,-2.381235361E0,-7.452336550E-1
5.716952566E1,-1.372115612E0,-2.532419920E0,6.108472347E-1
5.722032769E1,-1.868887186E0,-5.781669021E-1,1.060430884E0
5.727113060E1,-1.072647810E0,-7.777612805E-1,5.386145711E-1
5.732193425E1,2.586938143E-1,-3.863608837E-2,-5.871769190E-1
5.737273706E1,3.025068283E0,1.136175871E0,-8.273926377E-1
5.742353909E1,4.621975899E0,3.032856584E-1,-7.461498976E-1
5.747434201E1,3.373251200E0,1.574458838E0,-8.108997345E-2
5.752514566E1,2.789128542E0,1.067455530E0,2.971771955E-1
5.757594852E1,3.498016834E0,1.204896212E0,2.347180545E-1
5.762675055E1,1.813605547E0,2.546316862E0,-5.830537081E-1
5.767755347E1,5.070032477E-1,3.725099325E0,-8.466343284E-1
5.772835712E1,-1.656312346E0,1.643026471E0,-1.758323789E0
5.777915998E1,-2.197522968E-1,7.151494026E-1,-5.433486104E-1
5.782996201E1,1.109145880E0,9.356653094E-1,-1.328592747E-1
5.788076493E1,-3.248180151E-1,-1.286597013E0,4.550811946E-1
5.793156857E1,-2.522951841E0,-2.885031700E0,3.432961702E-1
5.798237144E1,-3.589338541E0,-3.545052052E0,3.866663277E-1
5.803317352E1,-2.860597610E0,8.399149776E-1,-4.225535989E-1
5.808397644E1,-2.437891483E0,-8.318212628E-1,-1.263079405E0
5.813478008E1,-1.808718681E0,-2.297854662E0,-6.658235192E-1
5.818558300E1,-1.390135646E0,-2.446901321E0,5.340332389E-1
5.823638503E1,-1.858044624E0,-6.282563806E-1,1.087002754E0
5.828718800E1,-1.065012217E0,-1.037371397E0,6.468872428E-1
5.833799165E1,3.802524135E-2,-5.558710173E-2,-7.763868570E-1
5.838879456E1,3.322551012E0,7.574505806E-1,-6.879667044E-1
5.843959659E1,4.323729515E0,-2.359397560E-1,-6.569662094E-1
5.849039956E1,2.996969461E0,2.185000658E0,-2.626643144E-2
5.854120326E1,2.862430334E0,-3.955236077E-1,2.082989216E-1
5.859200618E1,3.254288673E0,1.549566746E0,1.572931707E-1
5.864280821E1,1.903858185E0,2.753088713E0,-6.633801460E-1
5.869361118E1,9.590301663E-2,3.560934067E0,-8.229639530E-1
5.874441488E1,-1.823226333E0,1.307365894E0,-1.859419107E0
5.879521779E1,4.124746025E-1,1.335159421E0,-2.580829561E-1
5.884601988E1,1.389524817E0,1.034469843E0,-3.254288733E-1
5.889682284E1,-8.222004175E-1,-2.139492512E0,2.829749882E-1
5.894762659E1,-3.115931749E0,-2.973604441E0,5.325061083E-1
5.899842951E1,-3.514051676E0,-3.153193474E0,5.883986354E-1
5.904923159E1,-2.857848883E0,6.371136904E-1,-6.339067221E-1
5.910003456E1,-2.079476833E0,-1.935316801E0,-1.334243178E0
5.915083831E1,-1.489398360E0,-2.872967482E0,-3.029802442E-1
5.920164123E1,-1.303700805E0,-2.122846842E0,7.711946368E-1
5.925244331E1,-1.697849989E0,-8.704573661E-2,1.059819937E0
5.930324633E1,-8.073873520E-1,-7.534800768E-1,3.379512429E-1
5.935405008E1,6.423059106E-1,3.953709006E-1,-4.674508572E-1
5.940485305E1,3.773509026E0,1.319735527E0,-9.950701594E-1
5.945565514E1,4.185678005E0,-8.222004175E-1,-6.923953891E-1
5.950645816E1,3.267421961E0,1.069440842E0,4.230117425E-2
5.955726191E1,2.583731174E0,2.057028115E-1,-3.451287001E-2
5.960806451E1,3.052098274E0,1.896680713E0,-7.101099193E-2
5.965886664E1,1.337755442E0,3.048738718E0,-5.810684562E-1
5.970966967E1,-6.533011198E-1,3.360270739E0,-7.627955079E-1
5.976047342E1,-2.378486633E0,1.307213187E0,-1.771304369E0
5.981127638E1,8.008207679E-1,1.536891699E0,-1.221694499E-1
5.986207852E1,1.281710267E0,9.326110482E-1,-5.599942207E-1
5.991288154E1,-1.150683522E0,-2.562504292E0,2.774773538E-1
5.996368571E1,-2.048476219E0,-2.064052820E0,7.556180358E-1
6.001448868E1,-3.014531136E0,-1.899124146E0,3.465031087E-1
6.006529081E1,-2.246390820E0,2.176143378E-1,-3.497100472E-1
6.011609383E1,-2.079171419E0,-9.675820470E-1,-9.335273504E-1
6.016689758E1,-1.923710704E0,-1.054933190E0,-3.962871730E-1
6.021770055E1,-1.424495816E0,-1.351652265E0,8.551862091E-3
6.026850263E1,-2.254637241E0,-5.086830258E-1,2.541124523E-1
6.031930566E1,-1.370893955E0,-1.344627500E0,-6.261184067E-2
6.037011013E1,-4.459185153E-2,-1.330425382E0,-6.507050395E-1
6.042091310E1,2.311598778E0,-1.837123185E-1,-1.488329291E0
6.047171524E1,4.382829189E0,2.296785712E-1,-1.431215167E0
6.052251826E1,2.714605331E0,8.252546191E-1,-5.430431962E-1
6.057332201E1,2.965816259E0,-5.115845799E-2,-3.176405728E-1
6.062412498E1,2.708191395E0,6.235223413E-1,-1.144116879E0
6.067492690E1,1.555064440E0,1.494285107E0,-1.563463569E0
6.072572992E1,-5.405998230E-2,2.265174389E0,-1.130372882E0
6.077653368E1,-1.632489324E0,1.692046881E0,-2.580829561E-1
6.082733607E1,-8.466343284E-1,8.657232523E-1,-3.779617548E-1
6.087813821E1,2.002051920E-1,9.388722181E-1,-4.224008918E-1
6.092894117E1,-2.060082406E-1,-9.410101771E-1,1.517955512E-1
6.097974492E1,-5.105155706E-1,-1.516428351E0,1.092042208E0
6.103054784E1,-2.054126501E0,-1.303242683E0,1.296217918E0
6.108134992E1,-3.024152040E0,-1.116781473E0,2.228065431E-1
6.113215294E1,-1.771915197E0,-5.784723759E-1,-1.844758689E-1
6.118295664E1,-1.699224353E0,-2.075200796E0,-4.984513521E-1
6.123375956E1,-9.694145918E-1,-2.118723631E0,3.593308926E-1
6.128456164E1,-1.144422293E0,-1.957460046E0,8.568660021E-1
6.133536461E1,-1.611567736E0,-5.074613690E-1,1.039814711E0
6.138616831E1,-4.390464723E-1,-9.979717135E-1,4.581354558E-2
6.143697222E1,1.113269091E0,2.127275616E-1,-6.534538269E-1
6.148777430E1,3.899648905E0,9.936957955E-1,-1.110062122E0
6.153857727E1,3.608732939E0,6.193991303E-1,-5.192201734E-1
6.158938091E1,2.799360275E0,2.024195194E0,-1.368297935E-1
6.164018216E1,2.583884001E0,1.000567794E0,-2.843494117E-1
6.169098425E1,2.610303164E0,2.617480516E0,-5.051707029E-1
6.174178716E1,1.188708782E0,3.455257416E0,-7.817317843E-1
6.179259086E1,-7.588250041E-1,2.939244270E0,-8.913788795E-1
6.184339373E1,-1.773594975E0,6.146650314E-1,-9.567395449E-1
6.189419576E1,1.171299592E-1,1.527270913E0,-1.296523362E-1
6.194499868E1,7.742489129E-2,2.350234836E-1,-4.897467792E-1
6.199580237E1,-1.095860004E0,-2.795084238E0,6.595623493E-1
6.204660524E1,-1.914853454E0,-2.124679565E0,4.868452549E-1
6.209740742E1,-2.608623266E0,-2.757364511E0,5.158604980E-1
6.214821034E1,-2.707885981E0,6.152759194E-1,2.015795931E-2
6.219901399E1,-2.204242229E0,-1.317139387E0,-1.047450304E0
6.224981685E1,-1.470156670E0,-2.470724344E0,-3.161134422E-1
6.230061883E1,-1.135259628E0,-2.029998064E0,7.711946368E-1
6.235142175E1,-1.814216375E0,-1.149920002E-1,9.746068120E-1
6.240222591E1,-5.935907960E-1,-1.460688472E0,5.755708218E-1
6.245302873E1,-1.534753740E-1,2.816005945E-1,-4.196520746E-1
6.250383071E1,3.050571203E0,9.449806809E-1,-9.280297160E-1
6.255463362E1,4.331975937E0,1.116323397E-1,-9.717052579E-1
6.260543722E1,2.955737114E0,2.321983099E0,-4.198047817E-1
6.265624008E1,2.674289227E0,1.498561025E0,2.418955117E-1
6.270704206E1,3.228022337E0,1.781535983E0,-2.301367074E-1
6.275784492E1,2.043436766E0,2.966427088E0,-6.591041684E-1
6.280864852E1,2.215848416E-1,3.694251537E0,-9.816315174E-1
6.285945133E1,-1.837733984E0,1.820324779E0,-1.675248623E0
6.291025331E1,1.756185852E-2,1.159388065E0,-3.675773442E-1
6.296105617E1,4.056025743E-1,7.753179073E-1,-3.480302393E-1
6.301185972E1,5.888567567E-1,9.712471068E-2,-2.122694254E-2
6.306266253E1,-1.689756274E0,-3.508248568E0,2.635805905E-1
6.311346451E1,-3.474651814E0,-3.763582706E0,6.436802745E-1
6.316426732E1,-2.901371717E0,-7.965448499E-1,1.107160673E-1
6.321507091E1,-1.953336835E0,-1.392426372E0,-8.252546191E-1
6.326587367E1,-2.092609882E0,-2.017323017E0,-9.026795626E-1
6.331667565E1,-1.004232883E0,-3.236116171E0,6.734590977E-2
6.336747847E1,-1.363563776E0,-1.662573576E0,8.962656260E-1
6.341828201E1,-1.633100152E0,-6.587987542E-1,9.283351302E-1
6.346908477E1,-4.164451063E-1,-7.974610925E-1,1.470614821E-1
6.351988669E1,6.552863717E-1,3.972034156E-1,-8.561024070E-1
6.357068951E1,4.105504513E0,9.776610136E-1,-6.635328531E-1
6.362149310E1,4.053124428E0,-6.942279339E-1,-5.393781066E-1
6.367229581E1,2.761182308E0,2.658865452E0,-1.122431830E-1
6.372309774E1,2.863499165E0,8.492304087E-1,1.716480851E-1
6.377390055E1,3.132424831E0,2.993609667E0,1.281252056E-1
6.382470409E1,1.471378326E0,3.488854170E0,-6.635328531E-1
6.387550680E1,-8.947384953E-1,2.590755939E0,-1.181989431E0
6.392630873E1,-1.649592996E0,2.967190444E-1,-1.472599983E0
6.397711149E1,3.802524209E-1,1.110520363E0,7.192726433E-2
6.402791503E1,4.512633979E-1,3.788780272E-1,-2.899997234E-1
6.407871774E1,-1.067608237E0,-2.555021286E0,2.922904193E-1
6.412951961E1,-2.458354712E0,-2.430866718E0,9.651386738E-2
6.418032237E1,-2.889154911E0,-3.955999613E0,5.118899941E-1
6.423112591E1,-2.460798264E0,6.076403260E-1,-9.575030953E-2
6.428192862E1,-2.310377121E0,-1.262926698E0,-1.018893242E0
6.433273050E1,-1.584537745E0,-2.899691820E0,-5.176930428E-1
6.438353326E1,-1.060278177E0,-2.790197611E0,6.343649030E-1
6.443433675E1,-1.856670260E0,-1.174353883E-1,1.078145385E0
6.448513946E1,-6.433748603E-1,-1.043785214E0,4.614951015E-1
6.453594133E1,1.542389300E-2,1.505738497E-1,-6.954495907E-1
6.458674409E1,3.473430157E0,7.586722970E-1,-4.479037523E-1
6.463754758E1,4.193161011E0,-1.699682474E-1,-2.660239935E-1
6.468835029E1,3.101577044E0,2.027860165E0,-2.489202656E-2
6.473915211E1,2.424605370E0,7.579087615E-1,-2.742704153E-1
6.478995487E1,3.085695028E0,2.079476833E0,-3.026748300E-1
6.484075836E1,2.144073963E0,3.373709440E0,-7.004891038E-1
6.489156107E1,2.229592502E-1,3.312319279E0,-1.116934180E0
6.494236294E1,-2.247459888E0,1.366465330E0,-1.720756769E0
6.499316565E1,-4.459185153E-2,1.129914761E0,-2.179197669E-1
6.504396914E1,1.141062737E0,1.511236072E0,-5.312843919E-1
6.509477185E1,-1.127318621E0,-2.571514130E0,-2.454078794E-1
6.514557373E1,-1.075854778E0,-1.286291599E0,1.589729935E-1
6.519637649E1,-3.007964611E0,-3.304836273E0,7.314895838E-2
6.524717998E1,-2.308086395E0,-2.547233105E-1,1.510319859E-1
6.529798268E1,-2.901524544E0,-2.252499312E-1,-1.162900448E0
6.534878456E1,-1.665169597E0,-3.069354773E0,-9.211576581E-1
6.539958732E1,-9.871291518E-1,-2.939397097E0,5.279247165E-1
6.545039081E1,-1.866596460E0,-1.982199401E-1,1.079214454E0
6.550119352E1,-1.120904684E0,-9.090934396E-1,4.337015450E-1
6.555199539E1,1.976090819E-1,4.474456236E-2,-5.543438792E-1
6.560279815E1,3.356147528E0,7.970029712E-1,-6.413896084E-1
6.565360164E1,4.191328526E0,-3.529170156E-1,-5.702258945E-1
6.570440435E1,3.067827702E0,2.141019583E0,-1.143811494E-1
6.575520623E1,2.683451891E0,8.032641411E-1,2.417428046E-1
6.580600899E1,3.135478973E0,1.673568726E0,3.590254784E-1
6.585681248E1,1.768250108E0,2.234021187E0,-3.565820754E-1
6.590761524E1,4.398100078E-2,3.226342440E0,-6.685723066E-1
6.595841711E1,-2.242725611E0,1.429382563E0,-1.590951681E0
6.600921935E1,1.716480851E-1,1.331188917E0,-2.177670449E-1
6.606002284E1,1.339893460E0,1.251015186E0,-4.445441067E-1
6.611082560E1,-4.466820657E-1,-1.397160411E0,2.535016239E-1
6.616162747E1,-2.144379377E0,-2.429645061E0,5.210527182E-1
6.621243065E1,-3.100507975E0,-3.046142578E0,1.575985998E-1
6.626323419E1,-2.759655237E0,4.253024161E-1,-5.326588154E-1
6.631403690E1,-2.027554750E0,-1.391051888E0,-1.198940516E0
6.636483883E1,-1.465575337E0,-2.247001648E0,-4.917320311E-1
6.641564180E1,-1.039203882E0,-2.268533945E0,4.372139275E-1
6.646644534E1,-1.854990363E0,-5.297572613E-1,8.144121170E-1
6.651724810E1,-1.568503022E0,-1.366770715E-1,3.790307343E-1
6.656804997E1,1.560714692E-1,-9.048175216E-1,-2.698417902E-1
6.661885279E1,1.725796223E0,7.006418109E-1,-3.038965166E-1
6.666965633E1,4.678784370E0,5.673243999E-1,-2.020377368E-1
6.672045904E1,3.016058445E0,9.524635673E-1,-4.541649222E-1
6.677126096E1,2.650313616E0,1.848576546E0,1.786728203E-2
6.682206378E1,2.651535273E0,8.362498879E-1,-2.458660156E-1
6.687286732E1,2.596864462E0,3.182361603E0,-2.528907657E-1
6.692367003E1,9.124531150E-1,3.193509579E0,-8.675557971E-1
6.697447195E1,-1.689756274E0,2.237686157E0,-1.307213187E0
6.702527477E1,-1.407086611E0,5.717530251E-1,-1.028208613E0
6.707607831E1,1.309045672E0,1.314848781E0,-6.612421572E-2
6.712688107E1,5.473191738E-1,-1.223221645E-1,-2.958027720E-1
6.717768300E1,-1.238187432E0,-3.019265175E0,2.409792393E-1
6.722848581E1,-3.420897245E0,-2.585105658E0,6.566607952E-2
6.727928935E1,-2.383831501E0,-1.434574842E0,5.079194903E-1
6.733009211E1,-2.537306786E0,-1.302631795E-1,-8.354863524E-1
6.738089404E1,-1.949060917E0,-2.548301935E0,-1.223374367E0
6.743169685E1,-1.135106921E0,-2.940313339E0,-4.230117425E-2
6.748250044E1,-1.561783671E0,-1.539487839E0,7.948650122E-1
6.753330320E1,-1.935774922E0,-1.186570823E-1,6.844543815E-1
6.758410513E1,-1.507265568E-1,-1.030499339E0,-1.108687744E-1
6.763490794E1,1.271936655E0,9.078717232E-1,-7.258392572E-1
6.768571148E1,4.290896416E0,7.334748507E-1,-1.053253412E0
6.773651430E1,4.076947212E0,-1.047908425E0,-2.221956849E-1
6.778731622E1,2.630919218E0,2.723920584E0,5.977140665E-1
6.783811904E1,3.519396544E0,-6.872031838E-3,7.241594195E-1
6.788892232E1,2.425827265E0,2.233257532E0,9.773556143E-3
6.793972508E1,1.135717750E0,3.203130245E0,-6.801784039E-1
6.799052695E1,-1.378834963E0,2.280292749E0,-1.094027400E0
6.804132982E1,-1.518718958E0,3.417690396E-1,-1.513526797E0
6.809213341E1,6.171084642E-1,1.469545841E0,-4.688252881E-2
6.814293617E1,-4.581354558E-3,-5.273138881E-1,-2.780882120E-1
6.819373815E1,-9.057337642E-1,-2.075200796E0,8.063184023E-1
6.824454096E1,-3.140976667E0,-3.172587872E0,-1.191152185E-1
6.829534456E1,-2.812493563E0,-1.023779988E0,-4.459185153E-2
6.834614732E1,-2.600987673E0,-5.025745630E-1,-1.093263865E0
6.839694992E1,-1.811772943E0,-2.328702450E0,-1.113727212E0
6.844775273E1,-1.008814216E0,-3.109365225E0,1.540862173E-1
6.849855633E1,-1.608055353E0,-1.501309872E0,1.017060637E0
6.854935914E1,-1.757102132E0,-2.382304333E-2,8.365553021E-1
6.860016112E1,-3.251234591E-1,-9.399412274E-1,-6.688777357E-2
6.865096393E1,1.293927193E0,7.165238261E-1,-3.362714052E-1
6.870176753E1,4.091607571E0,9.407047629E-1,-1.075396657E0
6.875257034E1,3.836731672E0,-6.920899153E-1,-4.107947946E-1
6.880337232E1,2.735832214E0,2.023278952E0,2.553341687E-1
6.885417518E1,2.925958395E0,4.555393457E-1,2.548760176E-1
6.890497878E1,2.799971104E0,2.734915972E0,1.707318127E-1
6.895578159E1,1.209324837E0,2.887016773E0,-5.564818382E-1
6.900658357E1,-1.138772011E0,2.510276794E0,-1.101052165E0
6.905738643E1,-1.551093936E0,2.032594234E-1,-1.413653255E0
6.910819002E1,8.026533127E-1,1.772373319E0,3.558185324E-2
6.915899284E1,3.052709103E-1,4.827220440E-1,-6.267293096E-1
6.920979482E1,-8.496885300E-1,-2.422467470E0,2.061609477E-1
6.926059768E1,-2.603583813E0,-1.446333647E0,5.131116882E-2
6.931140133E1,-2.445832491E0,-2.706969738E0,4.526378214E-1
6.936220414E1,-2.921682358E0,6.284091473E-1,-9.133693576E-1
6.941300612E1,-2.070924997E0,-1.826127887E0,-1.493674278E0
6.946380904E1,-9.801044464E-1,-2.806232214E0,-6.474980712E-2
6.951461263E1,-1.158624530E0,-2.278460264E0,8.871029615E-1
6.956541544E1,-2.076269865E0,-5.192201585E-3,9.028322697E-1
6.961621747E1,-5.839699507E-1,-9.900307059E-1,2.348707765E-1
6.966702034E1,1.136175916E-1,2.889307439E-1,-3.750602305E-1
6.971782398E1,3.586742401E0,7.450809479E-1,-6.368082762E-1
6.976862680E1,4.246762753E0,-6.339067221E-1,-4.816530645E-1
6.981942883E1,2.902287960E0,1.798639774E0,-3.970507067E-3
6.987023169E1,2.509818792E0,5.803049207E-1,-1.832541777E-3
6.992103534E1,2.956042528E0,2.044963837E0,-6.230641901E-2
6.997183815E1,1.613705754E0,2.853114843E0,-5.526640415E-1
7.002264018E1,-2.539597452E-1,2.991166353E0,-9.097042680E-1
7.007344310E1,-2.051988602E0,1.199551344E0,-1.834221601E0
7.012424706E1,7.128587365E-1,1.791462302E0,-1.664558798E-2
7.017504992E1,1.080130696E0,1.396396875E0,-6.377245188E-1
7.022585195E1,-3.895678520E-1,-1.749924660E0,-6.337540597E-2
7.027665482E1,-2.008007765E0,-2.115058661E0,1.585148573E-1
7.032745841E1,-3.083098888E0,-3.939659357E0,7.182036638E-1
7.037826086E1,-2.792946339E0,2.947337925E-1,-2.409792393E-1
7.042906289E1,-2.418955088E0,-1.286749721E0,-1.335006714E0
7.047986581E1,-1.403574347E0,-2.843799353E0,-5.696150661E-1
7.053066945E1,-9.333745837E-1,-2.720408201E0,6.755970716E-1
7.058147226E1,-2.196912050E0,3.436015919E-2,9.819369912E-1
7.063227430E1,-9.524635673E-1,-1.124111652E0,5.916055441E-1
7.068307721E1,-4.845545888E-1,1.122431830E-1,-4.219427407E-1
7.073388086E1,2.132620573E0,3.923166394E-1,-4.442386627E-1
7.078468372E1,4.379011154E0,7.153021693E-1,-7.479824424E-1
7.083548575E1,3.430823565E0,3.713951409E-1,-5.544965863E-1
7.088628867E1,2.683146477E0,2.400935173E0,2.276933193E-1
7.093709232E1,3.071950912E0,5.648810267E-1,2.507528067E-1
7.098789523E1,2.573957682E0,2.778591394E0,-1.131594554E-1
7.103869721E1,8.127322793E-1,3.461365938E0,-6.082511544E-1
7.108950013E1,-1.427091956E0,2.435295343E0,-1.554453611E0
7.114030383E1,-4.941754341E-1,1.082574010E0,-1.259872437E0
7.119110669E1,6.888830066E-1,1.537960649E0,-2.736595869E-1
7.124190872E1,7.985301018E-1,-5.436540768E-2,-5.085303262E-2
7.129271164E1,-1.506043911E0,-2.981392860E0,3.200839758E-1
7.134351529E1,-3.669664860E0,-3.783740520E0,9.391776472E-2
7.139431820E1,-2.707122326E0,-1.285986185E0,6.387935281E-1
7.144512023E1,-2.392688751E0,-4.114056230E-1,-8.522846103E-1
7.149592315E1,-2.033663273E0,-2.280445576E0,-1.250709772E0
7.154672685E1,-1.065775752E0,-3.170908213E0,-1.527118147E-3
7.159752971E1,-1.474279881E0,-1.607444525E0,9.726215601E-1
7.164833174E1,-1.752368093E0,-2.846548259E-1,8.785510659E-1
7.169913471E1,-4.454603493E-1,-7.189671993E-1,1.423274130E-1
7.174993836E1,8.055548072E-1,5.341859460E-1,-5.279247165E-1
7.180074128E1,4.069769859E0,1.313168883E0,-8.527427912E-1
7.185154331E1,3.973408699E0,-6.699467301E-1,-5.940489769E-1
7.190234628E1,2.933135748E0,2.037022829E0,1.001789495E-1
7.195314992E1,2.947185278E0,2.794626355E-1,1.640124917E-1
7.200395284E1,2.983072519E0,2.706053257E0,2.504473738E-2
7.205475487E1,1.262163162E0,3.289107084E0,-6.340594292E-1
7.210555784E1,-1.033859015E0,2.799513102E0,-1.149309158E0
7.215636216E1,-1.740151167E0,7.003363967E-1,-1.901262045E0
7.220716502E1,9.518527389E-1,1.830709219E0,1.027750522E-1
7.225796711E1,1.100288630E0,5.270084739E-1,-4.013266563E-1
7.230877002E1,-9.463551044E-1,-2.416358948E0,5.352548957E-1
7.235957372E1,-3.669664860E0,-3.032703876E0,2.257080674E-1
7.241037591E1,-2.789739370E0,-1.620577812E0,4.124746025E-1
7.246117820E1,-2.610150337E0,3.161134422E-1,-8.533536196E-1
7.251198112E1,-2.226538181E0,-2.116738558E0,-1.350125194E0
7.256278482E1,-1.291025639E0,-3.635610104E0,-2.110477239E-1
7.261358773E1,-1.343863964E0,-1.411057115E0,9.023740888E-1
7.266438982E1,-1.669903636E0,2.672456764E-2,9.321529269E-1
7.271519278E1,-3.955236077E-1,-6.772769094E-1,4.581354442E-4
7.276599643E1,7.635590737E-4,5.563291311E-1,-4.758500159E-1
7.281679935E1,3.648896217E0,8.286142945E-1,-4.459185004E-1
7.286760143E1,4.172239304E0,-5.803049207E-1,-5.402944088E-1
7.291840440E1,2.944131136E0,2.057486296E0,4.245388508E-2
7.296920726E1,2.715368748E0,5.125008225E-1,6.383354217E-2
7.302001018E1,3.167090416E0,2.046185493E0,2.145601064E-1
7.307081226E1,1.952420592E0,3.051640272E0,-4.097257853E-1
7.312161523E1,-2.255553454E-1,3.394936323E0,-9.703308940E-1
7.317241893E1,-2.060235023E0,6.852179170E-1,-2.015490532E0
7.322322185E1,6.465818286E-1,1.526507258E0,3.344388679E-2
7.327402393E1,6.693359017E-1,8.764131069E-1,-6.021426916E-1
7.332482690E1,-6.930062175E-1,-1.975632787E0,2.560977042E-1
7.337563185E1,-2.399560690E0,-2.301672459E0,1.062874198E-1
7.342643482E1,-2.806537628E0,-4.558753014E0,7.988355160E-1
7.347723690E1,-2.951766729E0,1.204896212E0,-2.562504113E-1
7.352803987E1,-2.327938795E0,-1.884921908E0,-1.539182425E0
7.357884357E1,-1.420372605E0,-3.011935234E0,-4.923428893E-1
7.362964706E1,-1.424953938E0,-2.127275467E0,7.186617851E-1
7.368044914E1,-2.223942041E0,5.103628635E-1,8.057075143E-1
7.373125211E1,1.701209545E-1,-2.126359224E0,3.167243004E-1
7.378205586E1,5.031854510E-1,8.732061386E-1,-7.113316059E-1
7.383285877E1,4.225077629E0,9.599464536E-1,-1.164733052E0
7.388365903E1,4.096799850E0,-1.061957955E0,-5.627430081E-1
7.393446200E1,2.960929394E0,1.896833420E0,1.805053651E-1
7.398526575E1,2.953140974E0,5.697677732E-1,2.023431510E-1
7.403606867E1,2.929776192E0,2.684368372E0,1.055238619E-1
7.408687080E1,1.200773001E0,3.237490416E0,-7.191199064E-1
7.413767377E1,-1.003011227E0,2.877396107E0,-1.180309653E0
7.418847752E1,-2.149571419E0,9.575030953E-2,-1.636459827E0
7.423928049E1,6.368082762E-1,1.249793530E0,2.425063550E-1
7.429008263E1,8.209787011E-1,8.434273601E-1,-5.467082858E-1
7.434088565E1,-8.028060198E-1,-2.561588049E0,2.869454920E-1
7.439168940E1,-2.248834133E0,-1.614011168E0,2.622061968E-1
7.444249284E1,-2.803178072E0,-3.696389437E0,5.199837089E-1
7.449329497E1,-2.713230848E0,9.840749502E-1,-3.643703759E-1
7.454409799E1,-2.212030649E0,-1.127776742E0,-1.360356808E0
7.459490174E1,-1.310420036E0,-2.748507261E0,-5.288410187E-1
7.464570549E1,-1.181531310E0,-2.441098452E0,6.760551929E-1
7.469650763E1,-2.087265015E0,-8.765657991E-2,1.057376623E0
7.474731065E1,-5.821374655E-1,-1.168550849E0,4.633276463E-1
7.479811440E1,-2.689255178E-1,4.152234197E-1,-4.706578255E-1
7.484891742E1,3.068743944E0,7.875348330E-1,-5.538857579E-1
7.489971956E1,4.353050232E0,-4.596625566E-1,-6.065713167E-1
7.495052174E1,3.022624969E0,1.244753957E0,-6.230641901E-2
7.500132549E1,2.568918228E0,1.001636744E0,2.683146596E-1
7.505212851E1,3.081877232E0,1.666085839E0,1.901262105E-1
7.510293065E1,1.859419107E0,2.687269688E0,-5.202891231E-1
7.515373367E1,-6.948387623E-2,3.239322901E0,-9.732323885E-1
7.520453742E1,-2.170340300E0,1.147629261E0,-1.903094649E0
7.525534039E1,2.712161839E-1,1.072036982E0,-2.147128135E-1
7.530614252E1,1.162747741E0,1.550330400E0,-6.383354068E-1
7.535694554E1,-5.270084739E-1,-1.869650722E0,1.656923145E-1
7.540775054E1,-1.526507258E0,-1.496117592E0,4.928010404E-1
7.545855351E1,-3.153651714E0,-4.724292755E0,4.750864506E-1
7.550935565E1,-2.868691444E0,4.353813827E-1,-1.884463727E-1
7.556015867E1,-2.415442705E0,-5.578562617E-1,-1.268882513E0
7.561096242E1,-1.516122937E0,-2.226843596E0,-6.204680800E-1
7.566176445E1,-1.166260123E0,-3.182514191E0,4.530959427E-1
7.571256659E1,-2.003426313E0,-8.735115826E-2,1.061194420E0
7.576336961E1,-1.057376623E0,-6.661289334E-1,5.464028716E-1
7.581417336E1,-9.529217333E-2,-1.180462316E-1,-3.871244490E-1
7.586497633E1,3.025984526E0,7.262973785E-1,-5.416688323E-1
7.591577846E1,4.281275749E0,-3.113794029E-1,-6.387935281E-1
7.596658148E1,3.044157267E0,9.988879561E-1,-2.622061968E-1
7.601738523E1,2.741329670E0,1.026986957E0,1.542389393E-1
7.606818820E1,3.214431047E0,1.602710485E0,2.133384049E-1
7.611899034E1,2.156749010E0,2.931303263E0,-3.112266660E-1
7.616979330E1,4.040754735E-1,3.295215607E0,-7.113316059E-1
7.622059706E1,-2.112920761E0,1.434116602E0,-1.834985137E0
7.627140002E1,-5.711421967E-1,4.509579837E-1,-6.172611713E-1
7.632220211E1,1.216655016E0,1.377002478E0,-3.587200642E-1
7.637300507E1,4.358395338E-1,-5.799994469E-1,-1.386623234E-1
7.642380882E1,-1.626686215E0,-2.646648407E0,2.112004459E-1
7.647461174E1,-3.698069334E0,-4.229353905E0,7.773031592E-1
7.652541398E1,-2.349013090E0,2.863346636E-1,4.604261220E-1
7.657621695E1,-2.397575378E0,-1.319124699E0,-1.332715988E0
7.662702065E1,-1.687923670E0,-2.353136301E0,-9.364288449E-1
7.667782357E1,-1.024848938E0,-2.381387949E0,3.868190348E-1
7.672862565E1,-1.680898905E0,-1.152057886E0,9.837695360E-1
7.677942862E1,-1.598434567E0,-1.383569092E-1,6.360446811E-1
7.683023232E1,-1.401894391E-1,-6.581879258E-1,-1.076618284E-1
7.688103523E1,1.485275149E0,6.398624778E-1,-4.614951015E-1
7.693183732E1,4.304029942E0,8.122741580E-1,-7.853968740E-1
7.698264028E1,3.528406382E0,1.391204596E-1,-4.598152637E-1
7.703344398E1,2.788212299E0,1.851783514E0,1.502684206E-1
7.708424690E1,2.907633066E0,4.045335948E-1,2.076880634E-2
7.713504893E1,2.735832214E0,2.905800343E0,1.207950488E-1
7.718585190E1,1.024390817E0,3.213209391E0,-5.803049207E-1
7.723665560E1,-1.281099439E0,2.608928680E0,-1.336075664E0
7.728745846E1,-1.739998460E0,2.518217862E-1,-1.785812020E0
7.733826054E1,8.941276670E-1,1.703194857E0,1.452289373E-1
7.738906346E1,1.209324837E0,3.950654566E-1,-1.499630064E-1
7.743986721E1,-1.250709772E0,-2.770803213E0,4.882196784E-1
7.749067013E1,-3.633013964E0,-3.580633879E0,6.780404449E-1
7.754147216E1,-2.475764036E0,-8.028060198E-1,4.227063060E-1
7.759227507E1,-2.694447279E0,-5.815265775E-1,-1.331952453E0
7.764307872E1,-1.927070379E0,-2.380471706E0,-1.201841950E0
7.769388158E1,-1.169008970E0,-2.976353168E0,1.690519750E-1
7.774468362E1,-1.557355046E0,-1.860640764E0,9.721634388E-1
7.779548653E1,-1.819866657E0,2.768665254E-1,8.400676847E-1
7.784629018E1,-3.384093940E-1,-8.871029615E-1,5.696150661E-2
7.789709304E1,1.197871447E0,3.695625961E-1,-4.298837483E-1
7.794789507E1,4.290132999E0,9.910996556E-1,-6.352811456E-1
7.799869799E1,3.491144896E0,-2.229592577E-2,-8.938222528E-1
7.804950158E1,2.598849773E0,2.188360214E0,-1.901262105E-1
7.810030445E1,2.896179676E0,9.967499971E-1,-1.359135192E-2
7.815110648E1,2.837385416E0,2.480650663E0,8.215895295E-2
7.820190934E1,1.171452284E0,3.135631800E0,-6.058077812E-1
7.825271299E1,-1.123195410E0,2.766221762E0,-1.243379593E0
7.830351580E1,-1.861251593E0,5.056288242E-1,-1.805053592E0
7.835431778E1,1.066691995E0,2.232188702E0,1.079672500E-1
7.840512070E1,4.905103445E-1,-5.925218388E-2,-5.057815313E-1
7.845592429E1,-9.359707236E-1,-2.371003628E0,6.161921620E-1
7.850672711E1,-3.485647202E0,-3.368059158E0,-4.550812021E-2
7.855752914E1,-2.106048584E0,-1.689145327E0,8.226585388E-1
7.860833200E1,-2.790197611E0,2.901524538E-3,-1.011868477E0
7.865913560E1,-1.871330619E0,-3.270934343E0,-1.359135151E0
7.870993841E1,-1.266591787E0,-3.368669987E0,1.012479365E-1
7.876074039E1,-1.779856205E0,-1.025459886E0,1.027903199E0
7.881154325E1,-1.700904250E0,-4.001049399E-1,7.629482150E-1
7.886234684E1,-2.388412803E-1,-6.261184216E-1,-8.582404256E-2
7.891314960E1,1.491688967E0,3.252761662E-1,-6.974348426E-1
7.896395158E1,4.276236057E0,9.617789984E-1,-7.824953198E-1
7.901475445E1,3.696542263E0,-3.561239541E-1,-3.324536085E-1
7.906555804E1,2.699792147E0,2.166217089E0,2.389939874E-1
7.911636080E1,3.046600819E0,3.222219348E-1,2.354816198E-1
7.916716278E1,2.648633718E0,2.806232214E0,-7.269082218E-2
7.921796560E1,1.167023659E0,3.624920368E0,-7.043069005E-1
7.926876919E1,-1.251015186E0,2.432088375E0,-1.313932419E0
7.931957195E1,-1.622410297E0,5.616740584E-1,-1.271936655E0
7.937037393E1,1.331494331E0,1.814827204E0,-8.704573847E-3
7.942117674E1,6.120689511E-1,-3.695625961E-1,-2.858765125E-1
7.947198028E1,-1.220625520E0,-2.508902311E0,5.902311802E-1
7.952278310E1,-3.588269472E0,-3.668290615E0,3.300102353E-1
7.957358502E1,-2.650160789E0,-2.971771955E-1,4.205683470E-1
7.962438784E1,-2.812340736E0,-8.235748410E-1,-1.382347345E0
7.967519138E1,-1.742441773E0,-2.873883724E0,-1.139840961E0
7.972599414E1,-1.137092113E0,-2.986126900E0,2.502946556E-1
7.977679606E1,-1.619203329E0,-1.035844207E0,1.073258638E0
7.982759888E1,-1.824906230E0,-2.162399292E-1,6.772769094E-1
7.987840242E1,-1.447708011E-1,-5.369347334E-1,-9.162708884E-4
7.992920518E1,1.761072636E0,7.391251922E-1,-4.520269632E-1
7.998000710E1,4.386646748E0,4.689779878E-1,-5.619794726E-1
8.003080992E1,3.166479588E0,5.094466209E-1,-5.664080977E-1
8.008161341E1,2.677343607E0,2.406890869E0,5.070032179E-2
8.013241617E1,2.642830610E0,4.350759685E-1,-2.180724740E-1
8.018321810E1,2.664515734E0,3.077754021E0,-1.612636745E-1
8.023402086E1,1.065470338E0,3.197785378E0,-5.636593103E-1
8.028482440E1,-1.335006714E0,2.454078913E0,-1.302020907E0
8.033562716E1,-1.651883721E0,4.387410581E-1,-1.334395885E0
8.038642903E1,1.655396104E0,1.859571815E0,1.168245375E-1
8.043723179E1,3.822376728E-1,-6.815528274E-1,-2.467822880E-1
8.048803534E1,-1.117850542E0,-2.217528343E0,8.451071978E-1
8.053883804E1,-3.142961740E0,-3.949127436E0,-1.050657257E-1
8.058963997E1,-2.750797987E0,-8.753440976E-1,1.875301152E-1
8.064044273E1,-2.679023266E0,-8.209787011E-1,-9.581139088E-1
8.069124622E1,-1.634016395E0,-2.651382446E0,-9.023740888E-1
8.074204898E1,-1.201231122E0,-3.150902987E0,1.760767251E-1
8.079285086E1,-1.970135093E0,-8.635852933E-1,1.048672080E0
8.084365362E1,-1.727170587E0,-2.756448388E-1,8.927532434E-1
8.089445710E1,2.388412803E-1,-6.771242023E-1,-1.869192570E-1
8.094525981E1,2.708649397E0,1.119835734E0,-7.821899056E-1
8.099606169E1,4.537678719E0,6.444438547E-2,-8.081509471E-1
8.104686445E1,3.282845974E0,1.145949483E0,-2.797680497E-1
8.109766794E1,2.604041815E0,1.906301618E0,-5.070032179E-2
8.114847065E1,3.316442490E0,1.403421521E0,2.666348219E-1
8.119927252E1,2.208671093E0,3.007659197E0,-8.307522535E-2
8.125007528E1,2.397575527E-1,3.563835621E0,-7.124006152E-1
8.130087877E1,-2.516996145E0,1.203369141E0,-2.084974289E0
8.135168148E1,2.374668717E-1,1.220472813E0,-3.695625812E-2
8.140248336E1,1.185807228E0,1.234369636E0,-5.980194807E-1
8.145328606E1,-2.811424434E-1,-1.957918167E0,2.762556672E-1
8.150408955E1,-2.876021624E0,-2.476527452E0,-2.458660305E-2
8.155489226E1,-2.884573460E0,-3.446858406E0,8.206732869E-1
8.160569409E1,-2.587701797E0,1.267966151E0,-3.689517379E-1
8.165649684E1,-2.075048208E0,-2.067718029E0,-1.551552057E0
8.170730034E1,-1.337602735E0,-2.666348219E0,-5.053234100E-1
8.175810299E1,-1.324316859E0,-2.042215109E0,6.864396334E-1
8.180890487E1,-2.137812614E0,-1.110214889E-1,1.040578246E0
8.185970757E1,-8.527427912E-1,-1.087918997E0,5.247178078E-1
8.191051106E1,1.516428292E-1,2.623589039E-1,-3.802524209E-1
8.196131372E1,3.195800066E0,9.278770089E-1,-7.368345261E-1
8.201211554E1,4.181249619E0,-1.420219894E-2,-8.686248064E-1
8.206291830E1,2.993915081E0,1.711593986E0,-2.228065431E-1
8.211372174E1,2.657338381E0,1.011868477E0,9.910997003E-2
8.216452445E1,3.046906233E0,1.574764252E0,-8.231166750E-2
8.221532627E1,1.940509081E0,2.944436550E0,-4.550811946E-1
8.226612898E1,-1.133121699E-1,3.225120783E0,-7.490514517E-1
8.231693242E1,-2.032747030E0,1.735264301E0,-1.716480851E0
8.236773513E1,6.291726977E-2,9.991934299E-1,-3.332171738E-1
8.241853695E1,1.363869190E0,1.142131686E0,-4.227063060E-1
8.246933966E1,-9.620844387E-3,-7.690566778E-1,3.849864900E-1
8.252014310E1,-2.824710369E0,-3.535125732E0,3.193204105E-1
8.257094575E1,-3.310181379E0,-3.886515617E0,3.767400384E-1
8.262174757E1,-2.957875252E0,-2.531961799E-1,-4.530959427E-1
8.267255028E1,-2.260898352E0,-1.461146593E0,-1.331341624E0
8.272335372E1,-1.355775476E0,-3.560476065E0,-5.263976455E-1
8.277415638E1,-1.220014691E0,-2.920002699E0,6.077930331E-1
8.282495820E1,-1.972883940E0,-1.899735034E-1,1.063485026E0
8.287576091E1,-8.448017836E-1,-1.047297597E0,3.704788685E-1
8.292656434E1,-1.701209545E-1,7.360709310E-1,-5.387672782E-1
8.297736700E1,3.317969561E0,4.101839364E-1,-5.790832043E-1
8.302816882E1,3.927442551E0,4.359922409E-1,-8.704573512E-1
8.307897148E1,3.227564096E0,1.084864736E0,4.504998401E-2
8.312977492E1,2.627254009E0,1.065470338E0,3.323009014E-1
8.318057757E1,2.912367105E0,1.018129706E0,1.406475753E-1
8.323137940E1,2.053668499E0,2.871898413E0,-2.354816198E-1
8.328218205E1,2.791571915E-1,3.701276302E0,-7.325585485E-1
8.333298549E1,-2.148044348E0,1.296065211E0,-1.670056462E0
8.338378815E1,8.582404256E-2,8.409839869E-1,-1.502684206E-1
8.343458992E1,1.641193867E0,1.094791055E0,-2.983988822E-1
8.348539263E1,-2.689255178E-1,-1.583621502E0,3.701734245E-1
8.353619606E1,-3.704788685E0,-4.185831070E0,5.257867575E-1
8.358699867E1,-3.081266403E0,-1.756644011E0,1.188250661E0
8.363780049E1,-2.873425484E0,4.366030693E-1,-1.010188699E0
8.368860315E1,-1.928902984E0,-2.766680002E0,-1.797418118E0
8.373940659E1,-1.389677525E0,-3.163730621E0,-2.151709497E-1
8.379020919E1,-1.159998894E0,-1.839872003E0,1.106091619E0
8.384101101E1,-1.868276358E0,-1.640124917E-1,8.260182142E-1
8.389181367E1,-4.323271513E-1,-6.809419990E-1,7.375980914E-2
8.394261711E1,1.165343881E0,6.522321701E-1,-2.417428046E-1
8.399341971E1,4.212097168E0,7.832589149E-1,-6.554391384E-1
8.404422148E1,3.795499325E0,2.562504113E-1,-6.059604883E-1
8.409502419E1,2.863651991E0,2.086654186E0,-3.390202299E-2
8.414582757E1,2.645426750E0,5.877877474E-1,-3.958290219E-1
8.419663023E1,2.967495918E0,2.818754673E0,-2.825168669E-1
8.424743200E1,1.465269804E0,3.477858782E0,-7.550072074E-1
8.429823466E1,-8.620582223E-1,2.822419643E0,-1.154654026E0
8.434903810E1,-2.183168173E0,8.272398710E-1,-1.640124917E0
8.439984070E1,8.722898960E-1,1.462368369E0,1.142284349E-1
8.445064247E1,3.884988427E-1,2.365505993E-1,-6.181774139E-1
8.450144513E1,-9.402466416E-1,-2.810202837E0,5.027272701E-1
8.455224851E1,-2.828833580E0,-1.842468023E0,4.779879749E-2
8.460305112E1,-2.284568787E0,-3.781144619E0,8.449544907E-1
8.465385289E1,-3.232603788E0,1.046839476E0,-6.441384554E-1
8.470465560E1,-1.880951405E0,-1.957918167E0,-1.417165637E0
8.475545898E1,-1.400978208E0,-2.962456465E0,-2.148655206E-1
8.480626158E1,-1.573695302E0,-1.536128163E0,9.761339426E-1
8.485706336E1,-1.966622710E0,1.316375881E-1,9.208522439E-1
8.490786601E1,-8.002099395E-2,-1.196497083E0,4.245388508E-2
8.495866940E1,9.561286569E-1,8.912261724E-1,-4.311054647E-1
8.500947200E1,4.185219765E0,7.429429889E-1,-5.810684562E-1
8.506027377E1,3.571318388E0,-1.053711493E-2,-6.920899153E-1
8.511107643E1,3.013614893E0,2.250055790E0,2.290677279E-3
8.516187981E1,2.938633442E0,-1.017060652E-1,2.385358512E-1
8.521268242E1,3.042477369E0,2.801192760E0,-1.197260618E-1
8.526348419E1,1.563158154E0,3.837495089E0,-7.104153633E-1
8.531428685E1,-7.160657048E-1,3.391271353E0,-1.274380088E0
8.536509023E1,-1.852241635E0,9.788827598E-2,-1.985558987E0
8.541589284E1,8.747332692E-1,1.058750987E0,4.474456310E-1
8.546669460E1,5.424323678E-1,-6.105418205E-1,-2.333436459E-1
8.551749721E1,-1.506349325E0,-2.963372707E0,7.766922712E-1
8.556830060E1,-3.562766552E0,-3.366379261E0,1.829487532E-1
8.561910320E1,-2.585563660E0,-1.459008694E0,2.811424434E-1
8.566990497E1,-2.725142241E0,-6.760551929E-1,-1.158013701E0
8.572070763E1,-1.787644506E0,-3.001856089E0,-1.104564548E0
8.577151101E1,-1.127624035E0,-3.322398186E0,2.568612695E-1
8.582231356E1,-1.826280594E0,-7.733326554E-1,9.811733961E-1
8.587311534E1,-1.336075664E0,-9.501729012E-1,8.269344568E-1
8.592391799E1,-2.860292196E-1,-1.885990947E-1,-3.454341292E-1
8.597472138E1,2.246390820E0,4.118637741E-1,-4.094203711E-1
8.602552393E1,4.382523537E0,8.235748410E-1,-6.702521443E-1
8.607632570E1,3.299949646E0,7.449282408E-1,-3.494046330E-1
8.612712836E1,2.869607687E0,1.355622768E0,2.082989216E-1
8.617793174E1,2.829444408E0,5.372401476E-1,-2.632751763E-1
8.622873429E1,2.565100431E0,3.446858406E0,-4.732539058E-1
8.627953606E1,6.820109487E-1,3.817948103E0,-9.142856598E-1
8.633033867E1,-2.108339310E0,1.906759739E0,-1.717702508E0
8.638114205E1,-5.126535892E-1,1.151447058E0,-4.616478086E-1
8.643194466E1,1.178782463E0,1.599656224E0,-3.553603888E-1
8.648274638E1,-7.708892226E-1,-2.229745150E0,-1.371352077E-1
8.653354903E1,-1.295454383E0,-1.850256324E0,3.865135908E-1
8.658435237E1,-3.332477331E0,-3.655615330E0,3.158080280E-1
8.663515497E1,-2.593657494E0,2.405211031E-1,9.605573118E-2
8.668595669E1,-2.643899679E0,-9.399412274E-1,-1.309351087E0
8.673675935E1,-1.418540001E0,-2.984141588E0,-8.028060198E-1
8.678756273E1,-1.249640822E0,-2.785005331E0,5.720584393E-1
8.683836528E1,-2.159345150E0,6.398624927E-2,1.086239100E0
8.688916700E1,-8.049439788E-1,-1.407239318E0,4.679090083E-1
8.693996966E1,1.947075576E-1,5.172349215E-1,-2.806843221E-1
8.699077304E1,3.348817348E0,8.687775135E-1,-8.374716043E-1
8.704157560E1,4.168269157E0,3.038965166E-2,-7.178982496E-1
8.709237731E1,3.058665037E0,1.260177851E0,-2.026485801E-1
8.714317997E1,2.684979200E0,1.228566527E0,2.391466945E-1
8.719398330E1,3.161134481E0,1.402505279E0,1.627907902E-1
8.724478591E1,1.896069884E0,2.986890316E0,-3.138227761E-1
8.729558763E1,-1.178935245E-1,3.470528603E0,-8.370134830E-1
8.734639023E1,-2.180572033E0,9.374978542E-1,-2.039618969E0
8.739719362E1,3.132119179E-1,8.799254894E-1,-1.052184403E-1
8.744799617E1,1.133274436E0,1.222763538E0,-5.318952799E-1
8.749879789E1,-3.200839758E-1,-1.982199311E0,2.539597452E-1
8.754960054E1,-2.803025246E0,-2.126512051E0,3.297048211E-1
8.760040388E1,-2.854641914E0,-4.019527912E0,7.586722970E-1
8.765120648E1,-3.110739708E0,9.588775039E-1,-5.253286362E-1
8.770200820E1,-2.165911674E0,-1.471683741E0,-1.357760787E0
8.775281080E1,-1.480846524E0,-3.016058445E0,-5.025745630E-1
8.780361414E1,-1.469240427E0,-2.172172785E0,7.832589149E-1
8.785441674E1,-2.100092888E0,4.173613787E-1,1.109756708E0
8.790521846E1,-3.800997138E-1,-1.384027123E0,2.629697323E-1
8.795602106E1,5.877877474E-1,8.944330812E-1,-5.679352283E-1
8.800682440E1,4.155593872E0,1.216044188E0,-5.780141950E-1
8.805762700E1,4.212555408E0,-4.207210541E-1,-6.507050395E-1
8.810842872E1,2.918475389E0,2.158886909E0,2.231119573E-1
8.815923132E1,3.314915419E0,4.830274582E-1,6.850652099E-1
8.821003466E1,3.015905619E0,1.809482336E0,1.426328421E-1
8.826083726E1,1.142284393E0,3.043851852E0,-9.935430884E-1
8.831163898E1,-1.353790283E0,2.704373598E0,-1.612025857E0
8.836244158E1,-1.455954432E0,1.083795786E0,-1.294690728E0
8.841324492E1,9.524635673E-1,1.744427085E0,2.341072112E-1
8.846404747E1,6.809419990E-1,1.395785958E-1,-2.423536479E-1
8.851484919E1,-1.309656501E0,-3.131355762E0,5.195255876E-1
8.856565179E1,-3.265436649E0,-3.455868483E0,2.185306102E-1
8.861645513E1,-2.865484476E0,-8.530482054E-1,4.054498672E-1
8.866725773E1,-2.804094315E0,-6.658235192E-2,-9.718579650E-1
8.871805945E1,-1.873010397E0,-2.374057770E0,-1.299272060E0
8.876886205E1,-1.358066201E0,-2.806537628E0,1.634016447E-2
8.881966539E1,-1.871483326E0,-1.235896707E0,1.034775257E0
8.887046794E1,-1.742441773E0,-3.222219273E-2,7.563816309E-1
8.892126966E1,2.999260128E-1,-1.152057886E0,-4.146125913E-1
8.897207226E1,2.691393137E0,1.398382068E0,-5.331169367E-1
8.902287560E1,4.617547035E0,2.782409191E-1,-6.710157394E-1
8.907367815E1,3.092261553E0,1.481915474E0,-3.038965166E-1
8.912447987E1,2.850671530E0,1.075396657E0,1.469087601E-1
8.917528247E1,3.317206144E0,1.305227876E0,3.220692277E-1
8.922608580E1,2.219666243E0,2.676579952E0,-4.862344265E-1
8.927688836E1,4.196520746E-1,3.563530207E0,-8.852704167E-1
8.932769007E1,-2.402767658E0,1.150988936E0,-1.818034172E0
8.937849268E1,-9.605573118E-2,8.548807502E-1,6.551336497E-2
8.942929601E1,1.183211088E0,1.086391807E0,-2.640387416E-1
8.948009856E1,-7.980719209E-1,-2.462019920E0,4.043808877E-1
8.953090028E1,-2.149724245E0,-2.471487999E0,4.921901822E-1
8.958170289E1,-3.267880201E0,-4.054651260E0,3.164188862E-1
8.963250622E1,-3.424104214E0,4.859289825E-1,-3.405473530E-1
8.968330877E1,-2.372530699E0,-1.756338596E0,-1.308892965E0
8.973411044E1,-1.494285107E0,-3.761444807E0,-5.934380889E-1
8.978491304E1,-1.526507258E0,-1.829182148E0,7.621846795E-1
8.983571638E1,-2.082683802E0,5.922164321E-1,9.694145918E-1
8.988651893E1,-2.241809368E-1,-1.683953166E0,1.097997949E-1
8.993732065E1,3.958290219E-1,8.751913905E-1,-5.920637250E-1
8.998812325E1,4.180791378E0,9.532271624E-1,-3.608580232E-1
9.003892658E1,3.963940620E0,-4.769189954E-1,-5.548020005E-1
9.008972914E1,2.865179062E0,2.409487009E0,9.773556143E-2
9.014053080E1,2.906411171E0,3.655920923E-1,2.353289127E-1
9.019133341E1,3.142809153E0,2.726669550E0,1.336228400E-1
9.024213674E1,1.582705259E0,3.422729969E0,-5.462501645E-1
9.029293929E1,-7.119424939E-1,2.927790880E0,-1.133121610E0
9.034374096E1,-1.854684949E0,5.347967744E-1,-1.782146931E0
9.039454356E1,9.492566586E-1,1.692963123E0,2.319692522E-1
9.044534690E1,7.611156702E-1,-4.582881629E-1,-3.640649617E-1
9.049614945E1,-1.166412830E0,-2.455453157E0,5.728220344E-1
9.054695117E1,-3.739301443E0,-3.534362316E0,1.754658818E-1
9.059775372E1,-2.561588049E0,-6.615476012E-1,3.747547865E-1
9.064855705E1,-2.871440172E0,-2.750339806E-1,-1.317292094E0
9.069935961E1,-1.960056186E0,-2.462630749E0,-1.283237338E0
9.075016132E1,-1.283084631E0,-3.224968195E0,2.141019702E-1
9.080096388E1,-1.742289066E0,-9.078717232E-1,1.198787689E0
9.085176721E1,-1.613858461E0,-2.571666837E-1,6.930062175E-1
9.090256976E1,1.130067408E-1,-3.993414044E-1,-2.854183912E-1
9.095337148E1,2.780576706E0,1.067913771E0,-6.113054156E-1
9.100417403E1,4.430016994E0,6.904101372E-1,-8.794673681E-1
9.105497737E1,3.311097622E0,8.005153537E-1,-1.846285909E-1
9.110577992E1,2.786685228E0,1.538877010E0,1.908897758E-1
9.115658159E1,3.478011608E0,1.610346079E0,3.813214004E-1
9.120738419E1,2.196606636E0,2.952988386E0,-2.538070381E-1
9.125818752E1,2.565558553E-1,3.513898849E0,-8.086090684E-1
9.130899002E1,-2.038549900E0,1.261705041E0,-1.950893402E0
9.135979174E1,1.740914769E-2,7.730271816E-1,-3.785725832E-1
9.141059434E1,1.264148355E0,1.129456639E0,-3.127537966E-1
9.146139768E1,-5.363239050E-1,-2.135216475E0,8.475505561E-2
9.151220018E1,-2.177823305E0,-2.679328680E0,3.213056624E-1
9.156300190E1,-3.377374411E0,-3.736705303E0,5.619794726E-1
9.161380445E1,-3.157469511E0,5.144860744E-1,-1.091889441E-1
9.166460778E1,-2.467364788E0,-1.331341624E0,-1.493674278E0
9.171541034E1,-1.632183909E0,-3.235352516E0,-9.741486907E-1
9.176621200E1,-1.178629756E0,-3.148001432E0,6.733064055E-1
9.181701461E1,-1.900040388E0,2.571666837E-1,1.298661232E0
9.186781794E1,-7.423321605E-1,-1.292247415E0,2.803788781E-1
9.191862044E1,6.200099736E-2,6.378772259E-1,-5.752654076E-1
9.196942216E1,3.831233978E0,9.011524320E-1,-4.555393457E-1
9.202022471E1,4.245541096E0,-3.002314270E-1,-6.939224601E-1
9.207102804E1,2.874036312E0,2.196606636E0,-1.988307834E-1
9.212183060E1,2.779355049E0,1.348750710E0,1.913478971E-1
9.217263226E1,3.283609390E0,1.982657433E0,4.191939235E-1
9.222343487E1,1.961888671E0,2.916490316E0,-3.541387022E-1
9.227423815E1,1.267508045E-2,3.370197058E0,-8.428165317E-1
9.232504070E1,-2.003426313E0,7.466080785E-1,-1.954558492E0
9.237584242E1,3.973561525E-1,1.061194420E0,1.288887709E-1
9.242664497E1,1.096928954E0,1.008508801E0,-3.413109183E-1
9.247744830E1,-8.918370008E-1,-2.600376844E0,3.315373361E-1
9.252825080E1,-2.879228592E0,-2.447512150E0,3.930802047E-1
9.257905252E1,-3.084167719E0,-2.791571856E0,3.800997138E-1
9.262985507E1,-2.893430710E0,7.317950130E-1,-7.276718020E-1
9.268065841E1,-2.208671093E0,-1.820630312E0,-1.398992896E0
9.273146096E1,-1.415027618E0,-2.801803589E0,-3.684936166E-1
9.278226263E1,-1.647760510E0,-2.119792700E0,8.380824327E-1
9.283306523E1,-2.042520523E0,6.533011198E-1,1.011715770E0
9.288386851E1,1.055238619E-1,-1.706707239E0,6.856760383E-2
9.293467106E1,1.412737012E0,1.433963895E0,-5.757235289E-1
9.298547273E1,4.417342186E0,9.764393568E-1,-7.687512636E-1
9.303627534E1,3.653782845E0,-1.307213157E-1,-3.252761662E-1
9.308707862E1,2.661461592E0,2.069245100E0,1.588202864E-1
9.313788117E1,2.901524544E0,8.840487003E-1,9.009997360E-3
9.318868284E1,2.707427740E0,3.064773321E0,1.328592747E-2
9.323948544E1,8.557969928E-1,3.188928127E0,-6.197045445E-1
9.329028877E1,-1.406170368E0,2.257538795E0,-1.480082870E0
9.334109127E1,-5.929799676E-1,6.626165509E-1,-1.105786204E0
9.339189294E1,1.089293361E0,1.303395391E0,-1.898207814E-1
9.344269554E1,1.580567211E-1,-1.252236843E0,-1.064401343E-1
9.349349882E1,-1.669598222E0,-2.764694691E0,3.675773442E-1
9.354430138E1,-3.787252903E0,-3.839480400E0,3.988832533E-1
9.359510304E1,-2.664821148E0,-2.954973578E-1,4.601207078E-1
9.364590565E1,-2.589381456E0,-1.023016453E0,-1.309045672E0
9.369670898E1,-1.774664044E0,-2.916948318E0,-1.102884769E0
9.374751148E1,-1.186418056E0,-3.112114191E0,4.558447599E-1
9.379831315E1,-1.962804914E0,-2.144073844E-1,1.193900943E0
9.384911575E1,-9.910996556E-1,-1.228719234E0,6.933116317E-1
9.389991909E1,-2.510582209E-1,3.461976945E-1,-5.277720094E-1
9.395072159E1,3.293688536E0,6.662816405E-1,-4.808894992E-1
9.400152325E1,4.448647976E0,2.254026383E-1,-6.798729897E-1
9.405232586E1,3.141587496E0,1.525285602E0,-4.066715539E-1
9.410312919E1,2.552425385E0,1.532768488E0,-2.932066843E-2
9.415393169E1,3.115626335E0,1.545290828E0,1.527118147E-3
9.420473341E1,2.191261768E0,3.253983259E0,-2.715215981E-1
9.425553596E1,1.232384369E-1,3.189691782E0,-7.853968740E-1
9.430633929E1,-2.371919870E0,1.424190402E0,-1.703042150E0
9.435714179E1,5.071559548E-1,1.228871942E0,-1.782146841E-1
9.440794346E1,1.045617819E0,1.379903913E0,-6.397097707E-1
9.445874606E1,-8.521319032E-1,-2.643899679E0,-9.254335612E-2
9.450954935E1,-1.598739982E0,-1.474432588E0,1.690519750E-1
9.456035190E1,-3.120666027E0,-4.571275234E0,4.366030693E-1
9.461115356E1,-2.783325434E0,2.011214644E-1,2.345653474E-1
9.466195617E1,-2.876937866E0,-9.081771374E-1,-1.332257867E0
9.471275945E1,-1.466491580E0,-3.283609390E0,-8.938222528E-1
9.476356200E1,-1.225054145E0,-2.679481506E0,5.502206683E-1
9.481436367E1,-1.776343822E0,6.215370819E-2,1.162900448E0
9.486516627E1,-4.860817194E-1,-1.198024154E0,3.306210935E-1
9.491596955E1,3.096995652E-1,7.346965671E-1,-6.490252018E-1
9.496677210E1,4.142918587E0,7.490514517E-1,-3.741439581E-1
9.501757377E1,3.992039442E0,-2.727433145E-1,-5.984776020E-1
9.506837638E1,2.684826374E0,2.896637678E0,-2.000524700E-1
9.511917966E1,2.743467808E0,5.289937258E-1,-1.420219894E-2
9.516998221E1,3.185262918E0,2.479276419E0,3.608580232E-1
9.522078388E1,1.561936498E0,3.002161503E0,-4.150707126E-1
9.527158643E1,-5.125008225E-1,2.872356415E0,-9.110786915E-1
9.532238976E1,-2.054584742E0,5.648810267E-1,-1.935164094E0
9.537319226E1,9.626953006E-1,1.389372110E0,1.879882365E-1
9.542399398E1,6.345176101E-1,4.185830951E-1,-5.309789777E-1
9.547479653E1,-1.157860994E0,-3.018807173E0,2.359397560E-1
9.552559987E1,-2.816005945E0,-2.223789454E0,1.785201132E-1
9.557640237E1,-2.779507637E0,-3.607511282E0,5.497625470E-1
9.562720408E1,-2.906716585E0,3.437542915E-1,-5.085303187E-1
9.567800664E1,-2.093678951E0,-2.289150000E0,-1.349208832E0
9.572880997E1,-1.289040446E0,-3.195036650E0,-2.115058601E-1
9.577961247E1,-1.477944970E0,-1.900345802E0,9.483403563E-1
9.583041414E1,-1.900193095E0,3.237490356E-2,9.930849075E-1
9.588121674E1,-1.704263836E-1,-9.049702287E-1,-2.687728032E-2
9.593202007E1,1.425259352E0,7.788302302E-1,-5.604523420E-1
9.598282257E1,4.735898972E0,8.939749599E-1,-2.907632887E-1
9.603362424E1,3.463809490E0,7.099572420E-1,-4.596625566E-1
9.608442685E1,2.756448269E0,2.043284178E0,-5.619794875E-2
9.613523013E1,2.967495918E0,9.578084946E-1,-1.664558798E-2
9.618603268E1,2.602972984E0,3.241002798E0,-1.029277667E-1
9.623683434E1,8.173136115E-1,3.399212360E0,-7.120952010E-1
9.628763695E1,-1.423732281E0,2.286401272E0,-1.346307397E0
9.633844023E1,-7.076665759E-1,9.135220647E-1,-8.787037730E-1
9.638924278E1,1.270562291E0,8.980981708E-1,-1.359135211E-1
9.644004445E1,6.856760383E-1,-1.403421611E-1,8.261708915E-2
9.649084700E1,-1.694032192E0,-3.547342777E0,4.608842432E-1
9.654165034E1,-3.463045835E0,-4.014793396E0,5.659499764E-1
9.659245278E1,-2.888391256E0,-9.810206890E-1,3.536805511E-1
9.664325455E1,-2.744994879E0,-1.731752008E-1,-1.053406119E0
9.669405711E1,-1.889961362E0,-1.861862421E0,-1.063485026E0
9.674486044E1,-1.366923451E0,-3.237490416E0,-8.567132801E-2
9.679566294E1,-1.506502032E0,-2.117196560E0,9.709417224E-1
9.684646466E1,-1.827349544E0,3.446705639E-1,8.553388715E-1
9.689726721E1,1.850867122E-1,-1.099677801E0,-1.963873953E-1
9.694807054E1,2.098412991E0,1.100594044E0,-4.369085133E-1
9.699887304E1,4.309679985E0,7.380561829E-1,-5.117372870E-1
9.704967476E1,3.255510569E0,1.247502804E0,-2.716743052E-1
9.710047731E1,2.735679388E0,1.243532300E0,3.054236295E-3
9.715128065E1,2.691087484E0,9.729269743E-1,-2.483094037E-1
9.720208315E1,2.613662720E0,3.394478321E0,-1.041494608E-1
9.725288487E1,6.968240142E-1,3.059733868E0,-5.778614879E-1
9.730368742E1,-1.815896153E0,2.031525373E0,-1.440225124E0
9.735449075E1,-1.189166903E0,5.546492934E-1,-1.120141149E0
9.740529325E1,1.461757541E0,1.612025857E0,-1.627907902E-1
9.745609497E1,4.698942602E-1,-6.029062271E-1,-2.090624720E-1
9.750689752E1,-1.130525589E0,-2.969786644E0,3.764346242E-1
9.755770086E1,-3.412650824E0,-3.318580389E0,5.809157491E-1
9.760850336E1,-2.369171143E0,-1.617523551E0,6.009209752E-1
9.765930507E1,-2.803941727E0,-1.928750277E-1,-1.047297597E0
9.771010763E1,-1.705485582E0,-1.922030926E0,-1.064095974E0
9.776091096E1,-1.302937150E0,-2.559297323E0,9.330692142E-2
9.781171346E1,-1.710525036E0,-1.349972486E0,9.100096822E-1
9.786251518E1,-1.784742951E0,1.113269106E-1,8.058602214E-1
9.791331773E1,-2.796153426E-1,-6.325323582E-1,-2.809897438E-2
9.796412106E1,1.656770468E0,7.679877281E-1,-4.491254389E-1
9.801492356E1,4.349690437E0,1.199245930E0,-8.174663186E-1
9.806572528E1,3.644314766E0,-2.742704153E-1,-5.183038712E-1
9.811652784E1,2.570139885E0,2.150335073E0,1.583621502E-1
9.816733117E1,3.026748180E0,3.159607351E-1,1.769929975E-1
9.821813372E1,2.566016674E0,2.844410181E0,4.871506989E-2
9.826893539E1,6.959077120E-1,2.967343330E0,-6.334486008E-1
9.831973794E1,-1.861098886E0,2.053821087E0,-1.356997132E0
9.837054127E1,-7.185090780E-1,6.722373962E-1,-7.165238261E-1
9.842134382E1,1.267049909E0,1.719382286E0,-9.941539168E-2
9.847214549E1,4.169032574E-1,-7.408050299E-1,-1.328592747E-1
9.852294810E1,-1.223985195E0,-2.701472044E0,3.289412558E-1
9.857375138E1,-3.464725733E0,-3.523214340E0,6.684195995E-1
9.862455393E1,-2.407043695E0,-3.393256664E-1,4.572191834E-1
9.867535565E1,-2.630613804E0,-6.108472589E-4,-1.240630746E0
9.872615820E1,-1.845980406E0,-1.482679009E0,-1.159846187E0
9.877696153E1,-1.260788798E0,-2.661461592E0,6.474980712E-2
9.882776403E1,-1.940203547E0,-1.824295282E0,9.660549164E-1
9.887856575E1,-2.153542042E0,-5.803048983E-2,1.054933190E0
9.892936836E1,-3.678827584E-1,-1.345543742E0,-2.596100792E-3
9.898017164E1,1.089904189E0,6.853706241E-1,-5.543438792E-1
9.903097419E1,4.022276402E0,6.555918455E-1,-9.495620728E-1
9.908177586E1,3.785267830E0,-2.660239935E-1,-5.150969625E-1
9.913257846E1,3.082029819E0,1.831167340E0,1.562241912E-1
9.918338179E1,2.762862206E0,1.487413049E-1,-9.132166207E-2
9.923418429E1,3.097606421E0,2.761945963E0,-2.880144715E-1
9.928498601E1,1.348445296E0,3.617895603E0,-7.479824424E-1
9.933578856E1,-6.184828281E-1,3.317664146E0,-1.153432369E0
9.938659190E1,-1.182752967E0,1.901414752E0,-1.959292531E0
9.943739445E1,1.342336833E-1,1.102121115E0,8.292251825E-2
9.948819612E1,1.535670042E0,3.775036037E-1,-1.131594554E-1
9.953899872E1,-4.624113739E-1,-1.553231835E0,5.691569448E-1
9.958980205E1,-3.195800066E0,-4.092982292E0,3.193204105E-1
9.964060461E1,-3.155637026E0,-2.139950752E0,5.618267655E-1
9.969140627E1,-2.588312626E0,4.129327536E-1,-6.704048514E-1
9.974220888E1,-2.269450188E0,-2.021293640E0,-1.511236072E0
9.979301221E1,-1.350736022E0,-2.943672895E0,-6.348230243E-1
9.984381471E1,-1.073105931E0,-3.613772392E0,6.242858768E-1
9.989461643E1,-2.178434134E0,9.315420873E-3,1.034164429E0
9.994541903E1,-9.571976662E-1,-1.029583097E0,6.572716236E-1
9.999622237E1,-4.753918648E-1,4.117110670E-1,-4.596625566E-1
1.000470249E2,2.528602123E0,4.324798584E-1,-5.395308137E-1
1.000978266E2,4.206904888E0,6.200099736E-2,-6.763606071E-1
1.001486292E2,3.335531473E0,9.385668039E-1,-2.231119573E-1
1.001994325E2,2.726364136E0,6.939224601E-1,1.299577504E-1
1.002502350E2,2.920155287E0,1.248724461E0,1.551551968E-1
1.003010367E2,2.660392523E0,3.205573797E0,-9.086353332E-2
1.003518393E2,7.635591030E-1,3.261313438E0,-5.896202922E-1
1.004026427E2,-1.394411564E0,2.287012100E0,-1.451831222E0
1.004534452E2,-6.789567471E-1,5.259394646E-1,-1.128540277E0
1.005042469E2,7.479824424E-1,9.956810474E-1,-8.154810965E-2
1.005550495E2,6.383354068E-1,-1.340809762E-1,-7.666133344E-2
1.006058528E2,-1.179240584E0,-2.816463947E0,3.726168275E-1
1.006566554E2,-3.373098612E0,-2.571819782E0,3.381039500E-1
1.007074571E2,-2.604805470E0,-1.978381515E0,5.317425132E-1
1.007582597E2,-2.679023266E0,-1.634016447E-2,-1.111742020E0
1.008090630E2,-2.143463135E0,-1.907217860E0,-1.424648523E0
1.008598655E2,-1.013090134E0,-3.055305243E0,1.053711493E-2
1.009106673E2,-1.260025144E0,-2.190345526E0,9.573503733E-1
1.009614699E2,-2.120708942E0,3.254288733E-1,9.071081877E-1
1.010122732E2,-6.620057225E-1,-7.479824424E-1,1.702736765E-1
1.010630758E2,7.547017932E-1,3.425326049E-1,-3.828485310E-1
1.011138775E2,3.777937651E0,1.269798756E0,-7.499676943E-1
1.011646800E2,4.135130405E0,-5.526640415E-1,-4.097257853E-1
1.012154834E2,2.939397097E0,1.953642249E0,6.872031838E-2
1.012662859E2,2.735832214E0,9.950701594E-1,1.114796251E-1
1.013170876E2,3.131966591E0,2.782409191E0,1.374406368E-1
1.013678902E2,1.616912723E0,3.343014240E0,-6.114581227E-1
1.014186936E2,-3.863608837E-1,2.824710369E0,-1.116934180E0
1.014694961E2,-1.977617979E0,3.997995257E-1,-1.895459056E0
1.015202978E2,7.145385742E-1,1.507418275E0,7.207997888E-2
1.015711004E2,9.533798695E-1,6.832326651E-1,-5.654918551E-1
1.016219038E2,-1.003163934E0,-2.635805845E0,3.819322586E-1
1.016727063E2,-2.980323792E0,-2.214932203E0,2.811424434E-1
1.017235080E2,-2.750492573E0,-3.265742064E0,5.022691488E-1
1.017743106E2,-2.925500154E0,6.193991303E-1,-6.928535104E-1
1.018251140E2,-2.262425423E0,-1.984490037E0,-1.479319334E0
1.018759165E2,-1.356844425E0,-3.693182468E0,-2.499892414E-1
1.019267183E2,-1.566975951E0,-1.385401607E0,9.162709117E-1
1.019775209E2,-2.005106211E0,-7.864658535E-2,8.823688626E-1
1.020283242E2,-2.754921019E-1,-1.208103180E0,2.028012872E-1
1.020791267E2,8.156337738E-1,8.309049606E-1,-3.600944579E-1
1.021299285E2,3.818100691E0,1.191610336E0,-1.167329073E0
1.021807311E2,4.269975185E0,-4.567610323E-1,-6.624638438E-1
1.022315344E2,2.825321198E0,1.907675982E0,3.833066672E-2
1.022823370E2,3.092719555E0,8.609892130E-1,2.412846684E-1
1.023331387E2,3.100507975E0,2.346264362E0,6.505523622E-2
1.023839413E2,1.383874416E0,3.423951626E0,-7.040014863E-1
1.024347447E2,-1.062568784E0,2.883198977E0,-1.244143128E0
1.024855472E2,-1.785048366E0,5.563291311E-1,-1.546359777E0
1.025363489E2,1.193442822E0,2.064969063E0,1.589729935E-1
1.025871515E2,8.985562921E-1,3.000787199E-1,-5.222744346E-1
1.026379549E2,-1.119835734E0,-2.765916348E0,4.592044353E-1
1.026887575E2,-3.323009014E0,-2.930081606E0,3.958290219E-1
1.027395592E2,-2.714299679E0,-2.506153584E0,5.716003180E-1
1.027903618E2,-3.025373697E0,2.183778957E-2,-1.001789451E0
1.028411651E2,-2.047559977E0,-2.098565817E0,-1.277281642E0
1.028919677E2,-1.197718740E0,-3.808938026E0,-8.093725890E-2
1.029427694E2,-1.446028233E0,-1.229330063E0,9.465078115E-1
1.029935721E2,-1.676775694E0,-2.704526186E-1,9.547542930E-1
