"Time (s)","Linear Acceleration x (m/s^2)","Linear Acceleration y (m/s^2)","Linear Acceleration z (m/s^2)"
1.112032830E-1,-2.636671066E-1,-1.508851051E-1,-1.213226318E-1
1.612032830E-1,4.607522488E-2,2.472114563E-2,-3.657469749E-1
2.112032830E-1,3.621339798E-1,1.803202629E-1,-5.609827042E-1
2.612032830E-1,6.236703396E-1,1.039433479E-1,1.191352844E0
3.112032830E-1,-8.053059578E-1,-5.199813843E-2,-2.572412491E-1
3.612032830E-1,-1.183288932E0,-6.620135307E-1,1.545777321E0
4.112032830E-1,4.294385910E-1,2.199149132E-1,9.877862930E-1
4.612032830E-1,-8.754587173E-2,1.372213364E-1,4.666290283E-1
5.112032830E-1,9.568419456E-1,4.374794960E-1,-9.155898094E-1
5.612032830E-1,-3.946747780E-1,3.713221550E-1,1.058989525E0
6.112032830E-1,-7.876040936E-1,-9.563727379E-1,9.765377045E-1
6.612032830E-1,1.287631035E0,1.351722240E0,-1.316309452E0
7.112032830E-1,-7.609395981E-1,-3.223137379E0,-4.167588234E0
7.612032830E-1,3.858499527E-1,-6.237886429E0,-4.577159882E0
8.112032830E-1,2.097973824E0,-3.732470989E0,-1.636354923E0
8.612032830E-1,2.396728992E0,-3.495386124E0,1.748897076E0
9.112032830E-1,5.977106094E-1,-2.154622793E0,6.639476299E0
9.612032830E-1,1.844649315E0,9.250376225E-1,6.661273479E0
1.011203283E0,1.656960487E0,2.045055389E0,1.223184490E1
1.061203283E0,-1.495543003E0,-2.543910503E0,-4.500308037E0
1.111203283E0,1.414013863E0,1.342369556E0,-3.112643480E0
1.161203283E0,3.351700783E0,2.988751411E0,-1.352097154E0
1.211203283E0,3.138492584E0,2.472351551E0,1.045018435E0
1.261203283E0,7.456722260E-1,2.409002781E0,5.610161424E-1
1.311203283E0,-1.788582802E0,3.071696281E0,1.015954971E0
1.361203283E0,1.584910393E0,3.146257401E-1,-1.446726441E0
1.411203283E0,7.675299644E-1,2.645597458E-1,-6.884436607E-1
1.461203283E0,-2.113280296E-1,-1.958007812E-1,3.100597858E-1
1.511203283E0,-2.355000973E0,1.392417431E0,-1.307268381E0
1.561203283E0,2.668142319E-2,-6.877708435E-1,1.955088615E0
1.611203283E0,1.001760483E0,8.067622185E-1,-6.826400757E-2
1.661203283E0,1.006556511E0,2.597677231E0,1.571866989E0
1.711203283E0,2.098538160E0,-3.345655441E0,-2.790831089E0
1.761203283E0,2.014290810E0,-2.228606224E0,2.623988152E0
1.811203283E0,1.997161031E0,2.407264709E-2,2.075257540E0
1.861203283E0,2.614303231E-1,2.258565903E0,1.899362564E0
1.911203283E0,3.409787714E-1,1.668376923E-1,3.632631898E-1
1.961203283E0,1.002010942E0,7.529516220E-1,-1.801357388E0
2.011203283E0,-2.444983482E0,-4.666280746E-1,-1.774473906E0
2.061203283E0,-1.199411631E0,-4.177856445E-2,-3.463058233E0
2.111203283E0,-8.672251701E-1,1.759990692E0,-5.018907189E-1
2.161203283E0,4.370653629E-1,2.009701729E0,7.525585890E-1
2.211203283E0,1.693237662E0,1.363663673E0,1.717495918E-2
2.261203283E0,-4.992747307E-1,1.937524796E0,-2.957553864E-1
2.311203283E0,1.322467446E0,2.116182327E0,6.184642315E-1
2.361203283E0,2.410530090E0,1.528302670E0,3.169917822E0
2.411203283E0,1.994068146E0,-2.688425064E0,5.589366913E0
2.461203283E0,-2.063498497E-1,2.686261177E0,2.754774570E0
2.511203283E0,-4.959149361E0,-3.600518227E0,-5.563037872E0
2.561203283E0,-4.168094635E0,-2.044970512E0,-5.470604897E-1
2.611203283E0,1.839650869E0,2.600457191E0,-1.145662308E1
2.661203283E0,2.140623569E0,-5.865226746E0,1.459775448E0
2.711203283E0,4.215115547E0,8.767681122E-1,-2.229577303E0
2.761203283E0,-1.965009093E0,3.620105743E0,6.458123922E-1
2.811203283E0,-2.157938957E0,1.734857559E-1,6.667000651E-1
2.861203283E0,5.139693022E-1,7.567358017E-1,3.821432590E-1
2.911203283E0,8.904771805E-1,-1.258049011E0,2.234462261E0
2.961203283E0,5.747251987E0,-3.378211975E0,5.008999825E0
3.011203283E0,2.405240297E0,-4.698326111E0,5.878823757E0
3.061203283E0,3.859133720E-1,-3.972509384E0,5.165641308E0
3.111203283E0,-2.550016403E0,-6.723989487E0,-1.268162966E0
3.161203283E0,-6.255446434E0,-5.259680748E0,-2.917727470E0
3.211203283E0,-2.902347326E0,-1.421695709E0,-4.980844021E0
3.261203283E0,9.121431112E-1,2.254349232E0,-6.130383015E0
3.311203283E0,2.927292347E0,5.069611073E0,-7.426558495E0
3.361203283E0,1.205983996E0,5.699565887E0,-6.888664722E0
3.411203283E0,-6.973977089E-1,5.687110424E0,-6.039940834E0
3.461203283E0,-1.339059353E0,2.122739792E0,7.421525002E0
3.511203283E0,-3.205702543E0,-1.297022247E1,7.896899223E0
3.561203283E0,1.096826911E0,6.763746262E0,-6.542978287E-1
3.611203283E0,-5.538088799E0,-8.472766876E0,-9.807899475E0
3.661203283E0,6.628898382E-1,2.398353577E0,-9.441389084E0
3.711203283E0,4.549181461E-1,-2.480667114E0,-5.867803574E0
3.761203283E0,2.745786190E0,-1.250393867E0,-2.552095056E-1
3.811203283E0,8.297860622E-1,2.916941643E0,-1.312226951E-1
3.861203283E0,1.042209864E-1,1.837701797E0,1.594540358E0
3.911203283E0,1.392104626E-1,7.780799866E-1,-2.242757082E-1
3.961203283E0,1.243184805E0,4.686927795E-1,3.398611784E0
4.011203283E0,4.420783043E0,-3.139690399E0,5.507692337E0
4.061203283E0,4.561251640E0,-5.390641212E0,3.307445049E0
4.111203283E0,-1.221135378E0,-3.653656006E0,7.575497627E0
4.161203283E0,-5.712448359E-1,-7.065212250E0,6.764389277E-1
4.211203283E0,-5.424922466E0,-6.804784775E0,-5.266542912E0
4.261203283E0,-2.763655186E0,-3.474166870E0,-4.793583870E0
4.311203283E0,-1.892806649E0,1.746664047E0,-5.978461266E0
4.361203283E0,3.900104046E0,4.406819820E0,-8.356429100E0
4.411203283E0,1.497497082E0,6.094822407E0,-7.071603775E0
4.461203283E0,4.561768770E-1,7.635913849E0,-6.072606564E0
4.511203283E0,-9.691863060E-1,2.162383080E0,8.233743668E0
4.561203283E0,-3.851144314E-1,-9.002006531E0,5.249066353E0
4.611203283E0,-3.430976868E0,1.216148376E0,1.509977341E0
4.661203283E0,-2.554599047E0,-1.948680878E-1,-1.173658943E1
4.711203283E0,1.297275305E0,-7.668132782E-1,-1.060305023E1
4.761203283E0,2.883542538E0,-4.624981880E0,8.149931431E-1
4.811203283E0,3.445813417E0,4.267826080E-1,-7.623434663E-1
4.861203283E0,-1.757253766E0,3.462597847E0,4.534741938E-1
4.911203283E0,6.870996952E-2,1.905739784E0,2.149112940E0
4.961203283E0,1.442073584E0,1.001048088E0,-3.537557721E-1
5.011203283E0,5.651845932E-1,-9.585762024E-1,2.703809738E0
5.061203283E0,3.521980762E0,-2.128744125E0,7.111154556E0
5.111203283E0,4.712088585E0,-6.482768059E0,5.467450142E0
5.161203283E0,2.022532225E0,-6.497687340E0,4.428880692E0
5.211203283E0,-4.181149483E0,-6.690200806E0,-4.140837193E0
5.261203283E0,-5.474546909E0,-5.049545288E0,3.477016687E-1
5.311203283E0,-3.708637953E-1,-1.676206589E0,-5.768711090E0
5.361203283E0,-7.472670078E-2,2.931746960E0,-4.376941204E0
5.411203283E0,4.259495735E0,4.911390305E0,-7.636196136E0
5.461203283E0,1.231461763E0,7.007527351E0,-7.844307899E0
5.511203283E0,8.359932899E-1,7.328325748E0,-4.781204224E0
5.561203283E0,-6.965302467E0,-6.651557922E0,6.695490837E0
5.611203283E0,1.041321754E0,5.724439621E-1,4.218696594E0
5.661203283E0,-4.440725803E0,-4.124462128E0,-2.607428074E0
5.711203283E0,-1.531008482E0,-2.097415924E-2,-1.217989349E1
5.761203283E0,2.985677719E0,-4.459619522E-1,-1.201898289E1
5.811203283E0,2.666871071E0,-4.452480316E0,3.579030037E0
5.861203283E0,3.311389923E0,2.048041344E0,1.005228162E-1
5.911203283E0,-1.555936575E0,3.765755653E0,1.022460580E0
5.961203283E0,-7.227338552E-1,1.521351814E0,2.054789066E-1
6.011203283E0,3.279678822E-1,1.487693787E-1,2.549972057E0
6.061203283E0,5.093290329E0,-3.650972366E0,6.022103786E0
6.111203283E0,5.285065651E0,-5.663453102E0,3.175804138E0
6.161203283E0,-1.339702606E-1,-5.513316154E0,7.430567741E0
6.211203283E0,-2.154809952E0,-6.272624016E0,1.581129313E0
6.261203283E0,-6.358042717E0,-6.443779945E0,-3.789537191E0
6.311203283E0,-4.107481480E0,-3.254722595E0,-3.829831362E0
6.361203283E0,-2.690166235E-1,2.646947384E0,-5.756341934E0
6.411203283E0,4.523655891E0,3.823637009E0,-7.208117485E0
6.461203283E0,2.231058836E0,5.989866257E0,-6.309151173E0
6.511203283E0,9.135026932E-1,7.045117378E0,-6.365734577E0
6.561203283E0,-2.423126936E0,1.322736740E0,7.828646183E0
6.611203283E0,-2.977644205E0,-1.335097504E1,7.587342739E0
6.661203283E0,-5.963524818E0,1.455375671E0,-1.366331577E0
6.711203283E0,-2.823698282E0,-2.703142166E0,-1.194295597E1
6.761203283E0,9.418163300E-1,-9.782285690E-1,-1.009705639E1
6.811203283E0,1.949139118E0,-4.731002808E0,1.014172792E0
6.861203283E0,3.361160755E0,5.615186691E-1,-1.361511707E0
6.911203283E0,-1.313870311E0,3.643688202E0,7.288848162E-1
6.961203283E0,-1.159320712E0,2.349484444E0,7.999261618E-1
7.011203283E0,1.289219260E0,1.559480667E0,1.635901451E0
7.061203283E0,3.445664883E0,-4.047870636E0,3.961088419E0
7.111203283E0,6.054832458E0,-2.957432747E0,5.816611767E0
7.161203283E0,1.161711216E-1,-6.419314384E0,5.845263004E0
7.211203283E0,-6.477053165E-1,-5.654697418E0,4.694855690E0
7.261203283E0,-3.429098129E0,-7.868510246E0,-8.611915588E0
7.311203283E0,-3.535418510E0,-4.924572945E0,1.145458937E0
7.361203283E0,5.068368912E-1,2.197675705E-1,-5.371537685E0
7.411203283E0,3.334424973E0,2.995902538E0,-8.620100021E0
7.461203283E0,2.975187302E0,5.066977024E0,-6.396328449E0
7.511203283E0,9.344441891E-1,8.579966545E0,-8.086280823E0
7.561203283E0,1.462936401E-3,4.530443668E0,3.004775524E0
7.611203283E0,-7.810818195E0,-2.283589363E1,1.304191017E1
7.661203283E0,8.174228668E-1,5.396330357E0,-2.188677788E-1
7.711203283E0,-5.074831009E0,-6.535506248E0,-1.158913708E1
7.761203283E0,-1.863667965E0,2.924334526E0,-7.258916855E0
7.811203283E0,7.706248760E-1,-4.140426636E0,-4.567878723E0
7.861203283E0,5.401754379E0,-7.316789627E-1,8.594807386E-1
7.911203283E0,1.091027498E0,4.171664715E0,-1.104778647E0
7.961203283E0,-1.552266121E0,1.681147575E0,2.040564060E0
8.011203283E0,-6.890088320E-1,7.827444077E-1,-2.168142796E-1
8.061203283E0,6.117677689E-1,-8.830070496E-2,3.129910469E0
8.111203283E0,5.519500732E0,-4.263423920E0,6.811838150E0
8.161203283E0,3.890641451E0,-4.886836052E0,4.404411316E0
8.211203283E0,3.097633123E-1,-5.709603310E0,5.968921661E0
8.261203283E0,-4.082637787E0,-6.341759682E0,-4.390287399E0
8.311203283E0,-6.408477783E0,-5.301060677E0,1.550119281E0
8.361203283E0,4.882849455E-1,-9.229526520E-1,-6.509305954E0
8.411203283E0,2.532328367E-1,3.003759861E0,-4.201736450E0
8.461203283E0,4.700460911E0,5.178682327E0,-6.346279144E0
8.511203283E0,1.007833958E0,6.253384590E0,-7.424631119E0
8.561203283E0,7.100946903E-1,7.074889183E0,-3.787645578E0
8.611203283E0,-6.815328598E0,-7.669739723E0,9.912455559E0
8.661203283E0,8.774564266E-1,-1.159811020E0,3.964958191E0
8.711203283E0,-5.189519882E0,-6.047331810E0,-3.024191141E0
8.761203283E0,-7.259711027E-1,4.745082378E0,-1.328737545E1
8.811203283E0,2.333676815E0,-2.055389404E0,-1.362430573E1
8.861203283E0,3.276276588E0,-6.190829277E0,4.627965450E0
8.911203283E0,2.926373482E0,2.695495605E0,4.966239929E-1
8.961203283E0,-1.499338150E0,4.157968521E0,1.310677052E0
9.011203283E0,-1.230574012E0,2.320925713E0,1.114573479E0
9.061203283E0,1.393665195E0,-7.103252411E-1,3.453142166E0
9.111203283E0,6.083564758E0,-3.385907173E0,6.298538685E0
9.161203283E0,5.831025124E0,-4.924332619E0,3.697894812E0
9.211203283E0,-4.225306511E-1,-5.692708015E0,7.327070236E0
9.261203283E0,-3.068197250E0,-5.809357643E0,1.414861083E-1
9.311203283E0,-7.013319016E0,-7.744049072E0,-4.776608467E0
9.361203283E0,-1.075241804E0,-2.846564293E0,-4.830568314E0
9.411203283E0,-6.221709251E-1,2.117040634E0,-4.759171486E0
9.461203283E0,4.202222347E0,4.839223385E0,-7.876969337E0
9.511203283E0,1.685097337E0,6.287638187E0,-7.357999325E0
9.561203283E0,-4.809188843E-2,6.704475403E0,-5.630211353E0
9.611203283E0,-2.589991093E0,2.318952560E0,6.024680138E0
9.661203283E0,-1.898938656E0,-1.005395985E1,5.799242020E0
9.711203283E0,-1.821522713E0,1.104018211E0,-7.357637882E-1
9.761203283E0,-3.431887388E0,-2.516746521E0,-1.003593349E1
9.811203283E0,3.154651403E0,1.108360291E-2,-1.240183544E1
9.861203283E0,2.087734699E0,-4.140521049E0,2.429729700E0
9.911203283E0,4.721733570E0,-2.827968597E-1,-6.368901730E-1
9.961203283E0,-1.377590299E0,4.493811607E0,6.439259052E-1
1.001120328E1,-1.141301513E0,1.611994267E0,2.422451258E0
1.006120328E1,-2.743577957E-1,3.789558411E-1,-3.859336376E-1
1.011120328E1,2.621328354E0,-1.426699638E0,5.399415016E0
1.016120328E1,7.138932228E0,-3.491403580E0,4.090411186E0
1.021120328E1,1.498852849E0,-6.315608025E0,6.139616013E0
1.026120328E1,1.782176495E-1,-6.788792610E0,4.010541439E0
1.031120328E1,-4.607457161E0,-8.019132614E0,-8.729694366E0
1.036120328E1,-4.220608711E0,-4.441491127E0,1.837310433E0
1.041120328E1,1.059902668E0,5.077333450E-1,-5.870556831E0
1.046120328E1,2.375095844E0,3.126674175E0,-4.770040035E0
1.051120328E1,4.454501152E0,5.005217075E0,-6.351307869E0
1.056120328E1,1.373980165E0,7.495543957E0,-8.111763000E0
1.061120328E1,8.039309978E-1,5.324241638E0,-2.896800995E0
1.066120328E1,-5.416466713E0,-7.733735085E0,7.865547657E0
1.071120328E1,-1.639725208E0,-3.479433060E-1,2.351470947E0
1.076120328E1,-5.073095322E0,-3.781564713E0,8.252012253E0
1.081120328E1,-5.530631542E-1,1.899535179E0,-1.518272209E1
1.086120328E1,9.345605373E-1,-1.257612228E0,-1.130893803E1
1.091120328E1,2.517002583E0,-6.230244637E0,2.412054539E-1
1.096120328E1,5.330532551E0,6.168270111E-1,3.318743110E-1
1.101120328E1,-1.090165138E0,3.885633469E0,1.250854254E0
1.106120328E1,-1.268487096E0,9.259328842E-1,1.849258184E0
1.111120328E1,1.513365507E-1,2.324914932E-1,3.961418867E-1
1.116120328E1,2.759402275E0,-1.694313049E0,4.732204437E0
1.121120328E1,7.364623547E0,-3.195350647E0,5.009821892E0
1.126120328E1,2.994086742E-1,-5.947849274E0,8.400143623E0
1.131120328E1,2.030254841E0,-6.583518982E0,3.435825348E0
1.136120328E1,-2.690125942E0,-7.982640266E0,-8.129268646E0
1.141120328E1,-4.651568890E0,-5.072742462E0,1.971330762E0
1.146120328E1,-2.855741978E-2,2.555007935E-1,-6.319678783E0
1.151120328E1,1.430104256E0,3.367343903E0,-3.885917664E0
1.156120328E1,4.812485218E0,4.747640133E0,-6.764246941E0
1.161120328E1,1.270874381E0,6.685626030E0,-7.818593025E0
1.166120328E1,3.021695614E-1,7.608672619E0,-3.550077915E0
1.171120328E1,-9.368928909E0,-1.021124363E1,1.196174812E1
1.176120328E1,-3.890328407E-1,1.582435131E0,3.494822979E0
1.181120328E1,-5.983287811E0,-3.702628136E0,-6.690532684E0
1.186120328E1,-1.757778406E0,-1.751244545E0,-1.091706657E1
1.191120328E1,3.074815989E0,-6.266212463E-1,-1.132152176E1
1.196120328E1,2.983909130E0,-4.231260300E0,3.402696133E0
1.201120328E1,3.796165466E0,2.528371811E0,4.715666771E-1
1.206120328E1,-1.252367854E0,2.784761429E0,1.181206822E0
1.211120328E1,-1.303977251E0,9.226093292E-1,8.573797345E-1
1.216120328E1,1.518862367E0,2.528905869E-1,3.920930386E0
1.221120328E1,7.171091080E0,-3.948539734E0,5.360786438E0
1.226120328E1,4.175563335E0,-6.090606689E0,4.201972961E0
1.231120328E1,-7.279756069E-1,-3.040452003E0,7.461578846E0
1.236120328E1,-2.188795090E0,-9.684431076E0,-5.976650715E0
1.241120328E1,-5.362078190E0,-5.520883560E0,-3.731578588E-1
1.246120328E1,-1.815645933E0,-2.654650688E0,-5.412562370E0
1.251120328E1,-2.205228806E-1,3.302138329E0,-5.662398815E0
1.256120328E1,4.702112198E0,4.588069916E0,-7.470563889E0
1.261120328E1,1.236421943E0,7.586346149E0,-7.767751694E0
1.266120328E1,3.893573284E-1,7.959037781E0,-5.981949806E0
1.271120328E1,-6.130451202E0,-3.615972519E0,1.079540443E1
1.276120328E1,1.794120312E0,-7.950290680E0,5.550556660E0
1.281120328E1,-4.456215858E0,1.841919899E0,4.547051430E0
1.286120328E1,-4.399652481E-1,-1.057565689E0,-1.480000687E1
1.291120328E1,1.658110619E-1,-4.435348511E-2,-6.432447910E0
1.296120328E1,2.010182619E0,-4.664669991E0,7.719726562E-1
1.301120328E1,5.198049068E0,-1.587762833E-1,-1.038631916E0
1.306120328E1,-1.696040273E0,3.123088837E0,9.196044803E-1
1.311120328E1,-1.639380336E0,1.649199009E0,8.948261738E-1
1.316120328E1,2.125092745E-1,3.205909729E-1,-9.215143919E-1
1.321120328E1,2.997946739E0,-1.601284981E0,4.903862000E0
1.326120328E1,6.240764618E0,-4.206752777E0,3.768100739E0
1.331120328E1,2.207711458E0,-5.886444092E0,7.659932137E0
1.336120328E1,6.961469650E-1,-5.691186905E0,4.939033985E0
1.341120328E1,-3.605325699E0,-8.378746986E0,-6.969342232E0
1.346120328E1,-4.668515205E0,-4.548141479E0,-6.991258860E-1
1.351120328E1,-1.634560466E0,-1.137819290E-1,-6.428938866E0
1.356120328E1,2.313036442E0,3.470828533E0,-5.110352516E0
1.361120328E1,5.576221466E0,4.586345673E0,-5.709638596E0
1.366120328E1,9.823030233E-1,7.222762108E0,-7.475888729E0
1.371120328E1,1.260455370E0,6.154211044E0,-2.088520050E0
1.376120328E1,-9.594171524E0,-1.196562958E1,1.179640293E1
1.381120328E1,1.922743320E-1,-6.395740509E-1,2.957205772E0
1.386120328E1,-3.452271461E0,-8.715420723E0,-9.403032303E0
1.391120328E1,3.614072800E-1,6.210283279E0,-1.204901123E1
1.396120328E1,3.468534946E0,-5.085380554E0,-1.094753265E1
1.401120328E1,5.766321659E0,-2.923378944E0,2.194419861E0
1.406120328E1,1.614876390E0,2.952708721E0,-7.199407220E-1
1.411120328E1,-1.597372174E0,3.525049210E0,1.721190572E0
1.416120328E1,-6.913647652E-1,6.848011017E-1,2.142123461E0
1.421120328E1,1.072654128E0,8.697690964E-1,-1.391239643E0
1.426120328E1,2.506578684E0,-2.698961258E0,5.453607082E0
1.431120328E1,7.485060692E0,-3.893558502E0,4.447079659E0
1.436120328E1,1.109880686E0,-5.772408485E0,7.904602528E0
1.441120328E1,4.464805126E-1,-6.742612839E0,2.195583344E0
1.446120328E1,-5.241757393E0,-8.668054581E0,-7.172087669E0
1.451120328E1,-2.859468460E0,-4.707311630E0,-1.307284355E0
1.456120328E1,2.940131426E-1,7.595224380E-1,-5.556520462E0
1.461120328E1,4.065558434E0,3.800679207E0,-8.263805389E0
1.466120328E1,3.512700558E0,5.440865993E0,-6.973804474E0
1.471120328E1,9.637744427E-1,7.824690342E0,-7.466823578E0
1.476120328E1,-1.415681839E0,4.327430725E0,4.993375301E0
1.481120328E1,-6.618757725E0,-1.830937004E1,7.727820873E0
1.486120328E1,3.330245018E-1,6.249540329E0,2.179085255E0
1.491120328E1,-4.226370811E0,-8.252047539E0,-1.088806915E1
1.496120328E1,-1.166781068E0,3.196979523E0,-4.624533176E0
1.501120328E1,2.103117943E0,-2.860009193E0,-6.447106361E0
1.506120328E1,6.097633362E0,-2.628211021E0,-3.264937401E-1
1.511120328E1,6.250569224E-1,3.682617188E0,1.374124289E-1
1.516120328E1,-2.274526834E0,2.601867676E0,1.995861530E0
1.521120328E1,-9.530851841E-1,9.801568985E-1,-7.808568478E-1
1.526120328E1,1.794390917E0,7.535572052E-1,4.687143803E0
1.531120328E1,6.161725521E0,-3.312662125E0,4.305299759E0
1.536120328E1,4.240272522E0,-5.236199379E0,4.710745811E0
1.541120328E1,5.314363241E-1,-5.292228699E0,5.165970802E0
1.546120328E1,-4.326008797E0,-6.766829491E0,-3.932989240E-1
1.551120328E1,-7.739214897E0,-5.308823586E0,5.363116264E-1
1.556120328E1,-1.005204439E0,-1.399538994E0,-4.727814674E0
1.561120328E1,2.170544147E0,3.319993973E0,-5.858221531E0
1.566120328E1,4.623964310E0,4.697491169E0,-5.382604599E0
1.571120328E1,1.391632557E0,5.406989574E0,-6.895936012E0
1.576120328E1,-3.246860504E-1,6.237388611E0,-5.331505775E0
1.581120328E1,-3.854157686E0,2.794265747E-1,7.993567467E0
1.586120328E1,-2.610233545E0,-7.946604729E0,5.597406387E0
1.591120328E1,-2.271989584E0,2.995144367E0,-1.119787693E0
1.596120328E1,-4.690872192E0,-5.442811966E0,-8.224045753E0
1.601120328E1,2.265568018E0,2.206071854E0,-8.903188705E0
1.606120328E1,9.739135504E-1,-3.639266968E0,-2.521535397E0
1.611120328E1,4.685798645E0,-3.499212265E-1,-6.564657092E-1
1.616120328E1,6.225782633E-2,2.851415157E0,5.609382987E-1
1.621120328E1,-1.451130629E0,2.049360275E0,1.565139055E0
1.626120328E1,-1.440744400E-1,5.071706772E-1,2.186120033E0
1.631120328E1,5.162159920E0,-2.050094604E0,4.761224270E0
1.636120328E1,6.795315742E0,-3.192484856E0,4.644208908E0
1.641120328E1,4.922363758E-1,-5.195573807E0,8.282164574E0
1.646120328E1,3.419799805E-1,-4.848873138E0,5.344211102E0
1.651120328E1,-3.270095348E0,-8.134189606E0,-5.762852192E0
1.656120328E1,-5.534522057E0,-5.434248924E0,1.061104298E0
1.661120328E1,-1.087760448E0,-9.710226059E-1,-4.557142258E0
1.666120328E1,2.581814528E0,3.083902836E0,-4.978108406E0
1.671120328E1,4.776885509E0,5.015614033E0,-7.708898544E0
1.676120328E1,1.136881828E0,7.392434597E0,-8.429453850E0
1.681120328E1,9.036161900E-1,7.304609299E0,-3.600755453E0
1.686120328E1,-7.836453438E0,-9.896710396E0,1.301881504E1
1.691120328E1,7.014408112E-1,-1.122053146E0,4.840023518E0
1.696120328E1,-2.683983803E0,-2.092680931E0,-1.863956690E0
1.701120328E1,-1.041190028E0,-6.401634216E-2,-1.072184563E1
1.706120328E1,6.719604731E-1,-3.801898956E-1,-1.314906979E1
1.711120328E1,8.042786717E-1,-4.319629669E0,3.123709679E0
1.716120328E1,5.864144325E0,9.424438477E-1,-1.622262955E0
1.721120328E1,-8.961680532E-1,2.946032524E0,1.353626251E0
1.726120328E1,-1.485576630E0,1.197386742E0,1.896661282E0
1.731120328E1,2.094662189E-2,1.351945877E0,-2.483296394E-1
1.736120328E1,3.675888062E0,-2.121031761E0,6.198569298E0
1.741120328E1,6.893520355E0,-3.616828918E0,2.692865372E0
1.746120328E1,-7.805547714E-1,-5.872299194E0,1.030981255E1
1.751120328E1,7.555071115E-1,-5.454388618E0,3.287752151E0
1.756120328E1,-3.356092930E0,-8.701996803E0,-9.062900543E0
1.761120328E1,-2.399752617E0,-5.221110344E0,1.229269624E0
1.766120328E1,-3.197376728E-1,6.909837723E-1,-6.780588150E0
1.771120328E1,1.942762375E0,4.267671108E0,-4.935558796E0
1.776120328E1,4.520454884E0,5.859860420E0,-7.490774155E0
1.781120328E1,1.519347072E0,6.860941410E0,-7.692437172E0
1.786120328E1,7.311669588E-1,6.260364056E0,-3.758980274E0
1.791120328E1,-1.131620979E1,-1.541720200E1,1.120460606E1
1.796120328E1,1.507245302E0,8.126640320E-1,3.304759026E0
1.801120328E1,-1.796960473E0,-3.062132835E0,-1.438692570E0
1.806120328E1,-4.327926159E0,1.775227547E0,-1.234539509E1
1.811120328E1,2.806320667E0,-9.832668304E-2,-1.372539902E1
1.816120328E1,2.651594162E0,-5.318815231E0,3.068990231E0
1.821120328E1,4.129915237E0,1.248800278E0,-4.743733704E-1
1.826120328E1,-2.270424366E0,3.430929661E0,9.446967244E-1
1.831120328E1,-1.900864363E0,1.105778694E0,1.571107626E0
1.836120328E1,1.378041625E0,1.392211437E0,1.237457395E0
1.841120328E1,4.746739388E0,-2.257954597E0,5.838288307E0
1.846120328E1,5.226643085E0,-3.946892738E0,4.050416946E0
1.851120328E1,9.668350220E-1,-5.496674538E0,8.480503082E0
1.856120328E1,8.860337734E-2,-6.086300850E0,2.930376530E0
1.861120328E1,-4.111441612E0,-8.912837029E0,-9.070896149E0
1.866120328E1,-2.399517059E0,-5.700819969E0,-2.466558218E-1
1.871120328E1,1.782735348E0,1.019067764E-1,-6.071933746E0
1.876120328E1,2.940527916E0,3.316274643E0,-5.186094761E0
1.881120328E1,3.129906178E0,4.505161762E0,-6.523893833E0
1.886120328E1,3.738092184E-1,7.548561096E0,-8.410645485E0
1.891120328E1,4.550749063E-1,6.033055305E0,-1.205188274E0
1.896120328E1,-1.041731071E1,-1.913386154E1,1.468949699E1
1.901120328E1,-1.272592545E-1,3.391889095E0,2.284876823E0
1.906120328E1,-1.719391108E0,-7.853900909E0,-1.185725451E0
1.911120328E1,-1.163885713E0,5.446012974E0,-1.245957851E1
1.916120328E1,2.660730600E0,-1.468084335E0,-1.362365150E1
1.921120328E1,3.596240997E0,-4.869976997E0,3.557785511E0
1.926120328E1,3.227116585E0,1.630414009E0,-4.686121345E-1
1.931120328E1,-1.756644249E0,3.633233070E0,1.602277994E0
1.936120328E1,-8.027124405E-1,7.654542923E-1,1.342248678E0
1.941120328E1,2.933861017E-1,9.591941833E-1,-1.358667850E0
1.946120328E1,2.572857380E0,-2.182492256E0,5.464264870E0
1.951120328E1,8.640387535E0,-3.187761307E0,4.312944412E0
1.956120328E1,-4.520113468E-1,-5.821917534E0,1.132837200E1
1.961120328E1,1.423503399E0,-5.456978798E0,3.520490170E0
1.966120328E1,-3.391341209E0,-9.902513504E0,-9.169915199E0
1.971120328E1,-2.674906254E0,-5.365016937E0,-2.667026520E-1
1.976120328E1,-3.903561831E-1,4.554862976E-1,-5.878509045E0
1.981120328E1,3.003627300E0,4.430938721E0,-5.611458778E0
1.986120328E1,2.792632341E0,4.181615829E0,-6.254696369E0
1.991120328E1,8.026871681E-1,7.793034554E0,-8.011228561E0
1.996120328E1,8.759692907E-1,6.477594376E0,-1.212799788E0
2.001120328E1,-1.067659187E1,-2.314748383E1,1.583961201E1
2.006120328E1,-7.792465687E-1,4.068736076E0,2.964268684E0
2.011120328E1,-2.152435541E0,-8.028890610E0,-1.056436729E1
2.016120328E1,-2.738560677E0,4.555241108E0,-8.717882156E0
2.021120328E1,2.605076313E0,-3.711392403E0,-1.010517502E1
2.026120328E1,5.849768162E0,-3.180921555E0,2.630650043E0
2.031120328E1,1.292379618E0,3.037455559E0,1.092547297E0
2.036120328E1,-1.339338541E0,2.392634392E0,1.172835827E0
2.041120328E1,-7.533834577E-1,9.521369934E-1,1.063456297E0
2.046120328E1,1.124610305E0,1.100062370E0,2.289107561E0
2.051120328E1,3.737118721E0,-3.370090485E0,6.251753807E0
2.056120328E1,6.450767517E0,-4.958913803E0,4.718948841E0
2.061120328E1,-6.135085821E-1,-4.317118645E0,8.799435616E0
2.066120328E1,6.652562618E-1,-5.862028122E0,3.412944674E-1
2.071120328E1,-6.699736595E0,-8.650004387E0,-3.891592026E0
2.076120328E1,-3.170082331E0,-4.678966522E0,-3.397127390E0
2.081120328E1,-1.993722320E-1,-2.328701019E-1,-4.561995506E0
2.086120328E1,2.855944633E0,3.688902378E0,-8.238073349E0
2.091120328E1,1.993701339E0,5.947200298E0,-6.685200691E0
2.096120328E1,4.007453918E-1,8.663736343E0,-7.342592716E0
2.101120328E1,-7.607127428E-1,4.327498436E0,8.420328140E0
2.106120328E1,-6.685252190E0,-1.768527031E1,8.211946487E0
2.111120328E1,9.930524826E-1,9.003236771E0,8.972806931E-1
2.116120328E1,-6.691462040E0,-1.243727207E1,-4.592869759E0
2.121120328E1,5.997759104E-1,1.920591354E0,-9.982199669E0
2.126120328E1,3.591937065E0,2.488136292E-1,-1.031669426E1
2.131120328E1,4.300533295E0,-4.871222496E0,1.487443447E0
2.136120328E1,2.251742363E0,2.993257523E0,1.781615019E0
2.141120328E1,-1.869016886E0,3.083455086E0,1.501848221E0
2.146120328E1,-1.294918299E0,1.024750710E0,8.593225479E-2
2.151120328E1,1.496959925E0,1.282509804E0,3.307891846E0
2.156120328E1,4.807338715E0,-3.716462135E0,6.675307274E0
2.161120328E1,4.939332962E0,-5.941553116E0,5.542836189E0
2.166120328E1,-8.773183823E-2,-4.219542503E0,7.739142418E0
2.171120328E1,-3.617445946E0,-8.270490646E0,-3.577181101E0
2.176120328E1,-5.246368408E0,-6.192257881E0,3.065999746E-1
2.181120328E1,-1.289223194E0,-3.044067383E0,-4.968692780E0
2.186120328E1,-4.278666377E-1,2.940406799E0,-5.462555408E0
2.191120328E1,4.332980633E0,4.678536415E0,-8.101454735E0
2.196120328E1,1.835779667E0,6.729978561E0,-7.564160824E0
2.201120328E1,5.348949432E-1,7.080093384E0,-6.171000957E0
2.206120328E1,-5.144042969E0,3.625020981E-1,5.938301086E0
2.211120328E1,-7.095043659E-1,-8.169884682E0,4.780071735E0
2.216120328E1,-2.814659595E0,-9.620265961E-1,4.016861916E0
2.221120328E1,-9.963867664E-1,4.168438911E-1,-1.442211056E1
2.226120328E1,-2.440464497E-1,-1.260538101E0,-1.086057186E1
2.231120328E1,2.533473492E0,-4.697129250E0,1.499831438E0
2.236120328E1,4.632611275E0,2.482662201E-1,-2.008269429E-1
2.241120328E1,-9.075061083E-1,3.435474396E0,1.489870310E0
2.246120328E1,-1.185109973E0,2.668118000E0,2.377379894E0
2.251120328E1,-3.448793888E-1,-7.242546082E-1,-1.574371099E0
2.256120328E1,1.294943571E0,-1.589638710E0,5.061248302E0
2.261120328E1,5.748491287E0,-2.477056503E0,5.764778137E0
2.266120328E1,4.287844658E0,-5.459198952E0,4.814968109E0
2.271120328E1,1.214641690E0,-6.160243034E0,6.021291256E0
2.276120328E1,-3.737078905E0,-7.171983719E0,-5.993400097E0
2.281120328E1,-5.230937481E0,-5.781264305E0,1.703616023E0
2.286120328E1,5.608931184E-1,-8.469209671E-1,-4.379693031E0
2.291120328E1,7.968856096E-1,3.180531502E0,-4.145690918E0
2.296120328E1,4.258009911E0,3.610990524E0,-3.521620035E0
2.301120328E1,1.373983383E0,6.255753517E0,-8.586278915E0
2.306120328E1,-4.483399391E-1,6.245313168E0,-5.013343811E0
2.311120328E1,-7.435294151E0,-5.681891441E0,5.289126396E0
2.316120328E1,-2.416539192E-2,-2.020940781E0,5.015559673E0
2.321120328E1,-3.951789856E0,-1.205190182E1,-1.691660881E-1
2.326120328E1,-2.631597519E-1,8.023569107E0,-1.316737175E1
2.331120328E1,3.117634773E0,-3.484766960E0,-1.595678043E1
2.336120328E1,5.269592285E0,-4.232385635E0,4.968070984E0
2.341120328E1,3.347814083E0,2.555104256E0,-3.755878210E-1
2.346120328E1,-1.614416361E0,3.655673027E0,1.263294935E0
2.351120328E1,-6.463998556E-1,5.529575348E-1,2.645489693E0
2.356120328E1,4.919062257E-1,9.540853500E-1,-9.120504856E-1
2.361120328E1,2.720450640E0,-2.147185326E0,3.855890274E0
2.366120328E1,6.406997204E0,-4.150343895E0,6.663328171E0
2.371120328E1,2.497484446E0,-6.709429741E0,8.881229401E0
2.376120328E1,2.718245029E0,-6.956448555E0,2.640313625E0
2.381120328E1,-4.557731152E0,-9.656822205E0,-8.512264252E0
2.386120328E1,-3.627313614E0,-4.813829422E0,-1.709218383E0
2.391120328E1,1.033360481E0,-4.778003693E-2,-5.901535988E0
2.396120328E1,3.100641489E0,3.146314621E0,-7.440293312E0
2.401120328E1,1.497407317E0,5.792341709E0,-8.629821777E0
2.406120328E1,6.378022432E-1,8.421726227E0,-7.868805885E0
2.411120328E1,1.264170408E-1,4.497842312E0,6.817529202E0
2.416120328E1,-3.790914774E0,-1.420077610E1,8.186142921E0
2.421120328E1,-2.730176926E0,4.465625286E0,1.290987492E0
2.426120328E1,-3.609233856E0,-6.754865646E0,-1.139220238E1
2.431120328E1,-2.379038334E0,6.180000305E-1,-4.226531982E0
2.436120328E1,3.376150608E0,-2.384352684E0,-5.924314499E0
2.441120328E1,5.517721176E0,-2.603117943E0,-8.635079861E-2
2.446120328E1,1.209422350E-1,3.226599693E0,1.686841488E0
2.451120328E1,-1.424648404E0,2.452776909E0,9.152135849E-1
2.456120328E1,-1.439435005E0,3.579530716E-1,-1.160284519E0
2.461120328E1,1.558023214E0,-1.633862495E0,3.941812754E0
2.466120328E1,6.979592323E0,-3.195363045E0,6.229405880E0
2.471120328E1,1.087445021E0,-5.743280411E0,4.625688076E0
2.476120328E1,2.486617565E0,-3.025005341E0,6.988336563E0
2.481120328E1,1.962947965E0,-6.368022919E0,1.136359572E-1
2.486120328E1,-4.661517620E0,-7.603415489E0,-5.389045238E0
2.491120328E1,-3.278832436E0,-3.289897919E0,-3.628631830E0
2.496120328E1,-1.814896584E0,1.623250961E0,-3.919947863E0
2.501120328E1,3.643465042E0,3.723764420E0,-8.461271286E0
2.506120328E1,1.974090219E0,5.558225155E0,-6.280099392E0
2.511120328E1,1.454301119E0,7.440483570E0,-7.191106796E0
2.516120328E1,-1.124007463E0,3.427165031E0,8.310147285E0
2.521120328E1,-1.791997671E0,-9.996173859E0,5.638294220E0
2.526120328E1,-5.478079796E0,-5.100196838E0,2.181662083E0
2.531120328E1,-2.857792377E-1,4.976806164E0,-1.631497192E1
2.536120328E1,4.889633656E0,-3.646599770E0,-1.604570007E1
2.541120328E1,4.795120716E0,-4.359767914E0,5.293538570E0
2.546120328E1,3.655846596E0,1.327810287E0,-3.295175731E-1
2.551120328E1,-2.904083729E0,3.530176163E0,1.414775014E0
2.556120328E1,-1.114460826E0,1.510439873E0,1.690706491E0
2.561120328E1,2.310006618E-1,6.594276428E-1,-1.767848372E0
2.566120328E1,3.716163158E0,-2.556866646E0,4.590474606E0
2.571120328E1,6.887675285E0,-2.208399773E0,5.156853199E0
2.576120328E1,1.036693811E0,-6.419677734E0,7.906856537E0
2.581120328E1,1.680354118E0,-7.492753029E0,3.189424992E0
2.586120328E1,-5.002567291E0,-8.674885750E0,-8.243511200E0
2.591120328E1,-4.706123829E0,-5.884210587E0,8.623201847E-1
2.596120328E1,1.176272750E0,3.783721924E-1,-7.220858574E0
2.601120328E1,2.988487005E0,3.858838558E0,-5.469344139E0
2.606120328E1,4.464462280E0,4.645068169E0,-1.286085844E0
2.611120328E1,1.129386544E0,6.664599895E0,-8.677970886E0
2.616120328E1,2.493648529E-1,6.554118633E0,-7.943968773E-1
2.621120328E1,-1.067391109E1,-1.749087906E1,1.485748577E1
2.626120328E1,-2.571494579E-1,4.145848274E0,3.612040043E0
2.631120328E1,-4.213291645E0,-1.140784550E1,-1.265147781E1
2.636120328E1,-4.308093786E-1,6.340750694E0,-1.031854630E1
2.641120328E1,2.643511057E0,-4.459207535E0,-8.675266266E0
2.646120328E1,7.058299541E0,-2.440540314E0,1.921916604E0
2.651120328E1,1.915519953E0,3.253002644E0,6.641086340E-1
2.656120328E1,-2.535310745E0,2.438643456E0,1.471662760E0
2.661120328E1,-1.475520730E0,5.075311661E-1,-5.118403435E-1
2.666120328E1,2.373924732E0,-4.062948227E-1,4.436551094E0
2.671120328E1,7.239583969E0,-2.603013992E0,6.147783279E0
2.676120328E1,2.204309940E0,-5.160078049E0,5.215567589E0
2.681120328E1,2.198391914E0,-3.808005333E0,5.814517975E0
2.686120328E1,-3.654079676E0,-7.493367195E0,-5.458835602E0
2.691120328E1,-5.796430588E0,-8.117411613E0,-2.918334007E-1
2.696120328E1,-1.162590504E0,-2.717728615E0,-4.214188099E0
2.701120328E1,-4.132324457E-2,2.880411148E0,-5.436912537E0
2.706120328E1,4.399742126E0,4.846993923E0,-7.805697918E0
2.711120328E1,1.515058756E0,6.295397758E0,-7.805130959E0
2.716120328E1,8.771982193E-1,6.994904518E0,-6.553876877E0
2.721120328E1,-4.172921658E0,-8.788642883E-1,7.897683144E0
2.726120328E1,-1.272467852E0,-7.593647957E0,6.400241375E0
2.731120328E1,-3.649471760E0,-3.638873100E0,4.677591324E0
2.736120328E1,-9.027268887E-1,3.132802010E0,-1.565859604E1
2.741120328E1,2.003900290E0,-2.096158028E0,-1.261982727E1
2.746120328E1,4.262120724E0,-4.771765709E0,3.900440454E0
2.751120328E1,3.752842426E0,7.890424728E-1,-6.652865410E-1
2.756120328E1,-2.059440374E0,3.421959877E0,7.347733378E-1
2.761120328E1,-1.156269431E0,2.202988625E0,1.197186232E0
2.766120328E1,-3.479164839E-2,-1.946468353E-1,-1.308762431E0
2.771120328E1,2.192710400E0,-2.413650513E0,4.792845726E0
2.776120328E1,8.009141922E0,-3.360033035E0,5.779899597E0
2.781120328E1,1.819891930E0,-6.158541679E0,8.820989609E0
2.786120328E1,2.540550709E0,-6.770008087E0,2.459932327E0
2.791120328E1,-4.469308376E0,-9.309082031E0,-9.187870026E0
2.796120328E1,-3.470628738E0,-5.949207306E0,6.430029869E-1
2.801120328E1,7.512540817E-1,1.332902908E-1,-6.056613922E0
2.806120328E1,3.087055683E0,4.201242447E0,-6.143417358E0
2.811120328E1,3.737308025E0,5.156256676E0,-4.929295063E0
2.816120328E1,8.374575973E-1,8.100730896E0,-8.350187302E0
2.821120328E1,7.748627663E-2,5.831421852E0,-2.873260498E0
2.826120328E1,-1.078835773E1,-2.054926682E1,1.004145813E1
2.831120328E1,-1.848961115E-1,4.163299084E0,4.327746868E0
2.836120328E1,-1.122917771E0,-9.544620514E-1,-1.044435310E1
2.841120328E1,-3.957631350E0,-4.733852386E0,-9.014844894E0
2.846120328E1,2.477531433E0,2.067542076E0,-1.080950260E1
2.851120328E1,2.200319290E0,-5.314481735E0,1.470864415E0
2.856120328E1,3.924633503E0,1.017077446E0,-1.354541779E0
2.861120328E1,-1.938726425E0,2.682953358E0,2.102493763E0
2.866120328E1,-2.531457424E0,1.322729111E0,-3.582197428E-1
2.871120328E1,1.188464642E0,8.970241547E-1,3.460899115E0
2.876120328E1,7.532668114E0,-3.627064705E0,8.230764389E0
2.881120328E1,4.261742592E0,-4.848169327E0,5.130864143E0
2.886120328E1,-6.720830202E-1,-5.637507439E0,7.968278408E0
2.891120328E1,-2.543942928E0,-8.955316544E0,-5.793787003E0
2.896120328E1,-4.995274544E0,-7.526268959E0,1.616770625E0
2.901120328E1,-1.136958003E0,-2.309398651E0,-4.832291603E0
2.906120328E1,-4.501405358E-1,3.301321030E0,-5.485522270E0
2.911120328E1,5.143561363E0,5.447932243E0,-7.619981766E0
2.916120328E1,1.520067215E0,7.651787758E0,-7.627729416E0
2.921120328E1,8.776973486E-1,7.572641373E0,-6.275661945E0
2.926120328E1,-6.412764072E0,-4.695503235E0,8.674896240E0
2.931120328E1,4.536774158E-1,-4.564135551E0,4.351845741E0
2.936120328E1,2.744972706E-1,9.047631264E0,-2.805826664E0
2.941120328E1,-6.942127228E0,-1.468541718E1,-9.363199234E0
2.946120328E1,3.092895031E0,4.169367790E0,-7.307080269E0
2.951120328E1,2.235560894E0,-3.166866302E0,-3.745119572E0
2.956120328E1,5.176342010E0,-5.073747635E-1,-8.476871252E-1
2.961120328E1,-3.040278554E-1,2.769318104E0,1.375072241E0
2.966120328E1,-2.904391289E0,1.848913193E0,2.301753998E0
2.971120328E1,-3.497793078E-1,4.328203201E-1,7.067784071E-1
2.976120328E1,4.158190727E0,-1.990543365E0,4.715494156E0
2.981120328E1,7.267352104E0,-3.401894569E0,6.674878120E0
2.986120328E1,-4.345599413E-1,-3.518113136E0,8.467615128E0
2.991120328E1,1.688687086E0,-6.895871162E0,3.893400192E0
2.996120328E1,-1.436568975E0,-9.634445190E0,-1.045580482E1
3.001120328E1,-2.896217823E0,-5.667954445E0,7.641240358E-1
3.006120328E1,-2.543506622E-1,-5.566558838E-1,-6.608518124E0
3.011120328E1,1.203762174E0,2.472024441E0,-6.512156963E0
3.016120328E1,4.206779957E0,5.326532841E0,-7.381461620E0
3.021120328E1,3.667721748E-1,9.225049019E0,-8.295789719E0
3.026120328E1,-1.086019039E0,6.623896122E0,2.293490410E0
3.031120328E1,-7.908465385E0,-2.237635422E1,1.383930111E1
3.036120328E1,1.449148059E0,5.121214390E0,3.605027199E0
3.041120328E1,-3.749829769E0,-8.880119324E0,-1.373042393E1
3.046120328E1,-2.324885845E0,2.996889114E0,-3.415409088E0
3.051120328E1,1.398945451E0,-3.527747154E0,-5.954261303E0
3.056120328E1,6.405146122E0,-2.414930344E0,7.343637943E-2
3.061120328E1,8.194350600E-1,3.849141121E0,1.347956896E0
3.066120328E1,-2.306379557E0,2.070725918E0,2.562384367E0
3.071120328E1,-1.062905312E0,5.864839554E-1,-2.637023926E-1
3.076120328E1,2.734240532E0,-9.297943115E-2,4.375061989E0
3.081120328E1,6.462091446E0,-2.378207207E0,6.273334503E0
3.086120328E1,2.380434513E0,-5.772814751E0,4.671762943E0
3.091120328E1,2.252124786E0,-5.312210083E0,4.919202805E0
3.096120328E1,-4.211240292E0,-7.236725807E0,-4.944983482E0
3.101120328E1,-5.496307850E0,-6.027340889E0,1.070808530E0
3.106120328E1,2.395427227E-1,-2.445532799E0,-4.586146355E0
3.111120328E1,4.581080675E-1,2.962186813E0,-5.203619957E0
3.116120328E1,5.311339855E0,5.133597374E0,-7.825792313E0
3.121120328E1,1.253641367E0,7.710350990E0,-6.040307045E0
3.126120328E1,5.462045670E-1,6.644613266E0,-5.327995300E0
3.131120328E1,-5.568833351E0,-2.602983475E0,1.049148560E1
3.136120328E1,8.604058027E-1,-2.967802048E0,3.230139256E0
3.141120328E1,-2.320931196E0,3.011037827E0,-9.156556129E-1
3.146120328E1,-3.302614689E0,-6.492724419E0,-1.044064140E1
3.151120328E1,2.002327204E0,8.954114914E-1,-7.783594608E0
3.156120328E1,1.820383906E0,-4.093563080E0,-1.234331131E-1
3.161120328E1,4.857452393E0,-8.600044250E-2,-1.470891476E0
3.166120328E1,-1.150389075E0,2.443607330E0,5.663608313E-1
3.171120328E1,-2.135444164E0,1.845679760E0,2.493500471E0
3.176120328E1,-1.288347840E-1,5.653266907E-1,-6.033140421E-1
3.181120328E1,3.735345364E0,-1.535725594E0,5.258920193E0
3.186120328E1,6.965806007E0,-3.018906593E0,4.299351215E0
3.191120328E1,4.701467752E-1,-4.892794609E0,8.514870644E0
3.196120328E1,1.215416551E0,-6.530495644E0,4.730019569E0
3.201120328E1,-2.084127903E0,-8.456085205E0,-8.827505112E0
3.206120328E1,-4.338926792E0,-6.301277161E0,1.648608565E0
3.211120328E1,-3.962860703E-1,5.072488785E-1,-6.022363186E0
3.216120328E1,2.686220646E0,3.440541267E0,-5.547956467E0
3.221120328E1,5.283990860E0,4.244197845E0,-6.680292130E0
3.226120328E1,9.445060492E-1,7.822115421E0,-8.444641113E0
3.231120328E1,5.724413395E-1,6.046500206E0,-8.724229336E-1
3.236120328E1,-1.221605778E1,-2.118156815E1,1.438534737E1
3.241120328E1,-1.292834759E0,5.491936684E0,3.090257168E0
3.246120328E1,-2.374526024E0,-6.456273079E0,-1.259594727E1
3.251120328E1,7.455723286E-1,2.072452545E0,-5.974999905E0
3.256120328E1,2.842489719E0,-4.056645393E0,-5.599483490E0
3.261120328E1,4.635426521E0,-1.396647453E0,6.264625788E-1
3.266120328E1,-4.351760149E-1,3.638924599E0,6.454454660E-1
3.271120328E1,-2.161849022E0,2.987448215E0,2.248450041E0
3.276120328E1,-2.506803274E-1,5.646429062E-1,-1.031885386E0
3.281120328E1,2.764021158E0,-1.388514519E0,3.310154915E0
3.286120328E1,6.287128925E0,-2.790224075E0,7.584929943E0
3.291120328E1,2.151906490E0,-5.662724495E0,4.159944057E0
3.296120328E1,3.196886063E0,-5.709392548E0,5.254931450E0
3.301120328E1,-3.311176538E0,-7.233472824E0,-5.658343315E0
3.306120328E1,-6.646482468E0,-6.816252708E0,9.908093214E-1
3.311120328E1,3.193883896E-1,-9.137639999E-1,-4.526757240E0
3.316120328E1,1.197653770E0,3.117351055E0,-4.648575783E0
3.321120328E1,5.516852379E0,4.763924599E0,-7.677870274E0
3.326120328E1,1.475198269E0,7.719895363E0,-6.599088669E0
3.331120328E1,1.059172392E0,7.088169098E0,-3.621735811E0
3.336120328E1,-1.040332603E1,-1.357154655E1,1.326451302E1
3.341120328E1,4.788507223E-1,7.728061676E-1,3.307792187E0
3.346120328E1,-4.512064934E0,-7.323169708E0,-9.279098511E0
3.351120328E1,-3.154842854E-1,2.640906334E0,-1.163622093E1
3.356120328E1,3.518224716E0,-2.167109489E0,-1.181030941E1
3.361120328E1,4.830920219E0,-3.171792030E0,1.884416938E0
3.366120328E1,2.526826143E0,2.682845116E0,1.469303071E-1
3.371120328E1,-1.912220240E0,2.749976635E0,1.334636211E0
3.376120328E1,-1.693621397E0,1.579183102E0,2.844930887E-1
3.381120328E1,1.265545130E0,5.143404007E-1,3.370779276E0
3.386120328E1,5.185936928E0,-2.554254532E0,5.923070431E0
3.391120328E1,6.208640099E0,-5.387305260E0,3.512018919E0
3.396120328E1,1.249993205E0,-5.259981155E0,8.240447998E0
3.401120328E1,-2.181347847E0,-6.521379471E0,1.598083615E0
3.406120328E1,-6.123987198E0,-8.098739624E0,-3.811632633E0
3.411120328E1,-1.648455381E0,-4.335946083E0,-2.988395691E0
3.416120328E1,1.341515183E0,1.127707481E0,-6.261266708E0
3.421120328E1,4.104020119E0,4.200478554E0,-7.911087036E0
3.426120328E1,1.955295801E0,6.619111061E0,-6.179265022E0
3.431120328E1,6.203000546E-1,7.529877663E0,-7.553773880E0
3.436120328E1,-2.352062702E0,2.922037125E0,5.742682934E0
3.441120328E1,-4.749303818E0,-1.560038090E1,7.899489880E0
3.446120328E1,-4.032666683E0,-1.589241982E0,3.945015430E0
3.451120328E1,-2.134665966E0,3.766010284E0,-1.635957336E1
3.456120328E1,1.888390303E0,-9.361915588E-1,-1.335424137E1
3.461120328E1,4.304149628E0,-6.120332718E0,2.896775961E0
3.466120328E1,3.436520576E0,2.116504669E0,-3.586943388E0
3.471120328E1,-2.868089914E0,3.806430817E0,1.492691875E0
3.476120328E1,-2.046219826E0,1.862209320E0,2.242908001E0
3.481120328E1,1.318445683E0,1.624951363E0,-1.257178783E-1
3.486120328E1,4.516945362E0,-1.943396568E0,2.791404009E0
3.491120328E1,5.547976017E0,-3.409650803E0,6.085893631E0
3.496120328E1,1.201693773E0,-6.280052185E0,7.586795807E0
3.501120328E1,2.412145853E0,-5.824638367E0,5.003951073E0
3.506120328E1,-4.110625744E0,-1.052057362E1,-6.604559898E0
3.511120328E1,-3.323536873E0,-4.939045906E0,-1.639048219E0
3.516120328E1,7.571197748E-1,6.179656982E-1,-5.859069824E0
3.521120328E1,3.175955296E0,4.403947830E0,-5.929866314E0
3.526120328E1,4.511578560E0,5.563653946E0,-5.924243450E0
3.531120328E1,1.339571834E0,7.730493546E0,-8.412546158E0
3.536120328E1,-2.096351862E0,5.479090214E0,1.362844944E0
3.541120328E1,-5.609197617E0,-1.644068527E1,1.021481895E1
3.546120328E1,9.262070656E-1,6.211144447E0,1.532439709E0
3.551120328E1,-7.076501369E0,-1.145194721E1,-5.698206902E0
3.556120328E1,2.750370979E0,1.715326309E0,-1.040682983E1
3.561120328E1,3.444869518E0,-4.033547401E0,-3.075406075E0
3.566120328E1,5.657783031E0,-6.703376770E-3,-4.098473787E-1
3.571120328E1,-9.462698698E-1,4.612408638E0,7.157325745E-1
3.576120328E1,-3.239681721E0,1.788690567E0,1.062277436E0
3.581120328E1,-6.191417575E-1,8.673000336E-1,1.227441311E0
3.586120328E1,4.822478771E0,-3.503627777E0,4.849261284E0
3.591120328E1,8.545383453E0,-3.523714066E0,4.573263168E0
3.596120328E1,-7.499418259E-1,-5.478186607E0,9.979575157E0
3.601120328E1,1.591020584E0,-5.611458778E0,2.354653358E0
3.606120328E1,-4.217048168E0,-9.167890549E0,-6.531369209E0
3.611120328E1,-2.403898716E0,-6.161902428E0,-1.186681986E0
3.616120328E1,7.118050456E-1,6.195745468E-1,-6.000680447E0
3.621120328E1,2.981515408E0,4.335558414E0,-5.514512062E0
3.626120328E1,4.095462799E0,4.791838646E0,-7.193562508E0
3.631120328E1,9.063193202E-1,7.042851448E0,-8.520185471E0
3.636120328E1,1.503741741E-2,6.218196869E0,1.004659653E0
3.641120328E1,-8.430166245E0,-1.755328941E1,1.377934456E1
3.646120328E1,1.580220461E-1,5.097742081E0,2.809978962E0
3.651120328E1,-8.395387650E0,-1.336748695E1,-1.052220345E1
3.656120328E1,3.732708931E0,5.141975403E0,-9.898189545E0
3.661120328E1,7.675864697E-1,-3.020265579E0,-6.173434258E0
3.666120328E1,5.068725109E0,-1.685287476E0,3.286690712E-1
3.671120328E1,1.246284485E0,4.070835114E0,1.005879402E0
3.676120328E1,-2.030762911E0,2.705844879E0,1.076280236E0
3.681120328E1,-1.402379870E0,7.718439102E-1,1.635866165E-1
3.686120328E1,3.602822781E0,-9.063005447E-1,4.636649132E0
3.691120328E1,7.580749989E0,-2.820846558E0,5.711861610E0
3.696120328E1,1.448931932E0,-4.688174248E0,6.144172668E0
3.701120328E1,2.355564237E-1,-5.616843224E0,5.628235817E0
3.706120328E1,-3.291815281E0,-1.039756107E1,-8.359579086E0
3.711120328E1,-5.452949524E0,-7.550543785E0,1.059107304E0
3.716120328E1,-1.461498857E0,-1.314996719E0,-3.167699099E0
3.721120328E1,2.708231211E0,4.760071754E0,-5.461402416E0
3.726120328E1,5.018450737E0,5.786890984E0,-7.090992451E0
3.731120328E1,1.031514049E0,7.774383545E0,-8.089178085E0
3.736120328E1,-2.681106329E-1,6.902241707E0,-3.438984394E0
3.741120328E1,-1.042718887E1,-1.328220272E1,1.302194214E1
3.746120328E1,-4.218525887E-1,-2.879981995E-1,2.976163864E0
3.751120328E1,-3.242498159E0,-1.194640446E1,-6.601963520E0
3.756120328E1,-1.562851667E0,5.588210583E0,-1.039408112E1
3.761120328E1,3.563164234E0,-2.814961433E0,-1.474542141E1
3.766120328E1,4.679502010E0,-5.094882011E0,3.785290003E0
3.771120328E1,2.996893883E0,1.583576202E0,-6.303474307E-2
3.776120328E1,-1.167306781E0,2.686617374E0,1.135259867E0
3.781120328E1,-1.020289540E0,1.811091900E0,1.463965654E0
3.786120328E1,1.115223885E0,1.792382717E0,4.103089571E-1
3.791120328E1,2.713670254E0,-3.407046318E0,5.641930103E0
3.796120328E1,6.195526600E0,-2.183354378E0,4.104294777E0
3.801120328E1,9.555767775E-1,-4.973888397E0,7.250941753E0
3.806120328E1,1.037371159E-2,-4.680109978E0,6.499461174E0
3.811120328E1,-2.410625935E0,-1.098328209E1,-9.864605904E0
3.816120328E1,-5.813493252E0,-5.118151665E0,2.968161106E-1
3.821120328E1,-1.615419626E0,-3.689413071E-1,-3.595474243E0
3.826120328E1,4.124033928E0,3.685794830E0,-5.081489563E0
3.831120328E1,4.557607651E0,4.734988213E0,-7.718098640E0
3.836120328E1,1.342754841E0,9.238035202E0,-7.996388435E0
3.841120328E1,2.374590397E0,7.175720692E0,2.373205185E0
3.846120328E1,-9.607588768E0,-2.081800079E1,1.095729828E1
3.851120328E1,-7.775264740E0,-2.939640999E0,1.188415527E0
3.856120328E1,-1.927445531E0,3.779644966E0,-1.424411583E1
3.861120328E1,1.175790310E0,-3.708333015E0,-1.334041977E1
3.866120328E1,3.686502457E0,-7.356852531E0,2.459769249E0
3.871120328E1,4.633523941E0,1.947836876E0,-4.901394546E-1
3.876120328E1,-2.675545931E0,3.790380955E0,1.160989523E0
3.881120328E1,-3.077266693E0,1.987193108E0,2.139329672E0
3.886120328E1,1.214595318E0,4.712591171E-1,-2.329308987E-1
3.891120328E1,4.536006927E0,-2.552151680E0,4.877826691E0
3.896120328E1,7.521866798E0,-3.555103302E0,5.908594131E0
3.901120328E1,9.869483709E-1,-5.343052864E0,7.560680389E0
3.906120328E1,8.378057480E-1,-6.410445213E0,4.357031822E0
3.911120328E1,-3.062179565E0,-9.148468971E0,-7.792825222E0
3.916120328E1,-3.944231272E0,-5.193927765E0,-4.445962906E-1
3.921120328E1,-7.234843969E-1,3.629922867E-1,-5.178073883E0
3.926120328E1,2.080124855E0,4.435092449E0,-5.920814514E0
3.931120328E1,4.607872009E0,5.717620850E0,-7.289595127E0
3.936120328E1,1.305669427E0,8.221061707E0,-7.704814434E0
3.941120328E1,9.503388405E-1,6.031468868E0,8.127260208E-2
3.946120328E1,-8.667681694E0,-2.226526642E1,1.292920780E1
3.951120328E1,-5.785380602E-1,5.622324944E0,3.788747787E-1
3.956120328E1,-2.478536844E0,-9.137839317E0,-3.475670815E0
3.961120328E1,-2.090967894E0,4.175768852E0,-1.095081329E1
3.966120328E1,6.867990494E-1,-1.332386971E0,-1.234533596E1
3.971120328E1,7.016062737E0,-4.261260986E0,2.722818851E0
3.976120328E1,4.055653572E0,3.450192451E0,2.492956400E0
3.981120328E1,-2.253111362E0,2.338735104E0,1.907684445E0
3.986120328E1,-3.333065748E0,4.791355133E-1,1.455712318E0
3.991120328E1,1.243995428E0,3.294095993E-1,3.877596140E0
3.996120328E1,7.084208965E0,-2.547662735E0,5.532001019E0
4.001120328E1,4.280155659E0,-5.442441940E0,4.408533573E0
4.006120328E1,2.051983833E0,-4.925723076E0,5.727328300E0
4.011120328E1,-4.874844551E0,-8.057682991E0,-1.918296814E0
4.016120328E1,-6.431439400E0,-7.371075630E0,-3.411945105E-1
4.021120328E1,-8.376015425E-1,-2.122179985E0,-3.019540787E0
4.026120328E1,8.304345608E-1,3.323040009E0,-6.639369965E0
4.031120328E1,3.861493587E0,5.422584057E0,-5.657012939E0
4.036120328E1,1.671460748E0,5.760362625E0,-5.909727573E0
4.041120328E1,1.075712204E0,6.743219376E0,-5.486197472E0
4.046120328E1,-4.408138275E0,3.217926025E-1,6.845259190E0
4.051120328E1,-4.654174805E0,-6.901668549E0,5.685874939E0
4.056120328E1,2.774073601E0,-7.253931522E0,-6.532237053E0
4.061120328E1,-3.162248611E0,8.314217567E0,-1.003328323E1
4.066120328E1,3.449727058E0,-6.347704887E0,-1.132914925E1
4.071120328E1,7.539155006E0,-3.809766769E0,1.542527437E0
4.076120328E1,4.052485466E0,2.627869606E0,5.238297582E-1
4.081120328E1,-1.235408306E0,3.244123459E0,5.177519321E-1
4.086120328E1,-3.132574797E0,9.115791321E-1,1.572698832E0
4.091120328E1,-1.769496202E0,4.196643829E-1,1.094228029E0
4.096120328E1,4.525933266E0,-3.399167061E0,6.545729637E0
4.101120328E1,8.869461060E0,-5.695235252E0,4.851790905E0
4.106120328E1,3.623880863E0,-2.535575867E0,8.158224106E0
4.111120328E1,1.431348324E-1,-9.508028984E0,-1.402306795E0
4.116120328E1,-8.841173172E0,-1.162958527E1,-3.040757179E0
4.121120328E1,-5.006435871E0,-3.732569695E0,-2.163802385E0
4.126120328E1,2.545229435E0,4.183923721E0,-7.710452557E0
4.131120328E1,5.338275909E0,2.905623436E0,-7.360350609E0
4.136120328E1,1.774522424E0,5.707091331E0,-9.014466286E0
4.141120328E1,9.130618572E-1,6.953842640E0,-6.852760792E0
4.146120328E1,-6.002174377E0,-9.073867798E-1,1.032076550E1
4.151120328E1,-1.767582893E-1,-7.570631504E0,4.903509617E0
4.156120328E1,-2.010445833E0,1.434360504E0,2.129476547E0
4.161120328E1,-5.351269722E0,-6.739929676E0,-2.088808537E0
4.166120328E1,1.812170029E0,-2.068152428E0,-1.196985531E1
4.171120328E1,3.629835844E0,-3.378800392E0,-3.659571171E0
4.176120328E1,4.643323898E0,-1.573792458E0,1.025255919E0
4.181120328E1,1.766952991E0,3.112965107E0,1.122839749E-1
4.186120328E1,-1.227863312E0,1.623513222E0,1.008559942E0
4.191120328E1,-2.902894735E0,1.264065742E0,1.767794847E0
4.196120328E1,1.161062241E0,1.660989761E0,2.600784302E0
4.201120328E1,7.664037704E0,-6.317749977E0,6.323246956E0
4.206120328E1,3.884380102E0,-5.356334686E0,5.244142532E0
4.211120328E1,5.828824043E-1,-4.853883743E0,6.728204727E0
4.216120328E1,-1.058211684E0,-8.752773285E0,-6.096428871E0
4.221120328E1,-4.909866333E0,-6.831440926E0,-4.152916670E-1
4.226120328E1,-2.866478443E0,-2.185714722E0,-3.994339466E0
4.231120328E1,9.866160154E-2,2.944637299E0,-5.077163219E0
4.236120328E1,5.661947250E0,4.665419102E0,-7.945540428E0
4.241120328E1,1.709597468E0,8.232725143E0,-7.059010506E0
4.246120328E1,1.158138514E0,7.845922947E0,-5.141533852E0
4.251120328E1,-1.049669743E1,-9.799489021E0,1.095641899E1
4.256120328E1,2.482096195E0,2.653207779E-1,1.717815876E0
4.261120328E1,-3.483725548E0,-4.899873734E-1,-1.463405132E0
4.266120328E1,-2.444442749E0,-2.456738472E0,-1.171852684E1
4.271120328E1,3.988541603E0,-6.430273056E-1,-1.125714588E1
4.276120328E1,4.437016010E0,-4.904216766E0,2.236608744E0
4.281120328E1,3.828129530E0,1.508984566E0,-4.461585879E-1
4.286120328E1,-1.632397294E0,4.255098343E0,7.850645781E-1
4.291120328E1,-2.840352058E0,1.802615166E0,2.160590172E0
4.296120328E1,-2.455359697E-2,-1.612329483E-1,-3.799726963E-1
4.301120328E1,4.017530441E0,-1.907526016E0,6.601374626E0
4.306120328E1,6.675655842E0,-4.708280563E0,5.356081009E0
4.311120328E1,1.425086141E0,-3.455824852E0,8.238579750E0
4.316120328E1,9.167954922E-1,-5.894089699E0,3.117334127E0
4.321120328E1,-2.705779552E0,-8.289991379E0,-8.339456558E0
4.326120328E1,-3.610057831E0,-6.462867737E0,-3.505296707E-1
4.331120328E1,2.410657704E-1,5.527143478E-1,-5.676981926E0
4.336120328E1,3.114508867E0,3.490354538E0,-6.663559914E0
4.341120328E1,3.878153324E0,5.106908321E0,-6.725607872E0
4.346120328E1,4.928297997E-1,7.793915272E0,-7.878387451E0
4.351120328E1,-2.548425198E-1,4.901582241E0,4.519267082E-1
4.356120328E1,-9.865582466E0,-2.155234718E1,1.219036865E1
4.361120328E1,-2.877452374E-1,5.562241554E0,3.455491066E-1
4.366120328E1,-4.533546448E0,-9.195318222E0,-9.772830963E0
4.371120328E1,1.710557222E0,4.001065254E0,-9.852722168E0
4.376120328E1,1.319195151E0,-2.864389420E0,-6.026903152E0
4.381120328E1,4.802079201E0,-2.269523621E0,5.242401361E-1
4.386120328E1,1.071013212E0,3.511204720E0,1.710291505E0
4.391120328E1,-1.599316597E0,1.823740005E0,1.552439928E0
4.396120328E1,-1.557562828E0,1.373822212E0,-4.686607122E-1
4.401120328E1,1.414461374E0,-5.768938065E-1,4.243655205E0
4.406120328E1,6.578417301E0,-2.703333855E0,4.964521408E0
4.411120328E1,1.311427593E0,-4.879461288E0,3.313829899E0
4.416120328E1,2.428967237E0,-3.364043236E0,6.294841766E0
4.421120328E1,6.851357222E-2,-5.003103256E0,2.120124340E0
4.426120328E1,-4.159062386E0,-6.355136871E0,-5.300073624E0
4.431120328E1,-2.655068636E0,-4.498080254E0,-1.989502788E0
4.436120328E1,6.825540066E-1,1.601300716E0,-5.042536736E0
4.441120328E1,3.781138659E0,3.100682259E0,-6.959397316E0
4.446120328E1,2.226853371E0,4.881229401E0,-6.569248199E0
4.451120328E1,-3.315789700E-1,8.116052628E0,-6.968052864E0
4.456120328E1,-2.410080910E0,1.514055252E0,1.115728855E0
4.461120328E1,-1.610554099E0,-8.646600723E0,8.358843803E0
4.466120328E1,-2.203640461E0,-2.895108223E0,-4.031206131E0
4.471120328E1,-4.510751247E0,-2.253064156E0,-7.012976646E0
4.476120328E1,3.144168556E-1,3.214130878E0,-1.073456383E1
4.481120328E1,3.258971691E0,-5.984397888E0,3.162671328E-1
4.486120328E1,6.314046860E0,7.417535782E-1,-2.340122700E0
4.491120328E1,-1.876203895E0,3.234635830E0,2.884211063E0
4.496120328E1,-3.448719740E0,5.728664398E-1,2.048715591E0
4.501120328E1,4.513475895E-1,1.075990677E0,-7.229424715E-1
4.506120328E1,2.763134956E0,-1.900588036E0,2.747126579E0
4.511120328E1,7.233598709E0,-2.178688049E0,6.830060005E0
4.516120328E1,2.233203888E0,-5.294061661E0,6.661804676E0
4.521120328E1,2.241778851E0,-5.057147980E0,4.705578804E0
4.526120328E1,-3.051198006E0,-1.016116524E1,-6.417285919E0
4.531120328E1,-6.465105534E0,-6.043980598E0,1.455185294E0
4.536120328E1,-1.671172023E0,-1.353785515E0,-3.284197092E0
4.541120328E1,2.840793133E0,2.559107780E0,-5.471461296E0
4.546120328E1,5.592001915E0,5.284704685E0,-7.235903740E0
4.551120328E1,1.003067374E0,7.734371185E0,-8.083288193E0
4.556120328E1,2.276178598E-1,7.701811314E0,-1.128848791E0
4.561120328E1,-1.009332561E1,-1.687500954E1,1.254215050E1
4.566120328E1,-4.392898083E-1,2.892713070E0,2.762053013E0
4.571120328E1,-5.906133652E0,-6.939929008E0,-8.988111496E0
4.576120328E1,1.109376192E0,-3.357601166E-2,-1.073512459E1
4.581120328E1,3.258095741E0,-1.307067871E-1,-1.180850029E1
4.586120328E1,3.063540936E0,-3.481185913E0,7.675260305E-1
4.591120328E1,2.488529682E0,2.143620491E0,6.900197268E-2
4.596120328E1,-1.920403481E0,2.455432892E0,1.688939810E0
4.601120328E1,-1.960447907E0,7.948665619E-1,4.021565914E-1
4.606120328E1,1.857187390E0,1.577178001E0,2.428983450E0
4.611120328E1,5.805739880E0,-3.992246628E0,8.368762970E0
4.616120328E1,3.364277363E0,-6.224522591E0,5.584777832E0
4.621120328E1,8.834382296E-1,-3.923581123E0,6.992953777E0
4.626120328E1,-1.331874609E0,-9.055769920E0,-5.269596100E0
4.631120328E1,-5.895985603E0,-6.906398773E0,1.300938368E0
4.636120328E1,-1.374906063E0,-2.567742348E0,-3.676911354E0
4.641120328E1,9.401344061E-1,3.857593536E0,-3.944076061E0
4.646120328E1,6.926563740E0,5.633982658E0,-7.802508354E0
4.651120328E1,2.240553141E0,7.656355381E0,-7.849031448E0
4.656120328E1,4.207038879E-2,7.189876080E0,-5.413282871E0
4.661120328E1,-1.136677742E1,-1.377658749E1,1.250449371E1
4.666120328E1,6.064705849E-1,-7.240409851E-1,4.066774368E0
4.671120328E1,-1.218709707E0,-9.454746246E-1,-3.628170967E0
4.676120328E1,-3.589272499E0,-8.685741425E-1,-1.263681221E1
4.681120328E1,3.592557669E0,-1.200614929E0,-1.239871025E1
4.686120328E1,4.095770359E0,-3.850321770E0,2.979565144E0
4.691120328E1,4.011430740E0,3.386239052E0,6.735111475E-1
4.696120328E1,-8.598182201E-1,3.333723068E0,1.733861923E0
4.701120328E1,-2.742395401E0,6.308088303E-1,5.381774902E-1
4.706120328E1,1.456100345E0,6.468029022E-1,3.133213282E0
4.711120328E1,5.642888069E0,-3.574892044E0,7.052191734E0
4.716120328E1,5.214316845E0,-5.156613350E0,4.508967876E0
4.721120328E1,1.214194179E0,-3.891872406E0,7.998929501E0
4.726120328E1,-3.005378246E0,-9.358223915E0,-4.696805477E0
4.731120328E1,-5.279535770E0,-6.505218506E0,-2.231879711E0
4.736120328E1,-1.970291257E0,-3.297924995E0,-3.871055126E0
4.741120328E1,1.849298030E-1,3.535931587E0,-4.179217339E0
4.746120328E1,5.636594772E0,5.844332695E0,-8.609778404E0
4.751120328E1,1.987337589E0,7.961191177E0,-7.505303860E0
4.756120328E1,7.904458046E-1,7.226521015E0,-6.417839050E0
4.761120328E1,-6.883746147E0,-5.780537605E0,1.090974808E1
4.766120328E1,1.226314068E0,-9.091930389E-1,4.280622005E0
4.771120328E1,-2.508307934E0,3.040291786E0,1.726901054E0
4.776120328E1,-1.811478615E0,-6.049118042E0,-1.361853504E1
4.781120328E1,1.165819526E0,4.779872894E-1,-8.537574768E0
4.786120328E1,2.782469749E0,-4.611572266E0,-1.473558903E0
4.791120328E1,6.299324989E0,-1.089922905E0,-2.243230104E0
4.796120328E1,-1.232844949E0,3.571435928E0,3.801255941E0
4.801120328E1,-2.343814373E0,2.602492332E0,1.916825771E0
4.806120328E1,1.286846995E-1,6.704721451E-1,-8.958139420E-1
4.811120328E1,3.255055904E0,-2.854564667E0,7.086022377E0
4.816120328E1,6.260575294E0,-3.990389824E0,5.055741310E0
4.821120328E1,2.158639908E0,-7.581212997E0,7.449472427E0
4.826120328E1,-1.065787554E0,-5.871211052E0,2.653036118E0
4.831120328E1,-4.053901196E0,-7.678015709E0,-6.946025372E0
4.836120328E1,-2.487894058E0,-5.481781006E0,-1.978673100E0
4.841120328E1,5.346524119E-1,1.616541862E0,-6.509492874E0
4.846120328E1,4.432582855E0,4.035833359E0,-7.905416489E0
4.851120328E1,3.741043568E0,6.047231197E0,-8.040231705E0
4.856120328E1,1.398530722E0,7.548348904E0,-7.984919548E0
4.861120328E1,-3.348704338E0,3.416166306E0,1.042301559E1
4.866120328E1,-1.611904740E0,-1.743147850E1,8.729990005E0
4.871120328E1,-7.770209312E-1,1.033410358E1,-1.894902468E0
4.876120328E1,-6.412583351E0,-1.643819809E1,-1.727079010E1
4.881120328E1,6.404571533E-1,4.100272179E0,-5.866629601E0
4.886120328E1,2.750909805E0,-3.456331253E0,-5.804872513E0
4.891120328E1,6.298180580E0,-1.364779472E0,-6.116974950E-1
4.896120328E1,1.327788234E-1,3.624180317E0,1.309788585E0
4.901120328E1,-3.355891705E0,2.342660904E0,1.242729664E0
4.906120328E1,-1.676404715E0,6.387119293E-1,1.280932665E0
4.911120328E1,3.799018860E0,-1.888239861E0,5.687892914E0
4.916120328E1,6.517555237E0,-2.343407631E0,3.516955137E0
4.921120328E1,2.794131279E0,-5.631169319E0,7.893914700E0
4.926120328E1,2.101486206E0,-7.256440163E0,5.396301270E0
4.931120328E1,-2.535830975E0,-8.458830833E0,-8.466426849E0
4.936120328E1,-5.792926311E0,-7.224114418E0,1.449258685E0
4.941120328E1,-5.748475790E-1,-7.958984375E-1,-3.946990967E0
4.946120328E1,3.301851988E0,4.029147148E0,-4.519395828E0
4.951120328E1,5.220390797E0,6.404195786E0,-7.815688133E0
4.956120328E1,2.266718864E0,8.559835434E0,-8.488533974E0
4.961120328E1,3.759644032E-1,6.080603600E0,-1.410331726E0
4.966120328E1,-1.242795372E1,-2.067985916E1,8.355573654E0
4.971120328E1,-4.235501289E0,5.557275772E0,9.336562157E-1
4.976120328E1,-1.797510624E0,-9.539481163E0,-1.192186069E1
4.981120328E1,9.569521546E-1,1.868725777E0,-8.260307312E0
4.986120328E1,4.146057129E0,-5.152262688E0,-1.000130272E1
4.991120328E1,6.106565952E0,-1.773042679E0,2.513993740E0
4.996120328E1,6.843388677E-1,3.788537025E0,3.212468624E-1
5.001120328E1,-2.577420473E0,2.826309204E0,2.807475805E0
5.006120328E1,-1.043297052E0,9.672451019E-1,-1.074708581E0
5.011120328E1,1.698121309E0,-4.166784286E-1,3.199677944E0
5.016120328E1,7.075628281E0,-3.884483337E0,9.143216133E0
5.021120328E1,2.478349924E0,-6.211829185E0,4.305114269E0
5.026120328E1,1.171852946E0,-5.379622459E0,6.823118210E0
5.031120328E1,-3.137163401E0,-7.854536057E0,-7.123420238E0
5.036120328E1,-5.556253910E0,-7.105310440E0,1.493166208E0
5.041120328E1,1.884374619E-1,-2.324548721E0,-5.189612389E0
5.046120328E1,7.680888176E-1,3.441813469E0,-4.601232052E0
5.051120328E1,5.712497711E0,4.800124645E0,-1.621181726E0
5.056120328E1,1.513693571E0,7.896465302E0,-8.097805977E0
5.061120328E1,8.127174377E-1,7.200496197E0,-1.356031418E0
5.066120328E1,-8.062687874E0,-1.997562790E1,1.228463936E1
5.071120328E1,-2.287474155E0,5.560110569E0,1.497564316E0
5.076120328E1,-5.903314590E0,-8.549481392E0,-1.212236691E1
5.081120328E1,-2.454463243E-1,2.002878666E0,-7.334264755E0
5.086120328E1,4.331367493E0,-2.128074646E0,-9.407942772E0
5.091120328E1,5.625123501E0,-3.409859657E0,1.353584290E0
5.096120328E1,1.612763762E0,3.769934177E0,8.862584829E-1
5.101120328E1,-2.697931290E0,2.096560478E0,1.696763039E0
5.106120328E1,-2.245431423E0,7.533168793E-1,-5.937291384E-1
5.111120328E1,1.840335727E0,9.697847366E-1,4.659482002E0
5.116120328E1,8.870582581E0,-4.210033417E0,5.242215157E0
5.121120328E1,3.317040205E-1,-6.033607483E0,5.322651863E0
5.126120328E1,1.792834997E0,-5.328865051E0,7.293215752E0
5.131120328E1,9.660013914E-1,-5.366201401E0,-2.230271339E0
5.136120328E1,-4.985064983E0,-7.341352463E0,-4.336338520E0
5.141120328E1,-3.094546080E0,-3.203302383E0,-3.653814316E0
5.146120328E1,-1.761653543E0,1.659073830E0,-5.056409359E0
5.151120328E1,4.298799515E0,3.849588394E0,-4.756803513E0
5.156120328E1,2.383003235E0,5.957456589E0,-7.190651894E0
5.161120328E1,1.068218946E0,7.624831200E0,-6.142989635E0
5.166120328E1,-3.661497593E0,1.370429993E0,7.049326420E0
5.171120328E1,-2.707421780E0,-6.810221672E0,4.220036507E0
5.176120328E1,-1.796907187E0,-4.565826416E0,-4.290022373E0
5.181120328E1,-2.411656380E0,2.971362114E0,-1.211546326E1
5.186120328E1,4.656072617E0,-1.704473495E0,-1.483695793E1
5.191120328E1,5.154279232E0,-4.491985321E0,4.961934090E0
5.196120328E1,3.772520542E0,9.214792252E-1,5.083628893E-1
5.201120328E1,-1.160265207E0,3.447767258E0,2.975890636E-1
5.206120328E1,-1.343733430E0,1.240096092E0,1.956704497E0
5.211120328E1,-1.169648051E0,1.344700813E0,-2.126443148E0
5.216120328E1,2.117623329E0,-2.103899002E0,5.413167953E0
5.221120328E1,6.958453178E0,-5.703239441E0,4.178091049E0
5.226120328E1,1.665522099E0,-6.114801407E0,7.822039604E0
5.231120328E1,-1.185451984E0,-5.144766808E0,3.072879791E0
5.236120328E1,-4.416138649E0,-8.245493889E0,-6.855005264E0
5.241120328E1,-4.010120869E0,-4.695294380E0,-3.546168566E0
5.246120328E1,-5.847287178E-1,6.878395081E-1,-4.610025883E0
5.251120328E1,4.959587097E0,4.132591248E0,-8.124984741E0
5.256120328E1,2.341291904E0,6.478418350E0,-7.939688206E0
5.261120328E1,4.631948471E-2,7.626128197E0,-6.082399368E0
5.266120328E1,-1.878618836E0,1.445285797E0,7.404997826E0
5.271120328E1,-2.506935358E0,-1.042689037E1,3.836592674E0
5.276120328E1,-1.901264191E0,-6.859865665E0,-3.715063572E0
5.281120328E1,-1.909177303E0,5.404693127E0,-1.350331879E1
5.286120328E1,3.484255075E0,-2.254042625E0,-1.460495853E1
5.291120328E1,5.935722351E0,-4.368511200E0,4.427179337E0
5.296120328E1,3.348488092E0,1.503353119E0,1.372863054E-1
5.301120328E1,-1.183108687E0,3.605535507E0,5.058864355E-1
5.306120328E1,-2.085570097E0,8.715915680E-1,2.702327967E0
5.311120328E1,-3.954543769E-1,1.399274826E0,-2.217765808E0
5.316120328E1,6.190848351E-1,-1.257947922E0,4.721773148E0
5.321120328E1,7.931705475E0,-4.010311127E0,6.917552471E0
5.326120328E1,3.046208620E-1,-6.246499062E0,9.198697090E0
5.331120328E1,3.857088089E0,-6.994919777E0,3.589009047E0
5.336120328E1,-1.812694311E0,-8.974206924E0,-7.570169926E0
5.341120328E1,-2.162582874E0,-5.850323677E0,-3.424800634E-1
5.346120328E1,7.173866034E-2,6.332817078E-1,-5.561485291E0
5.351120328E1,1.368178129E0,4.710588455E0,-5.665104866E0
5.356120328E1,4.938493729E0,5.026548386E0,-8.229627609E0
5.361120328E1,1.671949387E0,7.508203983E0,-7.195202827E0
5.366120328E1,7.335799932E-1,5.939672470E0,-1.437436819E0
5.371120328E1,-9.629348755E0,-2.059126282E1,1.241112518E1
5.376120328E1,-8.293839693E-1,3.526800156E0,3.944097996E0
5.381120328E1,-2.303648472E0,-7.245144844E0,-1.367737770E1
5.386120328E1,-4.562756538E0,2.317346573E0,-6.715270042E0
5.391120328E1,2.444797277E0,-1.322031021E0,-1.284487438E1
5.396120328E1,6.975907326E0,-4.228973389E0,1.921576262E0
5.401120328E1,2.999414444E0,2.822442055E0,-1.082625389E-1
5.406120328E1,-1.687012076E0,3.207686901E0,2.243105888E0
5.411120328E1,-2.462727785E0,5.035266876E-1,1.531105161E0
5.416120328E1,5.815140605E-1,9.092397690E-1,1.026210427E0
5.421120328E1,5.492838860E0,-4.310611725E0,7.502120018E0
5.426120328E1,4.626885414E0,-6.384529114E0,6.047972202E0
5.431120328E1,3.326786995E0,-5.945260048E0,5.134153366E0
5.436120328E1,-2.821581364E0,-5.408043861E0,2.044154167E0
5.441120328E1,-4.670396328E0,-8.618563652E0,-3.565244198E0
5.446120328E1,-1.810202718E0,-2.523288727E0,-3.181213617E0
5.451120328E1,1.727286220E0,2.904042721E0,-5.473943710E0
5.456120328E1,4.487153053E0,5.265495777E0,-1.030911255E1
5.461120328E1,1.871607780E0,6.235767841E0,-8.358260155E0
5.466120328E1,-1.092789173E-1,5.997547150E0,-6.804916859E0
5.471120328E1,-5.338035583E0,-1.303568840E0,5.421488285E0
5.476120328E1,-2.264623165E0,-7.419642448E0,6.762495518E0
5.481120328E1,-1.143719196E0,1.653649330E0,7.390065193E-1
5.486120328E1,-4.515170574E0,-5.292373657E0,-1.366642570E1
5.491120328E1,5.628284216E-1,-1.311224937E0,-9.123883247E0
5.496120328E1,4.489333153E0,-5.216453552E0,-2.375821829E0
5.501120328E1,6.329804897E0,1.048831940E-1,-8.849289417E-1
5.506120328E1,-2.717780113E0,3.250123978E0,1.593117833E0
5.511120328E1,-3.662777662E0,3.046627045E0,2.571572781E0
5.516120328E1,1.880880892E-1,3.674417496E0,-1.820414543E0
5.521120328E1,2.470176458E0,-4.701385498E0,3.314863920E0
5.526120328E1,9.148875237E0,-5.237158775E0,7.362730026E0
5.531120328E1,2.003553391E0,-7.084653854E0,1.019117832E1
5.536120328E1,1.365335703E0,-4.674192429E0,2.079749346E0
5.541120328E1,-4.811500549E0,-1.184818840E1,-8.211803436E0
5.546120328E1,-4.530773640E0,-3.428666115E0,-1.720762610E0
5.551120328E1,-2.259339392E-1,1.123304367E0,-5.481306076E0
5.556120328E1,5.072314739E0,4.056149006E0,-6.871628761E0
5.561120328E1,2.681691170E0,4.836461067E0,-7.650261402E0
5.566120328E1,1.320863724E0,6.583827019E0,-7.979706764E0
5.571120328E1,-7.806056738E-1,5.141276360E0,2.783932209E0
5.576120328E1,-7.301863670E0,-1.365704918E1,9.265831947E0
5.581120328E1,7.591646910E-1,4.405556202E0,7.799572945E-1
5.586120328E1,-4.445708275E0,-5.736092567E0,-4.346749306E0
5.591120328E1,1.572704434E0,-1.234225273E0,-1.072069168E1
5.596120328E1,2.021467686E0,-3.243452072E0,-6.718882084E0
5.601120328E1,4.362602711E0,-2.336587906E0,-2.360967398E-1
5.606120328E1,1.765542626E0,3.206646919E0,2.443473339E0
5.611120328E1,-2.693325758E0,1.789853096E0,1.931185365E0
5.616120328E1,-2.196321487E0,2.481108665E0,7.124016881E-1
5.621120328E1,3.871510983E0,-2.367110252E0,3.170577526E0
5.626120328E1,8.126935959E0,-3.392302513E0,6.691059113E0
5.631120328E1,-2.889152169E-1,-6.602532387E0,8.900423050E0
5.636120328E1,1.280478120E0,-6.508748055E0,4.350139618E0
5.641120328E1,-1.271156192E0,-1.011182404E1,-7.825476170E0
5.646120328E1,-3.673804998E0,-5.325276375E0,9.062576294E-2
5.651120328E1,-2.096711636E0,2.676391602E-2,-4.665616989E0
5.656120328E1,2.349291563E0,4.364471436E0,-5.108243465E0
5.661120328E1,7.089908600E0,3.865353107E0,-8.343126297E0
5.666120328E1,1.227245808E0,6.225115776E0,-8.611814499E0
5.671120328E1,-3.862972260E-1,6.230484486E0,-2.553065538E0
5.676120328E1,-1.073181343E1,-1.230642891E1,1.123879051E1
5.681120328E1,3.149472475E-1,1.278392792E0,3.439908028E0
5.686120328E1,-3.890002012E0,-2.940962791E0,-1.247756672E1
5.691120328E1,1.605445147E-1,7.840104103E-1,-1.033550072E1
5.696120328E1,5.144375801E0,-3.197606087E0,-1.008399487E1
5.701120328E1,6.193542004E0,-3.010497093E0,2.020846844E0
5.706120328E1,2.772357464E0,3.336629868E0,-1.588212252E-1
5.711120328E1,-2.126093626E0,3.355279446E0,6.354846358E-1
5.716120328E1,-2.994867086E0,9.104175568E-1,1.400260568E0
5.721120328E1,1.021853924E0,-1.118907928E-1,2.048785686E0
5.726120328E1,7.009241104E0,-4.331355095E0,6.928658485E0
5.731120328E1,4.231959343E0,-6.497225761E0,4.940996170E0
5.736120328E1,2.598937750E0,-4.709905624E0,7.423940659E0
5.741120328E1,-1.226778507E0,-7.488630295E0,-1.790424585E0
5.746120328E1,-5.556650639E0,-7.290827751E0,-3.708628178E0
5.751120328E1,-3.280099392E0,-2.172297478E0,-3.841012478E0
5.756120328E1,1.361351252E0,3.452204704E0,-5.014078617E0
5.761120328E1,5.777677536E0,6.199149132E0,-1.200472260E1
5.766120328E1,1.811229706E0,5.679056644E0,-8.118334770E0
5.771120328E1,1.215658188E-1,6.387859821E0,-4.504998207E0
5.776120328E1,-7.006026745E0,-6.189323425E0,1.016409874E1
5.781120328E1,-9.227888584E-1,-4.158669472E0,3.852654934E0
5.786120328E1,-4.202305794E0,-3.912597656E0,-3.665427208E0
5.791120328E1,-1.825095296E0,1.247174263E0,-1.417776489E1
5.796120328E1,4.666677475E0,-2.281786919E0,-1.380584431E1
5.801120328E1,6.213043213E0,-4.453429222E0,2.735394716E0
5.806120328E1,2.947473049E0,2.039592743E0,-2.116453648E-2
5.811120328E1,-2.288141012E0,4.193199158E0,1.459807634E0
5.816120328E1,-3.042691469E0,1.378074646E0,1.159532905E0
5.821120328E1,-5.367065668E-1,3.323259354E-1,2.157449722E-3
5.826120328E1,3.463946819E0,-2.074587822E0,5.315388680E0
5.831120328E1,9.162889481E0,-5.752427101E0,4.351206303E0
5.836120328E1,-7.836944461E-1,-5.238111496E0,1.078526211E1
5.841120328E1,-6.827628016E-1,-5.666350365E0,1.954085350E0
5.846120328E1,-5.153065205E0,-9.432689667E0,-5.966669083E0
5.851120328E1,-2.903927326E0,-4.218015671E0,-2.646173954E0
5.856120328E1,-1.040298223E0,1.695166111E0,-6.196075439E0
5.861120328E1,5.653483868E0,4.291579723E0,-8.545310974E0
5.866120328E1,2.195619106E0,5.517310143E0,-7.749342442E0
5.871120328E1,1.485038400E0,7.200895309E0,-6.782206535E0
5.876120328E1,-3.523140192E0,8.358960152E-1,8.812984467E0
5.881120328E1,-1.575244665E0,-9.496152878E0,5.606475353E0
5.886120328E1,-3.382447243E0,-4.817066193E-1,4.446866035E0
5.891120328E1,-3.192112923E0,-2.141876221E-1,-1.567809296E1
5.896120328E1,8.468272686E-1,-1.507081032E0,-1.078331184E1
5.901120328E1,5.832765102E0,-6.112513542E0,-3.672313690E-2
5.906120328E1,4.369923592E0,1.606993675E0,8.770148754E-1
5.911120328E1,-2.771529675E0,3.573863029E0,1.199433088E0
5.916120328E1,-3.229339600E0,1.378241539E0,8.204109073E-1
5.921120328E1,2.965341806E-1,8.779249191E-1,9.462614655E-1
5.926120328E1,4.769571781E0,-2.180647850E0,4.468448162E0
5.931120328E1,7.004387856E0,-2.750675201E0,6.024644375E0
5.936120328E1,1.400459647E0,-7.627331734E0,8.181321144E0
5.941120328E1,2.048730850E-3,-6.752800941E0,1.522107959E0
5.946120328E1,-5.151243687E0,-7.475071907E0,-7.465348244E0
5.951120328E1,-4.543654919E0,-5.846513748E0,-3.040877342E0
5.956120328E1,2.100893736E0,-2.360906601E-1,-4.866066933E0
5.961120328E1,3.816310406E0,3.891571045E0,-6.142718315E0
5.966120328E1,2.832543135E0,6.016944885E0,-6.946054935E0
5.971120328E1,1.144429207E0,7.316605568E0,-7.303696632E0
5.976120328E1,7.769648433E-1,4.108414173E0,1.480730057E0
5.981120328E1,-6.737416744E0,-2.084500122E1,8.778545380E0
5.986120328E1,-1.543871045E0,6.463232517E0,-1.866207123E-1
5.991120328E1,-3.253558636E0,-5.751198769E0,-1.035006714E1
5.996120328E1,-7.692809105E-1,3.756580353E-1,-7.404172897E0
6.001120328E1,4.874594212E0,-3.379795074E0,-6.393682480E0
6.006120328E1,4.253552914E0,-1.372797966E0,1.477538466E0
6.011120328E1,5.157577991E-1,3.317515373E0,6.639430523E-1
6.016120328E1,-8.135531545E-1,3.728413582E0,1.854514360E0
6.021120328E1,-1.564710140E0,2.186317444E-1,1.293275356E0
6.026120328E1,5.593841672E-1,1.096099854E0,-1.114862084E0
6.031120328E1,1.598714352E0,-2.062424660E0,7.008995056E0
6.036120328E1,3.851009607E0,-4.710725784E0,3.712826490E0
6.041120328E1,4.014283180E0,-5.716910362E0,6.843154907E0
6.046120328E1,-1.653945923E0,-4.920879364E0,4.131672859E0
6.051120328E1,-3.904166698E0,-6.576330185E0,-7.836918354E0
6.056120328E1,-9.876296520E-1,-3.884808540E0,7.770558596E-1
6.061120328E1,-1.267649293E0,2.891373634E0,-5.520931244E0
6.066120328E1,6.324858665E-1,3.189703465E0,-7.158022404E0
6.071120328E1,-1.465197563E0,4.276302338E0,-5.881620407E0
6.076120328E1,-1.803532124E0,4.404479504E0,-6.104348183E0
6.081120328E1,8.515820503E-1,2.333585739E0,8.630301476E0
6.086120328E1,4.429943562E-1,-6.853496552E0,5.742948532E0
6.091120328E1,-2.038845062E0,4.658679962E-1,1.987329483E0
6.096120328E1,-3.680696964E0,-6.287819862E0,-4.971369267E0
6.101120328E1,-1.988948822E0,-1.063057899E0,-7.683176517E0
6.106120328E1,4.492721081E0,-1.972722054E0,-6.387320518E0
6.111120328E1,3.676862240E0,-7.168483734E-2,2.968656063E0
6.116120328E1,-1.456257343E0,3.186608791E0,-1.869757652E0
6.121120328E1,-3.160518408E0,2.597599030E0,3.087217093E0
6.126120328E1,2.562463284E-2,-1.028728485E-2,-3.489676714E-1
6.131120328E1,1.789372206E0,6.205663681E-1,3.324088335E0
6.136120328E1,6.685917854E0,-2.753970146E0,5.271701336E0
6.141120328E1,4.330850601E0,-5.363375664E0,5.533838272E0
6.146120328E1,4.530862808E0,-5.763828278E0,6.285024643E0
6.151120328E1,-8.340200782E-1,-8.501793861E0,-7.020855904E0
6.156120328E1,-3.465099335E0,-7.216574669E0,1.150001168E0
6.161120328E1,-5.728119016E-1,-2.339044571E0,-4.316756248E0
6.166120328E1,-8.087766171E-2,3.837670803E0,-4.518461227E0
6.171120328E1,2.460496902E0,4.904918671E0,-7.038889885E0
6.176120328E1,-5.568232536E-1,6.427546978E0,-8.012668610E0
6.181120328E1,-1.443547845E0,5.928413868E0,-5.207219124E0
6.186120328E1,-5.603849888E0,-5.790564537E0,7.698436737E0
6.191120328E1,6.414725780E-1,-2.762460709E-1,4.110454559E0
6.196120328E1,-3.051676273E0,-2.149581909E-2,-6.379606247E0
6.201120328E1,-2.514763832E0,-5.600363731E0,-6.503698826E0
6.206120328E1,2.625706434E0,1.440727234E0,-1.178084660E1
6.211120328E1,2.490944862E0,-2.638036728E0,8.932480812E-1
6.216120328E1,5.083658218E0,3.237228394E-1,-7.390308380E-1
6.221120328E1,-1.202580810E0,3.269677162E0,1.626790524E0
6.226120328E1,-3.098264694E0,1.820837975E0,2.053123951E0
6.231120328E1,-5.175689459E-1,1.112106323E0,-1.231843233E-1
6.236120328E1,3.566952705E0,-2.764918327E0,4.680932045E0
6.241120328E1,6.638996124E0,-3.139513969E0,4.439766407E0
6.246120328E1,3.503645897E0,-5.636307716E0,8.962038994E0
6.251120328E1,2.128865242E0,-6.064935684E0,3.973445892E0
6.256120328E1,-1.341020107E0,-1.022308064E1,-8.928458214E0
6.261120328E1,-2.872125149E0,-6.486427307E0,5.826935768E-1
6.266120328E1,2.826906443E-1,6.912927628E-1,-6.871996880E0
6.271120328E1,2.591055393E0,3.772671700E0,-5.287086487E0
6.276120328E1,3.544763088E0,5.273890972E0,-7.553555489E0
6.281120328E1,3.318200111E-1,7.545183659E0,-9.251147270E0
6.286120328E1,-1.525607228E0,6.211979389E0,-1.552532434E0
6.291120328E1,-6.430282116E0,-1.589592457E1,8.698330879E0
6.296120328E1,-3.538084030E-2,3.518994808E0,3.638971329E0
6.301120328E1,-6.658011436E0,-8.331214905E0,-3.066515684E0
6.306120328E1,9.799101353E-1,4.396403790E0,-1.658584976E1
6.311120328E1,1.616398335E0,-5.251289368E0,-1.293592167E1
6.316120328E1,4.602123737E0,-3.023746490E0,2.531978369E0
6.321120328E1,3.750998020E0,1.393604279E0,2.787312269E-1
6.326120328E1,-2.028532743E0,3.291119099E0,1.241002232E-1
6.331120328E1,-2.127777338E0,1.541629791E0,1.340416193E0
6.336120328E1,-6.255618334E-1,1.298335075E0,-4.526176453E-1
6.341120328E1,3.890558958E0,-1.521446228E0,4.376962662E0
6.346120328E1,7.126047611E0,-4.796069145E0,5.000197887E0
6.351120328E1,3.682650805E0,-5.610639572E0,8.739674568E0
6.356120328E1,-1.702115178E0,-5.264710426E0,5.148136616E0
6.361120328E1,-1.889941335E0,-9.934346199E0,-9.034957886E0
6.366120328E1,-1.672365427E0,-6.146684647E0,8.679509163E-2
6.371120328E1,-1.307665110E0,-8.055191040E-1,-6.186209679E0
6.376120328E1,3.078540802E0,4.612072945E0,-5.302694798E0
6.381120328E1,4.899591923E0,5.356920242E0,-8.057044029E0
6.386120328E1,4.456045628E-1,7.540944576E0,-8.679924011E0
6.391120328E1,-1.525546908E0,4.901621819E0,2.603979111E-1
6.396120328E1,-6.729378223E0,-1.904488754E1,1.018760490E1
6.401120328E1,-1.648099422E0,4.760101795E0,1.575912952E0
6.406120328E1,-2.353861094E0,-5.532545090E0,-6.894645691E0
6.411120328E1,-8.126819134E-1,1.736415863E0,-1.093987846E1
6.416120328E1,3.496129036E0,-1.269739151E0,-1.083169174E1
6.421120328E1,3.314568996E0,-4.544980049E0,1.928437829E0
6.426120328E1,3.642376423E0,1.707825661E0,-5.521764755E-1
6.431120328E1,-1.877268314E0,2.853102684E0,1.285232902E0
6.436120328E1,-1.871972203E0,1.129435539E0,1.289077759E0
6.441120328E1,4.763536751E-1,1.285066605E0,-3.392219543E-3
6.446120328E1,5.384070873E0,-1.826828003E0,6.608203888E0
6.451120328E1,5.885578156E0,-5.868859291E0,3.916507721E0
6.456120328E1,-1.500650644E-1,-4.266700745E0,9.746935844E0
6.461120328E1,-2.001956940E0,-5.905973434E0,1.335978508E0
6.466120328E1,-2.163513422E0,-7.996037483E0,-5.523959637E0
6.471120328E1,6.492027640E-1,-5.336994171E0,-2.668641090E0
6.476120328E1,-5.145147443E-1,8.314580917E-1,-4.979333878E0
6.481120328E1,3.460763216E0,3.861106396E0,-7.604674339E0
6.486120328E1,1.667212963E0,6.223352432E0,-7.785496712E0
6.491120328E1,-2.358484268E-2,7.816177845E0,-7.162835121E0
6.496120328E1,-3.358264208E0,2.541546822E0,3.552018166E0
6.501120328E1,-1.017387986E0,-1.068917274E1,7.837350845E0
6.506120328E1,1.567304969E0,8.023664474E0,8.156046867E-1
6.511120328E1,-4.356762409E0,-1.237519646E1,-1.093503952E1
6.516120328E1,1.181155443E-2,2.947361469E0,-3.748260736E0
6.521120328E1,3.203433514E0,-1.988842964E0,-6.458503246E0
6.526120328E1,5.929379940E0,-3.173759460E0,-8.795276880E-1
6.531120328E1,-2.360220253E-1,3.375027657E0,1.852289319E0
6.536120328E1,-3.235044718E0,1.878513336E0,2.700161219E0
6.541120328E1,-1.720770121E0,1.185983658E0,-1.362576246E0
6.546120328E1,3.967151880E0,-6.834478378E-1,4.771984100E0
6.551120328E1,7.931026936E0,-3.033719063E0,6.522137642E0
6.556120328E1,1.427470922E0,-6.079506874E0,8.017446518E0
6.561120328E1,1.044923514E-1,-7.245666504E0,3.703113079E0
6.566120328E1,-3.461921453E0,-9.559217453E0,-9.423577309E0
6.571120328E1,-2.443478584E0,-7.437326431E0,4.531326294E-1
6.576120328E1,-2.984106541E-4,2.991886139E-1,-6.126533031E0
6.581120328E1,2.425965548E0,5.093914032E0,-6.961103916E0
6.586120328E1,4.737809658E0,6.587588310E0,-9.816701889E0
6.591120328E1,1.521998763E0,7.828704834E0,-8.222053528E0
6.596120328E1,6.070928574E-1,5.305213928E0,2.498059750E0
6.601120328E1,-9.858857155E0,-2.283315659E1,9.325363159E0
6.606120328E1,-1.931349039E0,5.427739143E0,2.146973133E0
6.611120328E1,-3.640689373E0,-7.193151474E0,-1.101733208E1
6.616120328E1,1.838073730E-1,1.576709747E0,-7.924079895E0
6.621120328E1,5.445868492E0,-5.401126862E0,-7.003793716E0
6.626120328E1,4.565882206E0,-1.551165581E0,9.865235090E-1
6.631120328E1,-9.351739287E-2,3.173318386E0,6.465701461E-1
6.636120328E1,-2.126181126E0,2.875890732E0,2.623750210E0
6.641120328E1,2.729589343E-1,8.014001846E-1,-6.495690942E-1
6.646120328E1,1.770991087E0,9.439821243E-1,3.245981932E-1
6.651120328E1,3.296895027E0,-2.112082481E0,7.312742710E0
6.656120328E1,3.169463396E0,-5.512518883E0,4.484789371E0
6.661120328E1,1.556637287E0,-2.994905472E0,8.906392097E0
6.666120328E1,1.151339293E0,-7.008614540E0,-2.861881852E-1
6.671120328E1,-3.445385695E0,-8.664489746E0,-6.791271687E0
6.676120328E1,-1.607979536E0,-5.223207474E0,-2.223996162E0
6.681120328E1,-2.394103706E-1,1.390680313E0,-5.604206562E0
6.686120328E1,3.709715605E0,3.978654385E0,-7.199125290E0
6.691120328E1,2.925303459E0,6.497857571E0,-8.503408432E0
6.696120328E1,2.138973475E-1,7.252926350E0,-6.900857449E0
6.701120328E1,-2.596613646E0,2.269718170E0,7.464929104E0
6.706120328E1,-5.259580612E0,-1.706887054E1,7.206501961E0
6.711120328E1,-2.636555195E0,4.464149475E0,3.046645164E0
6.716120328E1,-1.442114830E0,-6.218842506E0,-1.655426025E1
6.721120328E1,-1.001198888E0,1.570829391E0,-5.221378803E0
6.726120328E1,2.987024307E0,-4.330006599E0,-2.655344963E0
6.731120328E1,5.691253662E0,-9.716224670E-1,-2.280529737E-1
6.736120328E1,-5.073304474E-2,3.235671997E0,1.603129148E0
6.741120328E1,-1.961805224E0,2.141350746E0,2.948738337E0
6.746120328E1,-1.031659722E0,1.044306755E0,-1.755317450E0
6.751120328E1,2.916258335E0,1.339664459E-1,4.522944450E0
6.756120328E1,6.373290539E0,-3.046630859E0,6.672730446E0
6.761120328E1,2.228955507E0,-6.835795403E0,5.761066437E0
6.766120328E1,1.094067931E0,-8.052930832E0,5.020041943E0
6.771120328E1,-5.167660713E0,-7.716909409E0,-8.487856865E0
6.776120328E1,-6.010396481E0,-6.967509270E0,6.873691082E-1
6.781120328E1,2.411334038E0,-7.777462006E-1,-3.605531454E0
6.786120328E1,3.062049389E0,3.820926666E0,-6.805659294E0
6.791120328E1,3.870272398E0,4.387903214E0,-7.652536869E0
6.796120328E1,1.573813796E0,7.589320660E0,-7.636107445E0
6.801120328E1,1.233096838E0,6.484478951E0,-3.485279083E-1
6.806120328E1,-1.040450859E1,-1.807860184E1,1.074608612E1
6.811120328E1,-1.947872519E0,5.071928024E0,2.596673489E0
6.816120328E1,-5.575125217E0,-7.832327843E0,-5.587105751E0
6.821120328E1,1.881361485E0,8.865356445E-2,-9.962577820E0
6.826120328E1,6.364974499E0,-9.058437347E-1,-9.241122246E0
6.831120328E1,4.867018700E0,-3.507527351E0,6.575163603E-1
6.836120328E1,8.847708106E-1,3.132614136E0,1.600824594E0
6.841120328E1,-2.895609379E0,2.682991028E0,2.556405067E0
6.846120328E1,-2.282238722E0,1.365530968E0,-1.904584169E0
6.851120328E1,2.811156034E0,2.336816788E-1,3.659754038E0
6.856120328E1,7.026897430E0,-1.797081947E0,7.037390709E0
6.861120328E1,1.941486120E0,-5.111141205E0,3.970497608E0
6.866120328E1,2.488680363E0,-3.813614845E0,5.699607372E0
6.871120328E1,-2.927163363E0,-7.467080116E0,-3.065769076E-1
6.876120328E1,-5.731645107E0,-8.030470848E0,-6.063736081E-1
6.881120328E1,-5.283354521E-1,-3.347999573E0,-3.130742788E0
6.886120328E1,-3.812389970E-1,3.131415367E0,-5.887547493E0
6.891120328E1,5.189992905E0,5.085968971E0,-8.129520416E0
6.896120328E1,1.636850834E0,6.357125282E0,-6.839463711E0
6.901120328E1,9.961146116E-1,7.425591946E0,-6.231554985E0
6.906120328E1,-7.038417816E0,-5.216838837E0,9.647233963E0
6.911120328E1,1.058755517E0,-3.852567673E0,5.427975178E0
6.916120328E1,-7.756018639E-1,3.773256779E0,2.857692719E0
6.921120328E1,-3.450617075E0,-6.367435455E0,-1.149829865E1
6.926120328E1,1.025971532E0,2.615833282E0,-7.077909470E0
6.931120328E1,3.484984159E0,-5.574487686E0,-1.718187690E0
6.936120328E1,5.176908970E0,4.523754120E-2,-1.598479748E0
6.941120328E1,-3.100857258E0,3.105378151E0,2.632884741E0
6.946120328E1,-3.929741621E0,2.013532639E0,3.400699139E0
6.951120328E1,5.401675701E-1,1.110463142E0,-2.803704262E0
6.956120328E1,4.170324326E0,-6.031665802E-1,4.983523846E0
6.961120328E1,5.527070999E0,-2.128462791E0,5.392558098E0
6.966120328E1,2.089414358E0,-6.121746063E0,7.629059792E0
6.971120328E1,1.781679392E0,-6.067194939E0,5.489978790E0
6.976120328E1,-2.525926590E0,-7.966227531E0,-8.347089767E0
6.981120328E1,-3.323495865E0,-7.123474121E0,2.998650074E-1
6.986120328E1,1.541326523E0,-3.860197067E-1,-4.961237431E0
6.991120328E1,1.689022779E0,4.629333496E0,-5.442589760E0
6.996120328E1,4.709062576E0,6.442794323E0,-7.567875862E0
7.001120328E1,1.339272738E0,7.840951920E0,-7.408499241E0
7.006120328E1,8.056526780E-1,6.045529842E0,-2.413078308E0
7.011120328E1,-1.027761078E1,-2.164889526E1,1.123566151E1
7.016120328E1,-4.888731241E-1,3.946414471E0,1.183345318E0
7.021120328E1,-1.005101323E0,-7.591150284E0,-1.091973543E0
7.026120328E1,-2.237059116E0,3.934641361E0,-1.267816734E1
7.031120328E1,1.902640939E0,-2.753887177E0,-1.398218441E1
7.036120328E1,5.134654999E0,-4.652626038E0,1.492933512E0
7.041120328E1,3.598030090E0,2.667148590E0,6.280422807E-1
7.046120328E1,-2.281169653E0,3.897447586E0,2.383123159E0
7.051120328E1,-2.164215803E0,1.188651085E0,8.690112233E-1
7.056120328E1,1.515367270E0,8.356866837E-1,7.828582525E-1
7.061120328E1,4.367863178E0,-1.747554779E0,6.980722427E0
7.066120328E1,5.517986774E0,-4.943021774E0,3.408721447E0
7.071120328E1,1.326636076E0,-4.409409523E0,9.648689270E0
7.076120328E1,1.306306839E0,-7.063830376E0,3.229525566E0
7.081120328E1,-2.455786705E0,-8.539875031E0,-8.606286049E0
7.086120328E1,-4.055322647E0,-6.434384346E0,-1.372371912E0
7.091120328E1,-4.877758026E-1,5.277853012E-1,-5.017999172E0
7.096120328E1,4.430156708E0,3.510973930E0,-6.503552914E0
7.101120328E1,4.057594776E0,6.277623653E0,-7.455520153E0
7.106120328E1,1.195225954E0,8.065907478E0,-8.345318794E0
7.111120328E1,-6.924283504E-2,4.416666508E0,3.215758801E0
7.116120328E1,-6.476439953E0,-1.532625961E1,8.093575478E0
7.121120328E1,-2.814222813E0,4.113873482E0,3.454028606E0
7.126120328E1,-2.688405514E0,-8.336675644E0,-8.935024261E0
7.131120328E1,9.895609021E-1,3.388598442E0,-1.003119183E1
7.136120328E1,2.581967115E0,-3.450855255E0,-9.568441391E0
7.141120328E1,5.764393330E0,-3.488744736E0,9.760544300E-1
7.146120328E1,1.996241331E0,3.061100960E0,8.794360161E-1
7.151120328E1,-1.884260774E0,2.710200310E0,2.787313938E0
7.156120328E1,-2.166960239E0,1.686343193E0,6.890318990E-1
7.161120328E1,1.965912342E0,6.616916656E-1,3.842163086E0
7.166120328E1,6.117271423E0,-2.059429169E0,6.392755508E0
7.171120328E1,4.774257660E0,-6.322565079E0,3.476420164E0
7.176120328E1,2.257726669E0,-3.921358109E0,6.984931946E0
7.181120328E1,-2.499387980E0,-7.009042740E0,3.886947632E-1
7.186120328E1,-5.634293079E0,-8.441566467E0,-3.088690042E0
7.191120328E1,-2.495270729E0,-3.924159050E0,-3.084656715E0
7.196120328E1,6.532763243E-1,2.844832420E0,-5.596273899E0
7.201120328E1,5.569741726E0,4.606343269E0,-8.690547943E0
7.206120328E1,1.386705756E0,7.433120728E0,-7.502353668E0
7.211120328E1,4.992134571E-1,7.348304272E0,-6.928604126E0
7.216120328E1,-2.089653492E0,3.337755203E-1,1.291679573E1
7.221120328E1,7.499822378E-1,-7.861554146E0,6.261651039E0
7.226120328E1,-4.276077747E0,7.782850266E-1,4.215236664E0
7.231120328E1,-2.466372013E0,-1.246736526E0,-1.525707054E1
7.236120328E1,3.571082830E0,-1.534103394E0,-1.273312759E1
7.241120328E1,3.541365147E0,-6.244256020E0,1.972184896E0
7.246120328E1,4.828423500E0,1.576401711E0,-2.931673527E-1
7.251120328E1,-2.476776361E0,3.908886909E0,1.955861568E0
7.256120328E1,-2.736137867E0,1.840339661E0,1.613642693E0
7.261120328E1,-2.427098155E-2,1.160840988E0,-1.482664347E-1
7.266120328E1,5.707453728E0,-2.760655403E0,5.560828209E0
7.271120328E1,5.399520874E0,-2.340020180E0,4.193053722E0
7.276120328E1,1.170028687E0,-5.003179550E0,6.902359486E0
7.281120328E1,-4.274245203E-1,-6.117370605E0,5.566616058E0
7.286120328E1,-1.111572862E0,-1.011533833E1,-9.541188240E0
7.291120328E1,-3.544790268E0,-7.338967323E0,1.812677383E0
7.296120328E1,6.673839688E-1,-3.241081238E-1,-5.979019642E0
7.301120328E1,2.361579180E0,4.899796009E0,-5.322486877E0
7.306120328E1,5.637847900E0,6.272315025E0,-8.182462692E0
7.311120328E1,2.239410400E0,8.294910431E0,-8.044838905E0
7.316120328E1,4.750592709E-1,6.218144894E0,-3.255944252E-1
7.321120328E1,-1.147831535E1,-2.105084991E1,1.221469307E1
7.326120328E1,3.399837017E-2,5.402067184E0,6.389408112E-1
7.331120328E1,-2.794038534E0,-1.232474041E1,-8.376242638E0
7.336120328E1,-1.666546822E0,4.992598534E0,-1.103350449E1
7.341120328E1,2.595072985E0,-1.648156166E0,-1.210547447E1
7.346120328E1,6.672800064E0,-5.844958305E0,1.710696936E0
7.351120328E1,3.431118011E0,3.667220116E0,1.276877761E0
7.356120328E1,-2.241520882E0,3.148362637E0,2.375002623E0
7.361120328E1,-1.756876469E0,1.253595352E0,-1.421036482E0
7.366120328E1,1.260188222E0,-7.004003525E-1,4.203437805E0
7.371120328E1,5.162836552E0,-2.109479904E0,6.403958321E0
7.376120328E1,5.483741760E0,-6.915292740E0,4.200110912E0
7.381120328E1,2.516813517E0,-5.035089493E0,6.910744667E0
7.386120328E1,-4.916480064E0,-9.521120071E0,-9.169488907E0
7.391120328E1,-7.219664574E0,-6.568676949E0,1.454305649E0
7.396120328E1,-7.836908102E-2,-1.947669029E0,-4.433503151E0
7.401120328E1,3.447320461E0,4.563891888E0,-5.340963840E0
7.406120328E1,5.251571178E0,5.935307026E0,-7.701963425E0
7.411120328E1,1.338437915E0,7.169591427E0,-8.100763321E0
7.416120328E1,-3.241690397E-1,6.209017277E0,-3.474320412E0
7.421120328E1,-1.307631016E1,-1.522476768E1,1.077516365E1
7.426120328E1,2.276625633E-1,-1.571712494E-1,2.992712021E0
7.431120328E1,-1.759970665E0,-2.600577354E0,-2.518728256E0
7.436120328E1,-2.534353733E0,-1.951663017E0,-1.151695824E1
7.441120328E1,2.944712400E0,1.321112633E0,-1.081238270E1
7.446120328E1,4.209652424E0,-5.821949005E0,1.101357460E0
7.451120328E1,5.188177586E0,1.238626480E0,-7.988027334E-1
7.456120328E1,-3.079548359E0,3.201386452E0,2.558098555E0
7.461120328E1,-3.366441250E0,2.442527771E0,1.070563555E0
7.466120328E1,-3.680390120E-1,3.283348083E-1,-6.787407398E-1
7.471120328E1,4.056789398E0,-1.469962120E0,6.142999649E0
7.476120328E1,6.342098236E0,-4.324908257E0,3.705048561E0
7.481120328E1,1.285225391E0,-6.024652481E0,8.496839523E0
7.486120328E1,1.672750711E-1,-6.316870689E0,4.224468231E0
7.491120328E1,-3.077838182E0,-8.165232658E0,-7.184838295E0
7.496120328E1,-3.720656157E0,-6.354314804E0,-1.830792189E0
7.501120328E1,8.405177593E-1,8.188199997E-1,-5.004940987E0
7.506120328E1,4.927660465E0,4.061066628E0,-6.747573376E0
7.511120328E1,3.964515209E0,6.071675301E0,-7.269126415E0
7.516120328E1,1.397820115E0,7.701154232E0,-7.878942013E0
7.521120328E1,-1.031288028E0,4.096328259E0,3.174019814E0
7.526120328E1,-6.639258862E0,-2.010098457E1,9.685849190E0
7.531120328E1,-4.535722733E-2,7.522004128E0,7.818045616E-1
7.536120328E1,-5.112340450E0,-1.366882801E1,-1.173722839E1
7.541120328E1,-1.169266820E0,4.751713276E0,-7.986166000E0
7.546120328E1,4.769883633E0,-1.630854607E0,-9.898859024E0
7.551120328E1,7.130021095E0,-4.115295410E0,3.527641296E-1
7.556120328E1,5.008219481E-1,3.633556843E0,3.146310329E0
7.561120328E1,-2.472231627E0,2.875932217E0,1.115058661E0
7.566120328E1,-2.095277548E0,1.066634178E0,-8.221285343E-1
7.571120328E1,2.195676565E0,1.618017197E0,4.767398834E0
7.576120328E1,6.869126320E0,-2.534425735E0,6.857942581E0
7.581120328E1,2.212327003E0,-6.250546455E0,4.728413105E0
7.586120328E1,1.023202777E0,-5.772115707E0,6.920627594E0
7.591120328E1,-2.209134579E0,-7.956440926E0,-7.265173912E0
7.596120328E1,-6.121085167E0,-8.695528984E0,1.095867872E0
7.601120328E1,1.801755130E-1,-2.515267372E0,-3.856262922E0
7.606120328E1,1.465418577E0,3.997500420E0,-5.345369816E0
7.611120328E1,5.590048790E0,5.998565197E0,-7.781748295E0
7.616120328E1,1.572317839E0,7.816400051E0,-7.007366180E0
7.621120328E1,-7.409679890E-2,7.089631081E0,-5.631569862E0
7.626120328E1,-8.681304932E0,-9.963335037E0,1.181470871E1
7.631120328E1,1.126708984E-1,-2.066987991E0,4.622524261E0
7.636120328E1,-2.948936462E0,-6.447813988E0,8.285109520E0
7.641120328E1,-1.083122253E0,5.841580391E0,-1.738871574E1
7.646120328E1,1.382005930E0,-1.790060043E0,-1.454724407E1
7.651120328E1,3.612502575E0,-6.775063515E0,4.850223541E0
7.656120328E1,5.454436779E0,1.460520744E0,-7.896767855E-1
7.661120328E1,-2.574404001E0,3.118038177E0,2.196684837E0
7.666120328E1,-2.875723600E0,1.303340912E0,2.503522396E0
7.671120328E1,9.807913303E-1,3.105125427E-1,-1.066480637E0
7.676120328E1,3.747357845E0,-8.762159348E-1,5.574975014E0
7.681120328E1,6.123282433E0,-1.485333443E0,5.647113800E0
7.686120328E1,1.292674780E0,-5.260376930E0,8.899280548E0
7.691120328E1,2.132872105E0,-7.191161156E0,3.728233814E0
7.696120328E1,-3.041959047E0,-9.064662933E0,-8.469136238E0
7.701120328E1,-3.455345154E0,-7.524371147E0,-6.492226124E-1
7.706120328E1,-6.388038397E-3,-6.729660034E-1,-5.120937347E0
7.711120328E1,2.664848089E0,4.840105534E0,-5.705390930E0
7.716120328E1,5.518877029E0,6.257776260E0,-7.463807106E0
7.721120328E1,1.580044746E0,8.078138351E0,-8.104141235E0
7.726120328E1,8.910428882E-1,6.693825722E0,-1.944004774E0
7.731120328E1,-1.337717438E1,-2.293285179E1,8.417974472E0
7.736120328E1,-2.743435383E0,2.936906815E0,1.135801315E0
7.741120328E1,-1.707407713E0,-6.717410088E0,-1.561977768E1
7.746120328E1,-1.630135417E0,3.694065094E0,-6.068277359E0
7.751120328E1,5.625753880E0,-6.387590408E0,-9.289082527E0
7.756120328E1,7.396075249E0,-2.326976776E0,1.477333784E0
7.761120328E1,-3.399401009E-1,3.611118793E0,1.949830770E0
7.766120328E1,-2.536877155E0,2.435940742E0,2.673237562E0
7.771120328E1,-1.662317514E0,1.259849548E0,-5.014947653E-1
7.776120328E1,2.805584431E0,6.754446030E-1,4.309690475E0
7.781120328E1,6.617619038E0,-1.990773201E0,7.117790699E0
7.786120328E1,3.024125576E0,-5.781467438E0,6.010813713E0
7.791120328E1,2.061218023E0,-3.694149017E0,7.176795006E0
7.796120328E1,-2.018000782E-1,-8.052371025E0,-6.082009792E0
7.801120328E1,-6.102266788E0,-8.820251465E0,-1.666414976E0
7.806120328E1,-1.376615167E0,-2.901214600E0,-3.950236082E0
7.811120328E1,3.507208824E-1,3.811893463E0,-6.358143806E0
7.816120328E1,5.332994461E0,5.465179443E0,-7.808881760E0
7.821120328E1,1.148709536E0,7.624463081E0,-7.630198956E0
7.826120328E1,8.987242579E-1,7.676772118E0,-6.873864174E0
7.831120328E1,-4.802024841E0,-3.379298210E0,1.013999748E1
7.836120328E1,1.802484512E0,-2.213158607E0,5.746010780E0
7.841120328E1,-4.060943604E0,-2.272879601E0,3.269753456E-1
7.846120328E1,-1.055711150E0,-3.016414642E-1,-1.634041595E1
7.851120328E1,4.025014877E0,-1.173265457E0,-1.321039772E1
7.856120328E1,2.505947590E0,-5.807748795E0,4.150723934E0
7.861120328E1,3.653997898E0,1.827002048E0,-2.053103209E0
7.866120328E1,-2.062548637E0,2.924599648E0,1.395836353E0
7.871120328E1,-2.840862036E0,1.643931389E0,4.990882277E-1
7.876120328E1,1.080910802E0,1.251879692E0,2.268161297E0
7.881120328E1,6.168952942E0,-3.158458710E0,7.161406040E0
7.886120328E1,5.304946899E0,-4.919587135E0,4.742235184E0
7.891120328E1,7.650315762E-1,-3.288033485E0,7.377803802E0
7.896120328E1,-2.319436222E-1,-8.677810669E0,1.121923566E0
7.901120328E1,-4.189263821E0,-7.025292397E0,-5.600408554E0
7.906120328E1,-2.959897280E0,-6.036632538E0,-2.266801119E0
7.911120328E1,-2.956730127E-2,2.177377701E0,-4.805365086E0
7.916120328E1,4.602291107E0,4.234603882E0,-8.136696815E0
7.921120328E1,2.662789822E0,6.216215134E0,-7.374024391E0
7.926120328E1,1.272563696E0,8.146570206E0,-7.554780006E0
7.931120328E1,-2.788688421E0,2.087052345E0,7.714037418E0
7.936120328E1,-2.957906008E0,-1.467286205E1,8.341690063E0
7.941120328E1,-2.392138243E0,9.776535034E-1,2.654252529E0
7.946120328E1,-2.375435829E0,-2.816616058E0,-1.511364555E1
7.951120328E1,2.915995121E0,-1.946058273E-1,-1.211917591E1
7.956120328E1,3.432678461E0,-6.655092239E0,1.205710411E0
7.961120328E1,5.341811180E0,1.080679893E0,-2.714602947E-1
7.966120328E1,-2.477684498E0,2.854161263E0,2.664194107E0
7.971120328E1,-3.417205572E0,1.884792328E0,2.176616430E0
7.976120328E1,8.166593313E-1,2.422170639E-1,-4.609175920E-1
7.981120328E1,4.886743069E0,-1.617140770E0,5.240290165E0
7.986120328E1,5.032795429E0,-2.371600151E0,5.954930782E0
7.991120328E1,2.257259846E0,-5.960636139E0,9.335380554E0
7.996120328E1,1.680625200E0,-7.117607117E0,3.097716808E0
8.001120328E1,-3.056540966E0,-8.453903198E0,-8.099099159E0
8.006120328E1,-1.976675630E0,-7.021979332E0,-7.775886059E-1
8.011120328E1,5.616948605E-1,3.002605438E-1,-6.362258911E0
8.016120328E1,2.056548595E0,4.852744102E0,-6.168801308E0
8.021120328E1,5.641018391E0,6.444780350E0,-7.398680210E0
8.026120328E1,1.876429796E0,8.011192322E0,-7.857054710E0
8.031120328E1,-7.559230328E-1,6.129896641E0,-8.694744110E-2
8.036120328E1,-1.070892239E1,-2.588041306E1,1.234101009E1
8.041120328E1,4.270362854E-2,7.141415596E0,1.417186737E0
8.046120328E1,-3.910341740E0,-1.126138687E1,-1.292635441E1
8.051120328E1,2.028136253E0,1.293459892E0,-6.845993042E0
8.056120328E1,3.582926035E0,-2.409857750E0,-6.684097290E0
8.061120328E1,4.835553169E0,-1.254173279E0,-4.851177931E-1
8.066120328E1,6.251589060E-1,4.148444653E0,1.934136152E0
8.071120328E1,-1.634648561E0,2.485098839E0,1.851877213E0
8.076120328E1,-1.109353542E0,3.121986389E-1,-1.202504158E0
8.081120328E1,2.930820942E0,-9.037046432E-1,5.299729824E0
8.086120328E1,6.709852219E0,-2.619330406E0,8.208162308E0
8.091120328E1,3.956657648E0,-6.321778297E0,7.416863441E0
8.096120328E1,6.478170753E-1,-6.592352867E0,3.903157234E0
8.101120328E1,-2.950873137E0,-9.774102211E0,-9.174686432E0
8.106120328E1,-3.160625219E0,-7.724163055E0,-1.078685760E0
8.111120328E1,3.620451689E-2,-2.349367142E-1,-3.856257915E0
8.116120328E1,2.274651527E0,5.331517696E0,-6.861252785E0
8.121120328E1,4.836174965E0,6.730853081E0,-8.039169312E0
8.126120328E1,1.408251524E0,9.189344406E0,-9.342785835E0
8.131120328E1,-2.425646782E-1,5.377419949E0,3.112347126E0
8.136120328E1,-4.964787960E0,-2.125399780E1,9.675773621E0
8.141120328E1,-3.361235619E0,3.136142254E0,3.074541092E0
8.146120328E1,-3.495910645E0,-5.491749763E0,-1.502375698E1
8.151120328E1,1.826783419E0,2.340351105E0,-8.825214386E0
8.156120328E1,2.109633446E0,-6.531565666E0,-4.371066093E-1
8.161120328E1,6.541272163E0,7.928857803E-1,-7.972166538E-1
8.166120328E1,-1.845475316E0,3.598620415E0,1.485706687E0
8.171120328E1,-2.858230591E0,1.792765617E0,3.033413172E0
8.176120328E1,-9.699127674E-1,2.731885910E-1,-1.204254985E0
8.181120328E1,2.421281576E0,-1.401144028E0,4.523015976E0
8.186120328E1,6.408124924E0,-2.891248703E0,6.164656639E0
8.191120328E1,3.535892963E0,-5.543917656E0,6.924321175E0
8.196120328E1,3.264984369E0,-6.314763069E0,3.585880280E0
8.201120328E1,-3.172891140E0,-8.311971664E0,-8.209159851E0
8.206120328E1,-5.526595592E0,-6.654445648E0,1.658422709E0
8.211120328E1,-1.407363415E-1,-2.651109695E-1,-4.487338543E0
8.216120328E1,2.871099234E0,4.637434006E0,-5.059310913E0
8.221120328E1,4.841814041E0,6.487096310E0,-7.785220146E0
8.226120328E1,1.293199658E0,8.255357742E0,-7.991567135E0
8.231120328E1,1.730190516E-1,6.051711559E0,-3.190323353E0
8.236120328E1,-1.243902969E1,-1.824280167E1,1.037677574E1
8.241120328E1,-2.715904236E0,3.719054699E0,2.803373337E-2
8.246120328E1,-2.544795036E0,-8.004177094E0,-7.746557713E0
8.251120328E1,-1.384801745E0,3.404750824E0,-1.226507759E1
8.256120328E1,6.564997673E0,-4.804647446E0,-1.163011265E1
8.261120328E1,5.832313061E0,-2.230224609E0,2.104389668E0
8.266120328E1,1.091657519E0,2.564919949E0,1.031715035E0
8.271120328E1,-2.187315226E0,2.623290539E0,1.976044416E0
8.276120328E1,-1.500285387E0,1.721144676E0,-1.470080137E0
8.281120328E1,2.238503933E0,-3.870868683E-1,3.685428143E0
8.286120328E1,7.628503799E0,-1.384552956E0,7.086921692E0
8.291120328E1,2.946873665E0,-7.158626556E0,4.753069878E0
8.296120328E1,1.464715719E0,-4.917991638E0,7.002399445E0
8.301120328E1,-2.390361309E0,-5.240921021E0,-1.585672021E0
8.306120328E1,-5.667762756E0,-7.024561882E0,-3.567432165E0
8.311120328E1,-3.060539246E0,-4.140014648E0,-3.432171345E0
8.316120328E1,6.472716928E-1,3.149036407E0,-5.905350208E0
8.321120328E1,4.143059254E0,5.258244514E0,-7.851702690E0
8.326120328E1,3.288583994E0,7.441547871E0,-7.071192741E0
8.331120328E1,8.801693320E-1,7.613115788E0,-7.032222748E0
8.336120328E1,-6.090243340E0,-1.922348022E0,1.589922810E1
8.341120328E1,4.998445511E-4,-9.027871132E0,7.273402691E0
8.346120328E1,-3.600547791E0,-1.266552067E1,-1.458597183E-1
8.351120328E1,2.958350182E-1,8.730718613E0,-1.553178883E1
8.356120328E1,4.735711098E0,-4.984814644E0,-1.578431892E1
8.361120328E1,9.748725891E0,-3.749098778E0,2.480003357E0
8.366120328E1,2.809064865E0,3.719837189E0,3.602279723E-1
8.371120328E1,-3.995141745E0,2.315393448E0,1.628597736E0
8.376120328E1,-3.926953554E0,1.268655777E0,1.826538086E0
8.381120328E1,4.306598663E0,9.008312225E-2,1.138460755E0
8.386120328E1,6.614631176E0,-2.346192360E0,7.996656418E0
8.391120328E1,2.459817171E0,-6.316418648E0,5.216680527E0
8.396120328E1,1.826563358E0,-2.911863327E0,6.952280521E0
8.401120328E1,-1.527748108E-1,-7.556924820E0,-3.941798687E0
8.406120328E1,-5.333294392E0,-7.767187119E0,-1.497503757E0
8.411120328E1,-8.981239796E-1,-3.629392624E0,-2.803285360E0
8.416120328E1,4.580756426E-1,2.550355911E0,-5.621057987E0
8.421120328E1,4.762377262E0,5.102672100E0,-8.151624680E0
8.426120328E1,1.085020423E0,7.468792439E0,-7.808891773E0
8.431120328E1,1.126737595E-1,7.977983952E0,-6.836685181E0
8.436120328E1,-7.411487579E0,-5.958809853E0,1.120867252E1
8.441120328E1,1.000188231E0,-6.284645081E0,6.329675674E0
8.446120328E1,-1.713202596E0,1.355552673E0,-2.393321037E0
8.451120328E1,-2.050887585E0,-7.243242264E-1,-1.161491013E1
8.456120328E1,7.342275977E-1,2.270247459E0,-9.826712608E0
8.461120328E1,3.384073496E0,-5.981232643E0,3.973265886E-1
8.466120328E1,6.860798359E0,1.499691010E0,-1.559713840E0
8.471120328E1,-2.260807514E0,3.379448891E0,2.437658072E0
8.476120328E1,-4.553814888E0,9.107313156E-1,9.926313162E-1
8.481120328E1,8.957769275E-1,8.444042206E-1,9.019120932E-1
8.486120328E1,5.842139721E0,-2.789710045E0,7.729428291E0
8.491120328E1,7.000532150E0,-4.251507759E0,5.140575886E0
8.496120328E1,-5.483477712E-1,-3.610556602E0,1.008551311E1
8.501120328E1,1.205789089E0,-6.583687782E0,1.322653294E0
8.506120328E1,-4.656141281E0,-8.715201378E0,-8.134339333E0
8.511120328E1,-3.923415899E0,-6.227233887E0,-2.462053299E0
8.516120328E1,5.433901548E-1,7.958784103E-1,-5.655319214E0
8.521120328E1,5.565655708E0,3.466984749E0,-7.469472885E0
8.526120328E1,3.417986155E0,6.686722755E0,-7.831833839E0
8.531120328E1,1.732494354E0,8.963746071E0,-8.516163826E0
8.536120328E1,-7.385879755E-1,5.975362778E0,5.556798458E0
8.541120328E1,-6.966221809E0,-1.821049881E1,6.623033524E0
8.546120328E1,-2.624981880E0,4.053761959E0,1.102221966E0
8.551120328E1,-2.207623959E0,-4.328326225E0,-1.210241413E1
8.556120328E1,3.742500305E0,-1.541785240E0,-9.916399002E0
8.561120328E1,3.981875896E0,-4.143890381E0,-5.053262711E-1
8.566120328E1,4.476910591E0,1.340107918E0,-4.398330450E-1
8.571120328E1,-2.659393072E0,2.877911568E0,2.480907679E0
8.576120328E1,-2.598352194E0,2.130329132E0,1.074706078E0
8.581120328E1,4.146848321E-1,6.411037445E-1,5.709909201E-1
8.586120328E1,5.950997353E0,-2.920481682E0,7.564325333E0
8.591120328E1,5.902823448E0,-4.794763565E0,4.682994366E0
8.596120328E1,2.074272037E-1,-4.444632530E0,1.031711102E1
8.601120328E1,1.030180454E0,-6.837068558E0,1.642439842E0
8.606120328E1,-4.026736259E0,-1.011918831E1,-7.197709560E0
8.611120328E1,-2.543387890E0,-6.257615089E0,-2.794818401E0
8.616120328E1,3.157952726E-1,1.125571251E0,-5.694036484E0
8.621120328E1,4.050659657E0,3.934602737E0,-8.354143143E0
8.626120328E1,3.409307003E0,7.130648613E0,-8.282979965E0
8.631120328E1,9.386833906E-1,8.703667641E0,-7.174770355E0
8.636120328E1,-4.689525127E0,9.012689590E-1,6.856750965E0
8.641120328E1,-6.945397854E-1,-1.302364254E1,7.334025383E0
8.646120328E1,-8.804168701E-1,6.904276371E0,-2.071988344E0
8.651120328E1,-4.481605530E0,-1.049388695E1,-1.222597694E1
8.656120328E1,1.612116814E0,4.070622444E0,-6.707587242E0
8.661120328E1,2.888981819E0,-5.195356369E0,-8.781065941E-1
8.666120328E1,5.986520290E0,2.310142517E-1,-2.165877104E0
8.671120328E1,-1.819370031E0,3.709805012E0,3.606537104E0
8.676120328E1,-3.530781507E0,1.809993744E0,5.792976022E-1
8.681120328E1,-5.666956306E-1,-2.176284790E-1,1.120239973E0
8.686120328E1,6.119550228E0,-1.080821037E0,8.214919090E0
8.691120328E1,5.561280251E0,-4.996928215E0,5.075192451E0
8.696120328E1,2.833695173E0,-5.050485611E0,7.460150719E0
8.701120328E1,-1.760849237E0,-6.803125381E0,8.243842125E-1
8.706120328E1,-5.216526031E0,-8.372275352E0,-6.271464825E0
8.711120328E1,-3.474533796E0,-5.593441963E0,-2.934142828E0
8.716120328E1,2.721060514E-1,1.665582657E0,-5.880193710E0
8.721120328E1,4.597547054E0,4.764906883E0,-7.690265179E0
8.726120328E1,3.173457146E0,7.248995304E0,-7.732858658E0
8.731120328E1,1.272588253E0,7.523861885E0,-7.470290184E0
8.736120328E1,-2.848408937E0,1.133558273E0,6.232984066E0
8.741120328E1,-2.980705261E0,-1.378955650E1,8.762132645E0
8.746120328E1,-3.196579456E0,3.620882034E-1,2.649569988E0
8.751120328E1,-2.808474541E0,-1.484301567E0,-1.425941086E1
8.756120328E1,-5.694801807E-1,-3.572463989E-3,-8.719448090E0
8.761120328E1,5.258481026E0,-5.887850761E0,9.666156769E-2
8.766120328E1,5.639579296E0,6.082773209E-1,-8.578926325E-1
8.771120328E1,-1.848439097E0,4.163028240E0,3.467682362E0
8.776120328E1,-3.159349442E0,1.334084511E0,1.844573021E-2
8.781120328E1,-1.150342226E0,6.626129150E-1,2.381610870E-1
8.786120328E1,4.392676353E0,-2.561648369E0,5.987104416E0
8.791120328E1,7.178158760E0,-4.860219955E0,4.557519913E0
8.796120328E1,2.550403178E-1,-5.926935196E0,9.533710480E0
8.801120328E1,1.979029179E0,-7.406132698E0,2.237337828E0
8.806120328E1,-4.529348850E0,-9.288231850E0,-6.319611549E0
8.811120328E1,-5.261526585E0,-4.846220970E0,-3.949907541E0
8.816120328E1,-3.272950053E-1,2.125272751E0,-5.540690899E0
8.821120328E1,6.452465057E0,4.953672409E0,-8.699684143E0
8.826120328E1,3.756846428E0,7.697750092E0,-7.126592636E0
8.831120328E1,1.147569895E0,9.045147896E0,-6.846376419E0
8.836120328E1,-7.015091896E0,-6.445768356E0,1.487890434E1
8.841120328E1,1.984654665E-1,-7.235866547E0,5.040225506E0
8.846120328E1,-4.158072472E0,1.273941994E0,3.988698006E0
8.851120328E1,-2.737545967E-1,-5.101461411E-1,-1.555655193E1
8.856120328E1,2.243233204E0,-9.239616394E-1,-9.993820190E0
8.861120328E1,4.182315350E0,-5.085751534E0,-7.128796577E-1
8.866120328E1,4.832598686E0,1.487895966E0,1.033854961E0
8.871120328E1,-2.209558725E0,3.817142010E0,2.764234066E0
8.876120328E1,-3.542691469E0,1.566115379E0,1.903955698E0
8.881120328E1,-1.253125221E-1,2.987661362E-1,-7.862253189E-1
8.886120328E1,4.673284531E0,-2.786497116E0,8.636301041E0
8.891120328E1,7.633489609E0,-4.875461578E0,5.108275414E0
8.896120328E1,1.021429658E0,-4.612566948E0,8.558428764E0
8.901120328E1,-8.759092689E-1,-8.861989975E0,-3.193468809E0
8.906120328E1,-5.172132969E0,-7.505705833E0,-3.009569168E0
8.911120328E1,-3.621593475E0,-2.975492477E0,-2.617631197E0
8.916120328E1,2.507758439E-1,3.529667377E0,-5.535434723E0
8.921120328E1,5.673076630E0,4.966910839E0,-8.783715248E0
8.926120328E1,1.129049897E0,6.864659786E0,-6.785734177E0
8.931120328E1,6.045840979E-1,8.266921997E0,-5.866338253E0
8.936120328E1,-1.140198612E1,-8.613195419E0,1.408520317E1
8.941120328E1,-3.261053562E-1,-8.085393906E-1,3.631406307E0
8.946120328E1,-3.218307495E0,-3.921207428E0,-1.131131744E1
8.951120328E1,-3.259431601E0,-1.871486664E0,-1.283891869E1
8.956120328E1,5.087061405E0,2.937879562E-1,-1.241677380E1
8.961120328E1,4.953736305E0,-5.713285446E0,3.285181522E-2
8.966120328E1,3.698089838E0,2.657636166E0,2.187264442E0
8.971120328E1,-1.846663833E0,3.240667343E0,2.039079189E0
8.976120328E1,-2.916442394E0,1.338598251E0,-8.616145849E-1
8.981120328E1,1.886101365E0,-1.859340668E-1,3.814146757E0
8.986120328E1,7.620796680E0,-2.403831482E0,7.606359482E0
8.991120328E1,2.451563120E0,-6.614230156E0,3.866719961E0
8.996120328E1,-3.047985137E-1,-4.802644730E0,8.031035423E0
9.001120328E1,-5.542933941E-1,-8.308620453E0,-5.709571838E0
9.006120328E1,-4.541109562E0,-6.826175690E0,-6.869868040E-1
9.011120328E1,-1.404093504E0,-1.988484383E0,-4.044435501E0
9.016120328E1,1.167331934E0,4.168208122E0,-5.383044243E0
9.021120328E1,6.444112778E0,4.963265419E0,-7.882866383E0
9.026120328E1,2.099252701E0,7.476494312E0,-8.047591209E0
9.031120328E1,8.090095520E-1,7.887500286E0,-3.863203049E0
9.036120328E1,-1.391991234E1,-1.434718323E1,1.401099873E1
9.041120328E1,1.295482278E0,-6.802053452E-1,3.277617455E0
9.046120328E1,-5.134627342E0,-8.136705399E0,-9.964993477E0
9.051120328E1,-3.935555220E-1,3.654860020E0,-1.105598259E1
9.056120328E1,6.872682095E0,-2.987319946E0,-1.154530621E1
9.061120328E1,6.627691746E0,-2.356048584E0,9.676625729E-1
9.066120328E1,1.040881872E0,3.749653816E0,1.379291296E0
9.071120328E1,-3.188146591E0,2.956893444E0,1.814381599E0
9.076120328E1,-2.935359240E0,8.936071396E-1,-1.168464661E0
9.081120328E1,3.153953552E0,3.613157272E-1,3.344983816E0
9.086120328E1,7.381202221E0,-3.455277443E0,7.559676170E0
9.091120328E1,2.479873419E0,-6.259984970E0,6.846956253E0
9.096120328E1,3.725988865E0,-5.418457985E0,4.518856049E0
9.101120328E1,-3.566441298E0,-1.058404255E1,-8.258873940E0
9.106120328E1,-4.258638382E0,-6.817026138E0,5.249309540E-2
9.111120328E1,1.015021682E0,3.715896606E-1,-5.443861961E0
9.116120328E1,2.920228004E0,4.871165276E0,-5.137448311E0
9.121120328E1,5.816411018E0,6.363924026E0,-7.779832840E0
9.126120328E1,1.275830984E0,7.593035698E0,-8.640759468E0
9.131120328E1,1.021322012E-1,5.660262108E0,-3.009557724E-1
9.136120328E1,-9.860937119E0,-2.103945541E1,8.781887054E0
9.141120328E1,-1.350384951E0,5.582812309E0,2.146265984E0
9.146120328E1,-3.398976803E0,-7.223217010E0,-1.002866554E1
9.151120328E1,-2.454912663E-2,1.958137512E0,-8.236795425E0
9.156120328E1,4.680177689E0,-4.185748100E0,-8.434387207E0
9.161120328E1,6.303990841E0,-3.170863152E0,5.546633005E-1
9.166120328E1,1.287909627E0,3.471138000E0,1.929093719E0
9.171120328E1,-3.199630022E0,2.850007057E0,1.629374266E0
9.176120328E1,-3.696938515E0,1.884705544E0,-1.104919434E0
9.181120328E1,3.719302177E0,-1.851962090E0,4.284343719E0
9.186120328E1,8.887149811E0,-2.357066154E0,5.358701706E0
9.191120328E1,1.190764308E-1,-6.305932045E0,6.986905098E0
9.196120328E1,2.660866737E0,-6.815609932E0,5.710808754E0
9.201120328E1,-8.497272134E-1,-8.715846062E0,-7.762544155E0
9.206120328E1,-4.977509022E0,-7.969828606E0,1.044699669E0
9.211120328E1,-3.977373242E-3,2.397079468E-1,-4.353202820E0
9.216120328E1,1.459525585E0,4.730437756E0,-5.606680393E0
9.221120328E1,6.042465210E0,5.359227657E0,-7.210573673E0
9.226120328E1,1.522269487E0,6.842625141E0,-7.999654770E0
9.231120328E1,-3.751356602E-1,6.815505028E0,-2.062695742E0
9.236120328E1,-1.083115101E1,-1.805869865E1,1.205194855E1
9.241120328E1,-2.927188873E-1,3.384500027E0,4.265964985E0
9.246120328E1,-2.033219337E0,-6.642731667E0,-1.334197998E1
9.251120328E1,-2.754024506E0,2.377244949E0,-8.236277580E0
9.256120328E1,6.788447857E0,-4.434215546E0,-9.130218506E0
9.261120328E1,6.363550663E0,-2.860176086E0,1.674821973E0
9.266120328E1,1.157461047E0,3.861111641E0,1.112357020E0
9.271120328E1,-2.873484612E0,2.941095352E0,3.102494955E0
9.276120328E1,-2.259651423E0,1.233886719E0,-2.330121994E0
9.281120328E1,1.366042614E0,-7.403497696E-1,4.347932816E0
9.286120328E1,7.879541874E0,-3.589705467E0,7.236286163E0
9.291120328E1,2.858822346E0,-6.630749702E0,5.902562141E0
9.296120328E1,2.119073153E0,-6.755275726E0,4.876873016E0
9.301120328E1,-3.185562372E0,-9.478239059E0,-8.240130424E0
9.306120328E1,-3.199195147E0,-7.285987854E0,-7.275636196E-1
9.311120328E1,2.436961651E0,1.011848450E0,-5.327132225E0
9.316120328E1,3.148504257E0,5.497778893E0,-5.821975708E0
9.321120328E1,4.759035110E0,7.023565292E0,-8.188456535E0
9.326120328E1,1.309034824E0,7.804704666E0,-8.251995087E0
9.331120328E1,-6.532070637E-1,4.141723156E0,3.757723808E0
9.336120328E1,-8.118796349E0,-2.039830399E1,9.513160706E0
9.341120328E1,-2.041417837E0,5.187934875E0,2.297986984E0
9.346120328E1,-3.976307154E0,-7.547583580E0,-1.694885063E1
9.351120328E1,-1.151276469E0,2.427989483E0,-6.380536556E0
9.356120328E1,3.977339268E0,-4.599936485E0,-7.281961441E0
9.361120328E1,7.871066093E0,-7.274284363E-1,6.583750248E-2
9.366120328E1,8.076524734E-1,3.644664764E0,2.271946907E0
9.371120328E1,-3.371441126E0,2.185676098E0,2.207097292E0
9.376120328E1,-1.763643742E0,1.271317482E0,-8.142935038E-1
9.381120328E1,3.272256136E0,-2.287628174E0,5.114356518E0
9.386120328E1,8.394542694E0,-2.680907249E0,5.542613506E0
9.391120328E1,8.559144139E-1,-6.169698715E0,1.040864563E1
9.396120328E1,2.112491369E0,-6.681853294E0,4.521191597E0
9.401120328E1,-1.614142418E0,-9.255829811E0,-8.353152275E0
9.406120328E1,-2.653577805E0,-7.141328812E0,-8.698664904E-1
9.411120328E1,9.535828829E-1,8.195018768E-1,-5.863873482E0
9.416120328E1,2.342637539E0,5.130165577E0,-5.273782253E0
9.421120328E1,5.098296165E0,6.784567356E0,-8.003366470E0
9.426120328E1,6.885902882E-1,8.343554497E0,-8.445056915E0
9.431120328E1,-7.117006779E-1,5.760190010E0,1.492807865E0
9.436120328E1,-6.269584656E0,-2.286431122E1,1.011758614E1
9.441120328E1,-4.478262663E-1,8.795932770E0,2.550176144E0
9.446120328E1,-3.036515236E0,-1.078084850E1,-1.208349609E1
9.451120328E1,-2.266604662E0,2.786396027E0,-6.814340591E0
9.456120328E1,3.758032799E0,-1.199346542E0,-1.033342075E1
9.461120328E1,6.189529419E0,-4.715187073E0,7.162833214E-1
9.466120328E1,1.712886930E0,4.026813507E0,3.038018703E0
9.471120328E1,-2.675381899E0,2.453698158E0,1.546998978E0
9.476120328E1,-2.793263674E0,1.010335922E0,-4.010808468E-2
9.481120328E1,3.896171331E0,-1.472661972E0,5.340342522E0
9.486120328E1,8.874196053E0,-1.981979370E0,5.986741543E0
9.491120328E1,8.281512260E-1,-6.210000992E0,8.109497070E0
9.496120328E1,6.033113599E-1,-5.756941795E0,5.607905388E0
9.501120328E1,-4.029216170E-1,-1.007983208E1,-9.383342743E0
9.506120328E1,-2.714423418E0,-7.181735992E0,1.189629555E0
9.511120328E1,-1.949807525E0,-5.338020325E-1,-4.543724060E0
9.516120328E1,2.370684624E0,5.258256912E0,-6.363588810E0
9.521120328E1,6.000020504E0,6.567687988E0,-7.905863762E0
9.526120328E1,1.257354379E0,8.032789230E0,-8.553015709E0
9.531120328E1,-9.491578341E-1,5.764941692E0,6.702485085E-1
9.536120328E1,-9.698946953E0,-2.355961609E1,1.080805016E1
9.541120328E1,-8.055195808E-1,6.394701481E0,2.140153408E0
9.546120328E1,-2.210445404E0,-8.016540527E0,-1.272988129E1
9.551120328E1,-1.925018787E0,6.970720291E-1,-8.335353851E0
9.556120328E1,3.247383118E0,-2.281745911E0,-7.698661804E0
9.561120328E1,6.385868073E0,-2.755365372E0,3.670848608E-1
9.566120328E1,2.025057077E0,3.638474464E0,2.076775074E0
9.571120328E1,-2.614006758E0,2.085906029E0,2.681525946E0
9.576120328E1,-2.260705233E0,7.092370987E-1,-7.294565439E-1
9.581120328E1,3.478312016E0,1.059389114E-1,5.450935364E0
9.586120328E1,8.411061287E0,-2.372036934E0,6.929464340E0
9.591120328E1,1.787249327E0,-6.613360405E0,7.496256828E0
9.596120328E1,2.652357817E-1,-5.496294975E0,6.282641411E0
9.601120328E1,-7.639806271E-1,-1.108521652E1,-9.001399994E0
9.606120328E1,-2.131207228E0,-6.490097046E0,-1.494697332E0
9.611120328E1,-2.667303085E0,-4.405593872E-1,-5.885456562E0
9.616120328E1,3.357185841E0,5.110032082E0,-7.010149956E0
9.621120328E1,5.438037395E0,6.760860443E0,-7.802224159E0
9.626120328E1,1.056209683E0,8.251112938E0,-8.699275970E0
9.631120328E1,-1.689401746E0,3.613484859E0,6.212171555E0
9.636120328E1,-1.013716507E1,-2.210360718E1,9.424858093E0
9.641120328E1,-2.183838844E0,5.933618546E0,9.664463997E-1
9.646120328E1,7.800946236E-1,-6.716885567E0,-1.968162537E1
9.651120328E1,-1.745581627E0,2.082851410E0,-4.289721012E0
9.656120328E1,5.703471661E0,-4.725481033E0,-8.380905151E0
9.661120328E1,6.847201347E0,-2.770796776E0,6.263256073E-2
9.666120328E1,-3.296789527E-1,2.842024803E0,1.709575772E0
9.671120328E1,-3.207650185E0,2.713125229E0,1.956756949E0
9.676120328E1,-1.923650980E0,2.336833000E0,7.204507589E-1
9.681120328E1,2.490240812E0,1.100416183E0,3.180370092E0
9.686120328E1,6.811772823E0,-3.649329185E0,8.412246704E0
9.691120328E1,3.420441628E0,-5.774839401E0,5.752470493E0
9.696120328E1,1.637010574E0,-5.063606262E0,6.491300583E0
9.701120328E1,-1.221161008E0,-9.327916145E0,-8.641229630E0
9.706120328E1,-2.169675827E0,-7.268403053E0,9.751325846E-1
9.711120328E1,4.997313619E-1,-1.198426247E0,-5.600008965E0
9.716120328E1,5.077727437E-1,4.323281288E0,-5.038543701E0
9.721120328E1,5.201617718E0,6.193485260E0,-7.934113503E0
9.726120328E1,1.620790005E0,8.000320435E0,-7.778118134E0
9.731120328E1,2.789037228E-1,6.655773640E0,-5.941342354E0
9.736120328E1,-1.358990097E1,-1.739925575E1,9.843541145E0
9.741120328E1,3.114467859E-1,7.403693199E-1,2.824482441E0
9.746120328E1,-2.188963652E0,-5.029017448E0,2.374073505E0
9.751120328E1,-2.143458366E0,3.770579338E0,-1.292915916E1
9.756120328E1,2.115517139E0,-1.740142822E0,-1.277439308E1
9.761120328E1,5.908430099E0,-5.803956032E0,1.933893442E0
9.766120328E1,3.892394781E0,2.041973591E0,8.090924621E-1
9.771120328E1,-2.615416288E0,3.249992371E0,2.702186584E0
9.776120328E1,-2.684730768E0,1.422842026E0,8.960616589E-1
9.781120328E1,1.217469811E0,1.551761627E0,2.612154484E-1
9.786120328E1,4.379178524E0,-1.841198921E0,6.862202168E0
9.791120328E1,4.647527218E0,-5.172528267E0,4.480109692E0
9.796120328E1,2.278196335E0,-6.750906944E0,8.833717346E0
9.801120328E1,-5.443068743E-1,-6.020952225E0,1.634240985E0
9.806120328E1,-4.949901104E0,-9.151754379E0,-7.182685852E0
9.811120328E1,-3.011310577E0,-3.968558311E0,-2.764087677E0
9.816120328E1,-3.953310847E-1,1.992776394E0,-4.904432297E0
9.821120328E1,4.490985870E0,4.881422520E0,-7.875106812E0
9.826120328E1,2.005588055E0,7.536937714E0,-7.382946014E0
9.831120328E1,3.671181202E-1,7.641107082E0,-6.827994347E0
9.836120328E1,-3.758502483E0,-8.062095642E-1,1.236765289E1
9.841120328E1,7.443103790E-1,-6.025199890E0,5.464927197E0
9.846120328E1,-2.249868631E0,-1.578281403E0,2.232494354E0
9.851120328E1,-2.085106850E0,1.107581139E0,-1.383808994E1
9.856120328E1,1.038118839E0,-6.080074310E-1,-9.573761940E0
9.861120328E1,5.111981869E0,-6.754868507E0,1.574584484E0
9.866120328E1,6.601587772E0,3.911361694E-1,-1.107213855E0
9.871120328E1,-2.859241486E0,3.246716499E0,2.285890341E0
9.876120328E1,-3.636313915E0,2.002968311E0,2.046721458E0
9.881120328E1,-1.758517623E0,1.497519493E0,-4.135455132E0
9.886120328E1,1.002105474E0,-1.099796295E0,4.626093864E0
9.891120328E1,8.233848572E0,-3.896890640E0,5.127911091E0
9.896120328E1,4.849658012E0,-6.561169624E0,8.469800949E0
9.901120328E1,1.973004222E0,-6.575613022E0,2.521599770E0
9.906120328E1,-4.238508224E0,-8.904213905E0,-7.840089321E0
9.911120328E1,-4.308289528E0,-6.308311462E0,1.047126889E0
9.916120328E1,3.914706707E-1,-3.470735550E-1,-6.005248070E0
9.921120328E1,3.623277903E0,4.345699787E0,-4.140938282E0
9.926120328E1,5.602832317E0,5.736202717E0,-7.437646389E0
9.931120328E1,1.079797983E0,7.263932228E0,-8.441963196E0
9.936120328E1,1.039375067E-1,6.674936295E0,-3.821071863E0
9.941120328E1,-8.552166939E0,-9.840670586E0,7.407177448E0
9.946120328E1,-1.934134364E0,-1.821882248E0,2.245375633E0
9.951120328E1,-5.965597630E0,-3.379100800E0,1.889872551E-1
9.956120328E1,2.183982849E0,2.490652561E0,-1.719345665E1
9.961120328E1,3.327274799E0,-6.093155861E0,-1.212475872E1
9.966120328E1,5.241078377E0,-4.537877083E0,2.259908915E0
9.971120328E1,3.264717579E0,1.672127724E0,-1.572166681E-1
9.976120328E1,-2.915609360E0,3.183726311E0,2.684587240E0
9.981120328E1,-2.944278955E0,1.828988075E0,2.505450726E0
9.986120328E1,2.101157308E-1,1.248147011E0,-2.808808804E0
9.991120328E1,4.411466599E0,-2.499604225E0,6.376982689E0
9.996120328E1,6.371334076E0,-3.296509743E0,5.216397762E0
1.000112033E2,3.215584517E0,-5.292836189E0,9.369039536E0
1.000612033E2,-1.331238627E0,-5.899369240E0,4.089801311E0
1.001112033E2,-2.637460232E0,-1.026889896E1,-8.125051498E0
1.001612033E2,-3.171989441E0,-8.022492409E0,-6.264877319E-2
1.002112033E2,-8.746009469E-1,1.626186371E-1,-5.083543301E0
1.002612033E2,2.852769136E0,5.039729118E0,-4.482356071E0
1.003112033E2,5.034328461E0,6.373318672E0,-8.565158844E0
1.003612033E2,1.542031527E0,7.732710361E0,-7.965681553E0
1.004112033E2,-1.580611467E-1,5.621717930E0,-2.580846310E0
1.004612033E2,-1.077776146E1,-1.427015781E1,8.905760765E0
1.005112033E2,-1.231438994E0,1.644557953E0,1.851190090E0
1.005612033E2,-2.661705494E0,-5.625647545E0,3.564912796E0
1.006112033E2,-5.786279440E-1,2.862279415E0,-1.408656788E1
1.006612033E2,2.224251032E0,-1.994549751E0,-1.178212357E1
1.007112033E2,4.808690548E0,-6.212444305E0,1.278942585E0
1.007612033E2,4.683060646E0,1.314438820E0,-4.430454671E-1
1.008112033E2,-3.617619991E0,2.812252998E0,2.090274096E0
1.008612033E2,-3.020271540E0,2.124456406E0,2.788666248E0
1.009112033E2,6.311596632E-1,1.336014748E0,-2.181262016E0
1.009612033E2,4.733063698E0,-2.173995972E0,5.356825829E0
1.010112033E2,5.308424473E0,-4.508766174E0,5.298990250E0
1.010612033E2,2.316331625E0,-6.998646736E0,9.417727470E0
1.011112033E2,4.486241937E-1,-5.660004616E0,2.969036579E0
1.011612033E2,-2.488399744E0,-8.831142426E0,-7.811203957E0
1.012112033E2,-3.398523092E0,-7.998723030E0,-1.574656010E0
1.012612033E2,-1.707499027E-1,1.001609802E0,-5.047587395E0
1.013112033E2,4.094165325E0,4.251659870E0,-6.270138741E0
1.013612033E2,4.857743740E0,5.924006939E0,-7.471033573E0
1.014112033E2,1.000617027E0,7.262341499E0,-8.161920547E0
1.014612033E2,-7.500737906E-1,5.178670406E0,3.305202007E0
1.015112033E2,-8.346062660E0,-1.946149826E1,1.066317558E1
1.015612033E2,-2.113410234E-1,6.245247364E0,1.404576302E0
1.016112033E2,-3.960926533E0,-9.266703606E0,-1.267983627E1
1.016612033E2,-9.909795523E-1,1.969234943E0,-8.137125015E0
1.017112033E2,4.980115414E0,-2.645747185E0,-6.951737881E0
1.017612033E2,6.931919098E0,-2.753416061E0,7.287700176E-1
1.018112033E2,9.676043987E-1,3.710941315E0,1.204632401E0
1.018612033E2,-3.105695963E0,2.880724907E0,1.794501066E0
1.019112033E2,-2.080607414E0,1.277868271E0,-3.919320107E-1
1.019612033E2,3.231400013E0,-1.825632095E0,3.083699703E0
1.020112033E2,6.272089481E0,-2.546671867E0,8.038114548E0
1.020612033E2,2.745405197E0,-6.122430801E0,4.704606056E0
1.021112033E2,4.134109974E0,-5.454790115E0,4.879146576E0
1.021612033E2,-3.997548342E0,-8.886737823E0,-6.557180405E0
1.022112033E2,-6.608574390E0,-7.734346390E0,-1.004171371E-2
1.022612033E2,8.235006928E-1,-8.845386505E-1,-4.189751148E0
1.023112033E2,2.653802872E0,4.890495777E0,-6.125664711E0
1.023612033E2,6.391341209E0,6.022508144E0,-7.630096436E0
1.024112033E2,1.371914268E0,8.302334785E0,-8.339828491E0
1.024612033E2,2.470617294E-1,6.700943947E0,-1.696897268E0
1.025112033E2,-1.214775276E1,-2.332236481E1,9.988756180E0
1.025612033E2,-8.299601078E-2,4.097133160E0,5.486049652E-1
1.026112033E2,-2.887103081E0,-7.165678024E0,-1.242560005E1
1.026612033E2,-2.231698275E0,2.098286629E0,-9.465448380E0
1.027112033E2,4.125875473E0,-3.122460365E0,-1.146304512E1
1.027612033E2,6.565487385E0,-3.561860085E0,7.247077227E-1
1.028112033E2,1.993441105E0,2.978209496E0,1.009500861E0
1.028612033E2,-2.908153534E0,3.649088860E0,1.782999992E0
1.029112033E2,-2.441129208E0,1.030922890E0,-4.571868181E-1
1.029612033E2,2.440294266E0,7.775678635E-1,3.032088995E0
1.030112033E2,6.836557388E0,-2.487874985E0,6.424559593E0
1.030612033E2,3.996931076E0,-6.637852669E0,5.815565586E0
1.031112033E2,2.375282288E0,-3.169548988E0,7.225365639E0
1.031612033E2,-3.311680317E0,-4.093341827E0,-1.712195873E-1
1.032112033E2,-4.989131451E0,-1.010350704E1,-1.615544319E0
1.032612033E2,-5.999896526E-1,-4.581028938E0,-2.910053253E0
1.033112033E2,5.748553276E-1,1.381454468E0,-5.134225845E0
1.033612033E2,4.489070892E0,4.868786812E0,-7.547467709E0
1.034112033E2,2.567272663E0,7.886713505E0,-7.868744373E0
1.034612033E2,8.260024190E-1,7.745018482E0,-7.893891335E0
