"Time (s)","Acceleration x (m/s^2)","Acceleration y (m/s^2)","Acceleration z (m/s^2)"
7.183213900E-2,2.911766052E0,3.669692516E0,7.831708431E0
1.218321390E-1,3.184846878E0,3.980759621E0,8.880363464E0
1.718321390E-1,2.804089069E0,4.148257256E0,6.143871307E0
2.218321390E-1,2.796910524E0,4.296911240E0,6.687341213E0
2.718321390E-1,3.816851139E0,3.075674295E0,6.576972008E0
3.218321390E-1,5.937789440E0,3.885046721E0,6.375975132E0
3.718321390E-1,5.226821899E0,3.310470104E0,7.209275723E0
4.218321390E-1,4.223630905E0,2.446063042E0,7.120441914E0
4.718321390E-1,5.073681355E0,1.213161111E0,8.157132149E0
5.218321390E-1,3.223132133E0,-8.001000881E-1,9.529116631E0
5.718321390E-1,2.401795626E0,-4.994718075E0,4.025026798E0
6.218321390E-1,3.603590965E0,-3.562912941E0,5.356034279E0
6.718321390E-1,7.829315662E0,-7.609176159E0,6.076872349E0
7.218321390E-1,7.867600918E0,-6.584449768E0,7.484450340E0
7.718321390E-1,1.033101177E1,-5.226821899E0,1.002712345E1
8.218321390E-1,1.164556885E1,-4.247858524E0,9.885647774E0
8.718321390E-1,1.021376324E1,-2.883052111E0,9.907182693E0
9.218321390E-1,1.019462109E1,-1.616650820E0,1.102522945E1
9.718321390E-1,7.055835724E0,-2.612663269E0,6.699305058E0
1.021832139E0,6.512365818E0,-3.883850336E0,6.088836193E0
1.071832139E0,6.320940018E0,-4.712066174E0,5.451747417E0
1.121832139E0,9.033503532E0,-2.112264156E0,5.602794170E0
1.171832139E0,9.222537041E0,-3.922135353E0,3.608376503E0
1.221832139E0,5.789434433E0,-4.295714855E0,9.125627279E-1
1.271832139E0,6.521937370E0,-3.536591768E0,3.634697676E0
1.321832139E0,7.941778183E0,-2.988336325E0,5.693721294E0
1.371832139E0,7.965706348E0,-2.526521683E0,5.691328526E0
1.421832139E0,9.665508270E0,-3.934099436E0,7.115656376E0
1.471832139E0,1.028315544E1,-5.353940487E0,3.812065601E0
1.521832139E0,8.391927719E0,-6.560521603E0,3.649054527E0
1.571832139E0,7.561020374E0,-5.346762180E0,4.100699723E-1
1.621832139E0,7.647161961E0,-1.621436477E0,-5.620142221E-1
1.671832139E0,7.992027760E0,-4.688137531E0,3.737588882E0
1.721832139E0,7.558627605E0,-3.603590965E0,2.325225353E0
1.771832139E0,7.479664326E0,-4.752744198E0,1.257428288E0
1.821832139E0,8.396714211E0,-2.538485765E0,4.403391838E0
1.871832139E0,6.507580280E0,-5.190929413E0,-2.108675003E0
1.921832139E0,5.116752148E0,-8.806185722E0,-1.112662554E0
1.971832139E0,6.014658928E0,-5.475974560E0,3.882354796E-1
2.021832139E0,1.961217284E0,-6.460022926E0,-2.441576481E0
2.071832139E0,1.054666519E1,-1.323051453E1,7.340880871E0
2.121832139E0,5.308177948E0,-1.836820412E1,2.279761791E0
2.171832139E0,4.755136967E0,-1.126002502E1,2.796910524E0
2.221832139E0,9.605687141E0,-1.523420429E1,-7.454838753E0
2.271832139E0,8.082955360E0,-1.534906006E1,-3.492324591E0
2.321832139E0,2.643769979E0,-1.230389404E1,3.684946775E0
2.371832139E0,5.324030295E-2,-6.067300797E0,-5.108377457E0
2.421832139E0,1.896611094E0,-2.425724030E0,-2.201995134E0
2.471832139E0,3.088835001E0,-4.420141697E0,-1.668096542E0
2.521832139E0,3.499503136E-1,-4.992325306E0,1.628614902E0
2.571832139E0,-3.490529954E-1,-5.361119270E0,4.893920422E0
2.621832139E0,6.210870266E0,-1.457587910E1,1.106830025E1
2.671832139E0,5.145465851E0,-8.181359291E0,1.195663548E1
2.721832139E0,3.124727249E0,-1.552642822E1,-1.719392586E1
2.771832139E0,-2.484647274E0,-8.059026718E0,-7.465606928E-1
2.821832139E0,-3.873381615E-1,-1.885663795E1,-1.512562990E0
2.871832139E0,1.018505001E1,-1.023529911E1,-8.315058798E-2
2.921832139E0,1.448854089E0,-8.351249695E0,3.780958891E0
2.971832139E0,-1.182054400E0,-5.023432255E0,4.934897423E0
3.021832139E0,2.499901533E0,-6.869195461E0,3.869493246E0
3.071832139E0,3.998705626E0,-7.989634991E0,-7.322037220E-1
3.121832139E0,5.073681355E0,-6.838088989E0,-2.767000198E0
3.171832139E0,1.872682810E0,-1.167188931E1,1.417747378E0
3.221832139E0,7.587341309E0,-1.312493134E1,1.381675625E1
3.271832139E0,3.294916868E0,-1.302443314E1,6.557829380E0
3.321832139E0,5.188536644E0,-1.131505966E1,-5.685346603E0
3.371832139E0,4.269094467E0,-1.330708504E1,2.213360928E-2
3.421832139E0,5.846862316E0,-2.020439529E1,6.850052834E0
3.471832139E0,5.435296535E0,-1.451127338E1,-2.365903407E-1
3.521832139E0,5.401497841E0,-9.227322578E0,-3.346960545E-1
3.571832139E0,-3.257827997E0,-1.473081470E0,-2.022533417E0
3.621832139E0,-1.158126116E0,1.936092615E0,-1.028913736E0
3.671832139E0,9.344570160E0,-2.452643216E-2,1.754926109E1
3.721832139E0,1.073180914E0,-4.503890514E0,2.899801970E0
3.771832139E0,-5.021936297E-1,-1.063759232E1,-1.183340549E1
3.821832139E0,5.454439163E0,-3.398017502E1,-2.640180588E0
3.871832139E0,1.084337521E1,-2.161227417E1,-5.216353416E0
3.921832139E0,7.264310360E0,-1.824377632E1,8.875576973E0
3.971832139E0,-7.806583881E0,-9.371191025E0,6.299404621E0
4.021832139E0,-1.615155302E-2,1.359123230E0,1.179631615E1
4.071832139E0,4.877470016E0,-4.348356724E0,-1.957927108E0
4.121832139E0,3.247060299E0,2.111067772E0,-3.212364435E0
4.171832139E0,5.803791523E0,-2.655734062E0,7.510771275E0
4.221832139E0,1.567478275E1,-2.573241425E1,2.444866419E0
4.271832139E0,5.990730762E0,-5.528287888E1,8.631210327E0
4.321832139E0,6.184549332E0,-1.156899834E1,-1.275673628E0
4.371832139E0,5.799005508E0,3.324826956E0,-3.444468260E0
4.421832139E0,-2.175673962E0,-1.250249863E0,-6.006283760E0
4.471832139E0,-2.855534792E0,2.738286495E0,-6.803392887E0
4.521832139E0,-6.744768620E-1,2.357528448E0,-3.243471146E0
4.571832139E0,3.547359705E-1,-1.792762566E1,3.541886139E1
4.621832139E0,-1.012163997E0,-1.228714466E0,-9.410672188E0
4.671832139E0,-2.343171597E0,-2.712324333E1,-1.233858967E1
4.721832139E0,1.757558060E1,-3.600061417E1,-6.385845542E-1
4.771832139E0,3.511945724E1,-1.826531219E1,4.738685989E1
4.821832139E0,5.011467934E0,-1.013958549E1,4.609174728E0
4.871832139E0,-6.964011192E0,-1.245464206E0,9.308678627E0
4.921832139E0,5.042574406E0,-2.420938253E0,-9.427721500E-1
4.971832139E0,3.141477108E0,3.315255880E0,-3.494717360E0
5.021832139E0,6.146264076E0,1.794616925E-3,5.722435474E0
5.071832139E0,1.121216869E1,-1.453759384E1,4.531407952E-1
5.121832139E0,1.269631672E1,-5.455007553E1,6.055336952E0
5.171832139E0,3.076870918E0,-1.571067524E1,1.559223056E0
5.221832139E0,1.642971873E0,-1.322034448E-1,-3.231507063E0
5.271832139E0,1.221535921E0,9.379864931E-1,-3.415754318E0
5.321832139E0,-1.124626637E0,-1.951645970E0,-3.226721287E0
5.371832139E0,2.813660383E0,-3.334996700E-1,-1.605883121E0
5.421832139E0,1.642971873E0,-1.064716339E1,-4.107878208E0
5.471832139E0,-2.982354403E0,-1.579442406E1,-7.232007504E0
5.521832139E0,-1.780559182E0,-2.211237335E1,-4.718347073E0
5.571832139E0,1.729562187E1,-2.454019165E1,6.483652115E0
5.621832139E0,6.347260952E0,-1.377398491E1,6.302096844E-1
5.671832139E0,-1.680060625E0,-7.254739285E0,6.222834587E0
5.721832139E0,2.523829699E0,2.350350142E0,1.195214868E0
5.771832139E0,1.027358437E1,7.464111328E0,2.732304335E0
5.821832139E0,-2.118246317E0,1.103091240E0,1.257428288E0
5.871832139E0,-1.118644550E-1,-5.090431213E0,4.506283283E0
5.921832139E0,-1.397707582E0,-6.262794495E1,-6.257530212E0
5.971832139E0,5.693721294E0,-1.860987854E1,1.331605792E0
6.021832139E0,4.954040051E0,-3.814458370E0,-8.853443861E-1
6.071832139E0,2.781656384E-1,-1.144965649E0,-1.517348647E0
6.121832139E0,-1.251446247E0,2.027917206E-1,-1.026520967E0
6.171832139E0,8.120641708E-1,3.798905134E0,-5.845964909E0
6.221832139E0,3.014657497E0,-4.245465755E0,1.350808239E1
6.271832139E0,-5.335994720E0,-5.796612740E0,-5.900999546E0
6.321832139E0,2.685943544E-1,-2.448036957E1,-1.147926712E1
6.371832139E0,1.417837143E1,-3.211497116E1,-1.507777333E0
6.421832139E0,2.599083900E1,-2.375235367E1,2.317538452E1
6.471832139E0,5.533402443E0,-6.732804775E0,3.570091486E0
6.521832139E0,-4.948058128E0,-1.762612939E0,5.210072041E0
6.571832139E0,2.251047850E0,1.333998591E-1,-3.873381615E-1
6.621832139E0,2.854338408E0,4.763511658E0,-6.529414654E-1
6.671832139E0,3.837489188E-1,-1.274178028E-1,2.172084808E0
6.721832139E0,1.036211872E1,-1.485583973E1,8.027919769E0
6.771832139E0,1.179631615E1,-5.646074295E1,-3.918546200E0
6.821832139E0,7.147062302E0,-1.601486206E1,2.140978098E0
6.871832139E0,2.174477577E0,-3.663710594E0,-1.522134304E0
6.921832139E0,-2.685644388E0,-2.418545485E0,-2.144567251E0
6.971832139E0,-1.378564954E0,1.665703654E0,-2.568396091E0
7.021832139E0,4.220340848E-1,5.263910770E0,-3.727120399E0
7.071832139E0,1.951645970E0,-4.558925152E0,-8.735597610E0
7.121832139E0,-2.905783892E0,-2.126621008E0,-4.976771832E0
7.171832139E0,-1.479063511E0,-3.229233932E1,-8.318946838E0
7.221832139E0,1.415683651E1,-3.121257591E1,-3.030509949E0
7.271832139E0,2.560768890E1,-2.226581383E1,6.437052155E1
7.321832139E0,1.467996716E0,-8.842078209E0,1.633400559E0
7.371832139E0,-2.618645191E0,3.415754318E0,1.113799095E1
7.421832139E0,3.800101519E0,-5.632106066E-1,-4.495515525E-1
7.471832139E0,2.557329178E0,4.366302967E0,2.459223509E0
7.521832139E0,4.467998028E0,-3.333201885E0,4.621138573E0
7.571832139E0,1.385294724E1,-2.084357834E1,7.544270515E0
7.621832139E0,9.208179474E0,-5.743252945E1,5.367998600E0
7.671832139E0,4.676173687E0,-1.443709564E1,-1.076770186E0
7.721832139E0,2.494517565E-1,-2.504687071E0,-2.403291225E0
7.771832139E0,-2.633002281E0,-1.195214868E0,-2.910569668E0
7.821832139E0,-1.794916034E0,2.333600283E0,-2.496611357E0
7.871832139E0,2.614158690E-1,4.993521690E0,-4.404588223E0
7.921832139E0,5.011467934E0,-7.673782349E0,2.782553673E0
7.971832139E0,-3.131008387E0,-2.394617319E0,-3.755834341E0
8.021832139E0,8.673982322E-2,-3.584268951E1,-1.481426430E1
8.071832139E0,1.727408600E1,-3.603889847E1,-1.210409355E1
8.121832139E0,2.171755791E1,-1.346740437E1,3.908646011E1
8.171832139E0,-8.422735929E-1,-6.548557281E0,3.242274761E0
8.221832139E0,-2.790928602E0,6.226423740E0,1.477448368E1
8.271832139E0,4.891826630E0,-1.958824396E0,-1.118644550E-1
8.321832139E0,3.091227770E0,4.004687786E0,3.790530205E0
8.371832139E0,3.515056372E0,3.490529954E-1,2.823231697E0
8.421832139E0,1.527966785E1,-1.862423515E1,4.276273251E0
8.471832139E0,1.337647724E1,-5.937908936E1,2.135594189E-1
8.521832139E0,3.991527319E0,-1.550249958E1,-1.646561027E0
8.571832139E0,2.737090111E0,6.720840335E-1,-5.787639618E-1
8.621832139E0,-2.767000198E0,-5.799604058E-1,-5.367101192E0
8.671832139E0,-1.610668778E0,3.128615618E0,-3.186043262E0
8.721832139E0,-1.079162955E0,4.818845749E0,-3.605086327E0
8.771832139E0,5.468796253E0,-1.576331711E1,6.656234264E0
8.821832139E0,-4.730311394E0,-5.782256126E0,-4.277768612E0
8.871832139E0,-1.792523265E0,-2.963002396E1,-8.543871880E0
8.921832139E0,1.576331711E1,-3.199772263E1,-3.511467218E0
8.971832139E0,3.912743759E1,-2.461915398E1,6.205546188E1
9.021832139E0,3.524627686E0,-7.419844151E0,5.672185898E0
9.071832139E0,-2.795714140E0,5.740381718E0,1.415683651E1
9.121832139E0,3.699303865E0,4.663013220E-1,-6.580262445E-3
9.171832139E0,4.319643021E0,5.335994720E0,3.800101519E0
9.221832139E0,1.149751306E0,-3.259024382E0,3.067299604E0
9.271832139E0,1.524138260E1,-2.186830521E1,1.039801121E1
9.321832139E0,1.156391335E1,-5.835675812E1,7.953144312E-1
9.371832139E0,3.153441191E0,-1.578485298E1,-1.203589797E0
9.421832139E0,2.725125790E0,3.346362352E0,1.345962733E-1
9.471832139E0,-2.735893488E0,-4.986044168E-1,-4.715954304E0
9.521832139E0,-2.094317913E0,2.635395050E0,-2.144567251E0
9.571832139E0,-6.098706722E-1,3.954438448E0,-2.264208317E0
9.621832139E0,8.401499748E0,-8.846863747E0,6.960123062E0
9.671832139E0,3.427718580E-1,-2.236690998E0,-6.549753666E0
9.721832139E0,-5.883352757E-1,-3.884717560E1,-7.849654675E0
9.771832139E0,1.426929855E1,-2.837319374E1,-2.772683203E-1
9.821832139E0,3.687220001E1,-2.280210495E1,3.775545120E1
9.871832139E0,5.384748459E0,-8.446963310E0,6.387938976E0
9.921832139E0,-3.626621723E0,2.218744755E0,7.946564198E0
9.971832139E0,3.938885212E0,-1.803290963E0,7.019943595E-1
1.002183214E1,1.817647934E0,4.054936886E0,3.445664644E0
1.007183214E1,8.024929166E-1,-8.383852243E-1,1.518245935E0
1.012183214E1,1.445384502E1,-1.610578918E1,3.739981890E0
1.017183214E1,1.842323875E1,-5.698985672E1,1.559223056E0
1.022183214E1,5.602794170E0,-2.235674095E1,6.110670567E-1
1.027183214E1,4.487140656E0,2.125424623E0,1.800599098E-1
1.032183214E1,-9.762716293E-1,1.512562990E0,-4.059722900E0
1.037183214E1,-3.576372623E0,1.189232826E0,-4.127020836E0
1.042183214E1,-7.968099117E-1,5.450850010E0,-5.216353416E0
1.047183214E1,4.329214573E0,-9.521938324E0,4.501916504E1
1.052183214E1,-5.623133183E0,-7.187440991E-1,-1.157737350E1
1.057183214E1,-5.812465191E0,-3.343909836E1,-1.454357624E1
1.062183214E1,1.219621658E1,-3.171776199E1,-6.669394970E0
1.067183214E1,5.032225800E1,-4.313511658E1,1.626222134E0
1.072183214E1,5.305785179E0,-6.950551510E0,1.644556999E1
1.077183214E1,-1.945963025E0,7.127620578E-1,-5.189733028E0
1.082183214E1,4.628317356E0,2.312064886E0,7.776673418E-3
1.087183214E1,3.828815222E0,3.080460072E0,8.104490280E0
1.092183214E1,-1.546062589E0,-1.913360834E0,4.214059830E0
1.097183214E1,1.196142101E1,-1.202602768E1,-2.369492531E0
1.102183214E1,2.210997963E1,-5.106433105E1,1.062562847E1
1.107183214E1,4.690530777E0,-3.306791306E1,3.055335522E0
1.112183214E1,2.574079037E0,-6.086742878E-1,-1.843071699E0
1.117183214E1,-1.878963947E0,2.132603168E0,-4.969593525E0
1.122183214E1,-4.766203403E0,3.171686411E0,-8.340482712E0
1.127183214E1,-3.059223652E0,5.115555763E0,-5.486742496E0
1.132183214E1,5.198108196E0,-5.619544029E0,2.837050247E1
1.137183214E1,-1.763809443E0,9.284151793E-1,-7.564908981E0
1.142183214E1,-4.294518471E0,-2.050379753E1,-1.212323570E1
1.147183214E1,1.325892925E1,-3.485863876E1,-3.032902718E0
1.152183214E1,3.541886139E1,-4.419334030E1,-1.108175945E1
1.157183214E1,5.626722336E0,-9.591330528E0,4.015455723E0
1.162183214E1,-2.745464802E0,6.346064568E0,6.862017155E0
1.167183214E1,7.544270515E0,-9.702895880E-1,3.523431420E-1
1.172183214E1,3.026621580E0,3.944867134E0,5.035396099E0
1.177183214E1,5.560321808E-1,-1.054038405E0,3.266202927E0
1.182183214E1,1.423819160E1,-1.371625805E1,9.101698995E-1
1.187183214E1,1.976621056E1,-6.827320862E1,1.927717686E0
1.192183214E1,4.726422787E0,-2.208844566E1,-1.294816136E0
1.197183214E1,4.930111885E0,3.944867134E0,-3.179463148E-1
1.202183214E1,-1.184447169E0,8.638089895E-1,-8.228019714E0
1.207183214E1,-1.589133382E0,6.125925064E0,-1.135454178E1
1.212183214E1,-4.342374802E0,5.000699997E0,-7.086045265E0
1.217183214E1,7.391129971E0,-1.614886093E1,4.929992294E1
1.222183214E1,-4.351946115E-1,2.853141785E0,-1.132582760E1
1.227183214E1,-8.472087860E0,-3.037209702E1,-1.620748520E1
1.232183214E1,1.144905853E1,-3.389612579E1,-3.250649452E0
1.237183214E1,6.042295837E1,-3.905086517E1,6.233332825E1
1.242183214E1,9.431011200E0,-5.873183250E0,-1.086341500E0
1.247183214E1,-3.198007345E0,7.555038452E0,6.811768055E0
1.252183214E1,5.574080467E0,8.084749579E-1,-8.805587292E-1
1.257183214E1,5.392823815E-1,2.213959217E0,3.268595695E0
1.262183214E1,3.236292601E-1,-2.059622049E0,1.616650820E0
1.267183214E1,2.017568207E1,-2.214826584E1,3.922135353E0
1.272183214E1,1.409701538E1,-5.410231781E1,3.026621580E0
1.277183214E1,6.692126751E0,-2.383131790E1,-1.419242978E0
1.282183214E1,2.619841576E0,2.123031855E0,-4.447658956E-1
1.287183214E1,-3.633800268E0,7.151548862E-1,-6.978368282E0
1.292183214E1,-2.257030010E0,5.663811207E0,-7.299006462E0
1.297183214E1,-3.087937593E0,5.225625515E0,-2.857927561E0
1.302183214E1,8.209774017E0,-1.435813236E1,4.104977036E1
1.307183214E1,8.479565382E-1,1.117448211E0,-7.746763229E0
1.312183214E1,-6.343671799E0,-2.903869820E1,-1.191476154E1
1.317183214E1,9.919445992E0,-2.996262550E1,-5.082056046E0
1.322183214E1,3.159064293E1,-3.982883072E1,-1.853450584E1
1.327183214E1,1.182742310E1,-8.219644547E0,-2.388635159E0
1.332183214E1,-3.248256683E0,1.809273005E0,5.988038540E0
1.337183214E1,9.160323143E0,2.247458696E0,8.169096947E0
1.342183214E1,3.371487141E0,-2.093121529E0,-1.845464468E0
1.347183214E1,-1.323530078E0,2.745464802E0,1.049372387E1
1.352183214E1,5.088038445E0,-3.558127165E0,3.499503136E-1
1.357183214E1,1.977578163E1,-3.818406677E1,1.472662735E1
1.362183214E1,9.514760017E0,-5.171308517E1,8.159524918E0
1.367183214E1,4.338785648E0,-1.114277649E1,-2.867498875E0
1.372183214E1,1.350748420E0,5.668596745E0,-3.523730516E0
1.377183214E1,-2.944069147E0,1.955235243E0,-5.757131100E0
1.382183214E1,-2.652144909E0,4.526622295E0,-7.315756321E0
1.387183214E1,-1.447956800E0,2.400599241E0,-5.739783049E-1
1.392183214E1,5.004289627E0,-1.183220863E1,1.910967946E0
1.397183214E1,-2.319243431E0,4.354339123E0,-3.559622765E0
1.402183214E1,-4.354339123E0,-3.785834122E1,-1.584108448E1
1.407183214E1,1.355115318E1,-3.224657440E1,-8.075776696E-2
1.412183214E1,3.326651764E1,-3.659672546E1,-1.011446095E1
1.417183214E1,5.617151260E0,-1.133420277E1,-3.396611691E0
1.422183214E1,-2.115853310E0,4.823631287E0,8.968897820E0
1.427183214E1,6.986443996E0,-2.255833626E0,-3.538386524E-1
1.432183214E1,5.111966610E0,6.154638767E0,7.316952705E0
1.437183214E1,-2.389831543E-1,-2.749054193E0,2.624328136E0
1.442183214E1,1.586381626E1,-1.983081627E1,6.483652115E0
1.447183214E1,1.266042423E1,-6.160321808E1,-3.877868176E0
1.452183214E1,5.552545071E0,-2.357049942E1,-4.122235298E0
1.457183214E1,6.273083687E0,4.979164600E0,7.378866673E-1
1.462183214E1,2.691925503E-2,2.460419893E0,-6.401398659E0
1.467183214E1,-1.936391711E0,4.648656368E0,-1.151276684E1
1.472183214E1,-2.616252422E0,3.119044304E0,-1.096929741E1
1.477183214E1,8.449356079E0,-1.144427204E1,5.128446960E1
1.482183214E1,-3.544966698E0,-1.750648856E0,-1.751456451E1
1.487183214E1,-5.204090118E0,-1.521027660E1,-9.570991516E0
1.492183214E1,1.025922680E1,-3.675734329E1,-2.218744755E0
1.497183214E1,3.283311462E1,-4.164109421E1,-1.904926109E1
1.502183214E1,9.804291725E0,-1.286889935E1,5.758327484E0
1.507183214E1,-2.288136721E0,2.580360174E0,7.551449299E0
1.512183214E1,8.911469460E0,-6.924230456E-1,3.397808075E0
1.517183214E1,4.702494621E0,1.761416554E0,2.507079840E0
1.522183214E1,-2.652144909E0,5.117649436E-1,4.781457901E0
1.527183214E1,5.114359379E0,-2.375474691E0,5.871388316E-1
1.532183214E1,2.151386833E1,-3.223461151E1,1.521266937E1
1.537183214E1,9.907182693E0,-6.022883987E1,8.784351349E0
1.542183214E1,4.029812336E0,-8.463712692E0,-2.386242390E0
1.547183214E1,4.479962349E0,7.706085205E0,3.092723191E-1
1.552183214E1,1.704886109E-1,3.600001574E0,-8.031807899E0
1.557183214E1,-3.020938635E0,6.633502483E0,-5.951249123E0
1.562183214E1,-2.661715984E0,1.656132340E0,-4.318446636E0
1.567183214E1,5.080859661E0,-2.649123764E1,3.191397285E1
1.572183214E1,-5.857928753E0,1.573280841E-1,-1.091665554E1
1.577183214E1,-2.006980032E-1,-4.203620911E1,-1.613091469E1
1.582183214E1,1.334058475E1,-3.279243851E1,1.951645970E0
1.587183214E1,4.217260361E1,-3.157867813E1,-2.025105667E1
1.592183214E1,3.668197155E0,-1.001515961E1,4.094418526E0
1.597183214E1,1.736291885E0,7.495217800E0,8.137989998E0
1.602183214E1,6.502794743E0,-2.219941139E0,-5.189434290E-1
1.607183214E1,3.251846075E0,3.329612732E0,7.834101200E0
1.612183214E1,-3.348755360E0,1.672882080E0,5.595615864E0
1.617183214E1,5.535795212E0,-5.822933674E0,8.599206209E-1
1.622183214E1,2.979273605E1,-4.989364243E1,2.283051872E1
1.627183214E1,7.735995770E0,-4.442783737E1,1.250249892E-1
1.632183214E1,1.784148335E0,-6.708876491E-1,-1.648953915E0
1.637183214E1,-2.606681108E0,3.942474365E0,-5.656632900E0
1.642183214E1,-3.109472990E0,5.735595703E0,-9.585348129E0
1.647183214E1,-2.029711723E0,5.944070339E0,-5.670989513E0
1.652183214E1,-4.806582630E-1,8.949156404E-1,9.750752449E-1
1.657183214E1,4.513461590E0,-1.195902824E1,6.158527136E-1
1.662183214E1,-1.936391711E0,-1.828684807E1,-8.666205406E0
1.667183214E1,1.927717686E0,-3.185175896E1,-2.544467688E0
1.672183214E1,2.086750793E1,-2.874886703E1,-3.147758245E0
1.677183214E1,2.638356209E1,-8.336893082E0,2.180130577E1
1.682183214E1,5.324030295E-2,-5.346762180E0,-2.532503605E0
1.687183214E1,7.142276287E0,5.122734070E0,6.921837807E0
1.692183214E1,4.702494621E0,1.086341500E0,-4.842773914E0
1.697183214E1,-6.816553473E-1,1.335195065E0,3.871886253E0
1.702183214E1,9.152546525E-2,-3.933202326E-1,1.523031592E0
1.707183214E1,1.668515205E1,-2.146601105E1,8.204988480E0
1.712183214E1,1.911027718E1,-7.108388519E1,-7.465606928E-1
1.717183214E1,2.784946442E0,-1.948146439E1,-2.635395050E0
1.722183214E1,2.303689957E0,4.828416824E0,1.434497118E0
1.727183214E1,-4.148556232E0,-2.518445849E-1,-6.803392887E0
1.732183214E1,-1.529312730E0,6.564110756E0,-1.008574772E1
1.737183214E1,-3.499503136E0,5.070092201E0,-8.129914284E0
1.742183214E1,5.571687698E0,-2.883052111E0,4.740361023E1
1.747183214E1,8.001000881E-1,-3.742673635E0,-1.211845016E1
1.752183214E1,-5.316852093E0,-3.887828445E1,-1.678206253E1
1.757183214E1,7.175776005E0,-2.473879433E1,1.331605792E0
1.762183214E1,3.619443512E1,-3.616811371E1,-2.019602203E1
1.767183214E1,6.265905380E0,-1.410658646E1,1.727408600E1
1.772183214E1,1.494616866E0,2.867498875E0,4.166203499E0
1.777183214E1,7.269095898E0,-2.188834429E0,1.520638824E0
1.782183214E1,5.435296535E0,4.165007114E0,6.194120407E0
1.787183214E1,-2.970390320E0,1.292124271E0,4.101597309E0
1.792183214E1,1.590329766E0,-1.432403445E0,-2.365903407E-1
1.797183214E1,2.858376122E1,-3.895246124E1,1.874387741E1
1.802183214E1,1.230150127E1,-5.037011337E1,5.475974560E0
1.807183214E1,2.547757864E0,-5.921338558E0,-2.041675806E0
1.812183214E1,-2.439183474E0,3.377469063E0,-4.213162422E0
1.817183214E1,-3.966402531E0,4.337589264E0,-1.157737350E1
1.822183214E1,-4.502694130E0,6.135496140E0,-4.768596649E0
1.827183214E1,1.247856975E0,5.979065299E-1,3.043191910E1
1.832183214E1,3.088835001E0,-1.008215809E1,-4.761417866E0
1.837183214E1,-5.404788256E-1,-3.685245991E0,-8.187341690E0
1.842183214E1,3.986741543E0,-4.448765945E1,-1.078235817E1
1.847183214E1,2.028096581E1,-3.547389603E1,9.460622668E-1
1.852183214E1,2.992434120E1,-5.430510998E0,-4.284946918E0
1.857183214E1,-3.789333820E0,-2.124228239E0,8.383852243E-1
1.862183214E1,6.265905380E0,2.972783089E0,3.086441994E0
1.867183214E1,6.215655804E0,9.643075466E-1,-3.119044304E0
1.872183214E1,1.310070395E0,2.297708035E0,3.965206146E0
1.877183214E1,1.156929731E0,8.973084688E-1,2.059323072E0
1.882183214E1,1.533709621E1,-1.482473278E1,-1.373779297E0
1.887183214E1,2.087229347E1,-5.748517227E1,2.847159863E0
1.892183214E1,3.491128206E0,-2.711367226E1,-1.615454435E0
1.897183214E1,7.019943237E0,3.870689631E0,2.270190477E0
1.902183214E1,6.469594240E-1,5.069792867E-1,-1.083769226E1
1.907183214E1,-4.478765965E0,6.090032578E0,-1.117986584E1
1.912183214E1,-5.228018284E0,2.664108992E0,-9.417850494E0
1.917183214E1,2.576471806E0,-1.402044487E1,3.439891815E1
1.922183214E1,-5.235197067E0,2.721835673E-1,-1.530239964E1
1.927183214E1,-1.550848126E0,-2.564148712E1,-1.473021603E1
1.932183214E1,1.462852097E1,-3.576133347E1,-6.051747799E0
1.937183214E1,4.321407700E1,-5.094229507E1,-1.543669701E1
1.942183214E1,7.546663284E0,-1.216271782E1,5.820540905E0
1.947183214E1,7.259225845E-1,9.527920723E0,7.027122021E0
1.952183214E1,7.343273640E0,-1.992024779E-1,7.716853172E-2
1.957183214E1,1.602293849E0,3.722334623E0,9.380462646E0
1.962183214E1,-4.256233215E0,-2.004587173E0,3.687339783E0
1.967183214E1,7.685746193E0,-9.098110199E0,9.317052960E-1
1.972183214E1,2.853351212E1,-4.887130737E1,1.490130329E1
1.977183214E1,3.213560820E0,-4.184239197E1,-2.573181629E0
1.982183214E1,3.843172312E0,-1.765005827E0,1.051645517E0
1.987183214E1,-2.178066730E0,3.815654755E0,-5.129912853E0
1.992183214E1,-3.930510283E0,3.830011845E0,-1.123250771E1
1.997183214E1,-3.265006542E0,6.389135361E0,-5.328815937E0
2.002183214E1,-2.054836452E-1,-2.039881349E-1,6.311368942E0
2.007183214E1,1.133001566E0,-5.061717033E0,-2.484647274E0
2.012183214E1,-8.494520187E-1,-4.944468975E0,-6.913762093E0
2.017183214E1,3.627519131E0,-4.174877167E1,-1.459861088E1
2.022183214E1,2.007518387E1,-3.238087082E1,2.375474691E0
2.027183214E1,3.661586761E1,-1.163839054E1,2.119562340E1
2.032183214E1,3.958027840E0,-2.548057079E0,-8.455337524E0
2.037183214E1,5.181358337E0,6.877570629E0,3.474378586E0
2.042183214E1,7.180561543E0,2.798106909E0,2.129014015E0
2.047183214E1,-1.318744421E0,-2.207378894E-1,1.987538338E0
2.052183214E1,9.053842425E-1,-5.751747489E-1,1.568794370E0
2.057183214E1,1.786301994E1,-1.890449524E1,2.574079037E0
2.062183214E1,1.981167412E1,-5.930730438E1,-1.419242978E0
2.067183214E1,2.375474691E0,-1.753490257E1,6.158228397E0
2.072183214E1,4.649852753E0,3.578466177E0,-2.700898647E-1
2.077183214E1,-3.475574970E0,-1.037288666E0,-9.745966911E0
2.082183214E1,-3.525824070E0,5.034199715E0,-5.889035702E0
2.087183214E1,-5.800201893E0,5.726024628E0,-6.039783478E0
2.092183214E1,4.101597309E0,-1.643360710E1,4.174877167E1
2.097183214E1,-2.451147795E0,9.451649189E-1,-1.202034473E1
2.102183214E1,-5.242674351E0,-4.083920288E1,-2.027498436E1
2.107183214E1,1.695793343E1,-3.535186005E1,-4.306482315E0
2.112183214E1,5.518207932E1,-3.346302795E1,7.825157928E1
2.117183214E1,2.806481838E0,-6.917052269E0,-2.324028969E0
2.122183214E1,4.685744762E0,1.091396332E1,6.830910206E0
2.127183214E1,5.851647854E0,-2.385046005E0,-1.038485050E0
2.132183214E1,9.197412133E-1,2.340778828E0,6.567400932E0
2.137183214E1,-2.991925716E0,-1.250249892E-1,3.428914785E0
2.142183214E1,9.222537041E0,-1.249532032E1,1.631007791E0
2.147183214E1,2.665873528E1,-5.675984573E1,1.846391678E1
2.152183214E1,3.151048422E0,-3.307987595E1,-3.202793121E0
2.157183214E1,4.249952316E0,3.425325632E0,2.930908680E0
2.162183214E1,-1.340279818E0,5.548357368E-1,-7.007081985E0
2.167183214E1,-3.298506021E0,5.393422127E0,-1.492194080E1
2.172183214E1,-4.186841488E0,4.840381145E0,-8.105985641E0
2.177183214E1,5.820540905E0,-2.143370867E0,4.374319077E1
2.182183214E1,-2.724826932E-1,-6.541378975E0,-1.220698452E1
2.187183214E1,-5.223232746E0,-1.751336861E1,-1.129711437E1
2.192183214E1,8.921041489E0,-3.303680420E1,-2.443969250E0
2.197183214E1,3.138485909E1,-4.604388809E1,-1.536491203E1
2.202183214E1,9.241679192E0,-1.569871140E1,7.252346516E0
2.207183214E1,-5.285146832E-1,5.948856354E0,1.432194042E1
2.212183214E1,8.051848412E0,-2.006979942E0,-2.796611488E-1
2.217183214E1,1.745863199E0,5.045864582E-1,-2.056032896E0
2.222183214E1,-1.438385487E0,2.585145712E0,4.867599487E0
2.227183214E1,1.453639746E0,-1.099501967E0,5.608177781E-1
2.232183214E1,2.560290337E1,-4.006571960E1,1.831526184E1
2.237183214E1,1.554078484E1,-5.614937973E1,2.385046005E0
2.242183214E1,2.062014818E0,-8.432605743E0,-5.428716540E-1
2.247183214E1,-1.189232826E0,3.851547241E0,-4.069293976E0
2.252183214E1,-2.036890268E0,4.344767570E0,-1.308335590E1
2.257183214E1,-4.064508438E0,6.899106026E0,-1.051196861E1
2.262183214E1,3.309273720E0,6.840481758E-1,3.628536224E1
2.267183214E1,2.619841576E0,-1.040788078E1,-3.140579700E0
2.272183214E1,-1.601097465E0,-1.113858938E0,-4.847559452E0
2.277183214E1,1.377069473E0,-4.202903366E1,-1.201077366E1
2.282183214E1,2.612244415E1,-4.045365906E1,-2.855534792E0
2.287183214E1,2.712084961E1,-9.476474762E0,1.069262695E1
2.292183214E1,-4.473979950E0,1.404886007E0,7.486843109E0
2.297183214E1,6.649055958E0,2.690429926E0,2.761018276E0
2.302183214E1,4.977968216E0,1.026520967E0,-2.283350945E0
2.307183214E1,-1.866700768E0,1.318445325E0,5.133502007E0
2.312183214E1,1.863111496E0,-9.367900491E-1,6.996015310E-1
2.317183214E1,2.057049751E1,-2.616581535E1,9.112466812E0
2.322183214E1,1.392473221E1,-6.072684860E1,-3.324826956E0
2.327183214E1,1.762612939E0,-1.468834209E1,-2.093719877E-2
2.332183214E1,1.144965649E0,5.678168297E0,3.140579760E-1
2.337183214E1,-6.050850153E-1,1.713560104E0,-8.927022934E0
2.342183214E1,-2.108675003E0,7.511967659E0,-1.177836990E1
2.347183214E1,-2.175673962E0,2.163709879E0,-6.351149559E0
2.352183214E1,4.144668102E0,-2.056361961E1,2.313949203E1
2.357183214E1,-1.150947690E0,1.816451430E0,-1.268584824E1
2.362183214E1,-3.492324591E0,-4.066422653E1,-1.999741745E1
2.367183214E1,1.072612667E1,-3.071696281E1,6.072086334E0
2.372183214E1,4.835176849E1,-2.827957535E1,3.729094315E1
2.377183214E1,-5.955137610E-1,-7.927421570E0,7.584948540E0
2.382183214E1,-1.860419661E-1,9.108877182E0,7.486843109E0
2.387183214E1,6.009873390E0,-4.051347733E0,-1.464706540E0
2.392183214E1,4.336392879E0,4.203291893E0,1.220578861E1
2.397183214E1,-1.938784599E0,8.805587292E-1,3.198904753E0
2.402183214E1,9.598508835E0,-1.152114201E1,-6.792625189E-1
2.407183214E1,3.170789146E1,-5.744449234E1,2.088904190E1
2.412183214E1,7.508378506E0,-3.247658539E1,-3.997509241E0
2.417183214E1,1.896611094E0,2.350350142E0,-5.428716540E-1
2.422183214E1,-1.261017561E0,1.627418518E0,-1.055982590E1
2.427183214E1,-3.940081596E0,1.034656525E1,-1.116790104E1
2.432183214E1,-8.613563538E0,5.398207664E0,-9.774680138E0
2.437183214E1,1.266999602E0,-7.307381153E0,1.679043579E1
2.442183214E1,2.215155602E0,-6.182156563E0,-1.303998566E1
2.447183214E1,-2.084746838E0,-2.004407692E1,-9.353244781E0
2.452183214E1,7.254739285E0,-3.482035446E1,-6.387042046E0
2.457183214E1,4.321646881E1,-4.448765945E1,-1.542234039E1
2.462183214E1,6.905087948E0,-1.199252796E1,2.005364799E1
2.467183214E1,-1.095912814E0,7.337291718E0,9.148359299E0
2.472183214E1,6.991229534E0,-1.406082392E0,3.379862010E-1
2.477183214E1,4.223630905E0,3.865904093E0,9.143573761E0
2.482183214E1,-7.287042141E0,-2.054836512E0,3.407379389E0
2.487183214E1,5.310570717E0,-4.451248169E0,1.762612939E0
2.492183214E1,3.153560829E1,-4.521567535E1,1.887308884E1
2.497183214E1,1.380000687E1,-4.599603271E1,1.310070395E0
2.502183214E1,4.324428558E0,-3.416950703E0,2.976372242E0
2.507183214E1,-3.993022740E-1,2.300100803E0,-6.669394970E0
2.512183214E1,-3.681656837E0,2.522633314E0,-1.118225861E1
2.517183214E1,-6.468397617E0,4.969593525E0,-8.989236832E0
2.522183214E1,7.424629688E0,-1.578365684E0,4.908427048E1
2.527183214E1,-1.984248161E0,-7.874779224E0,-1.063400269E1
2.532183214E1,-5.955137610E-1,-8.097311974E0,-9.501599312E0
2.537183214E1,5.557330608E0,-3.756402588E1,-7.773084164E0
2.542183214E1,3.771477509E1,-4.681228638E1,-1.775175285E1
2.547183214E1,2.003689957E1,-8.140681267E0,7.293024540E0
2.552183214E1,-1.268195987E0,5.637490273E0,8.099704742E0
2.557183214E1,8.387142181E0,-9.870393574E-2,-2.748754919E-1
2.562183214E1,5.162215710E0,5.299803257E0,8.561818123E0
2.567183214E1,-2.991925716E0,1.289731383E0,4.740779877E0
2.572183214E1,4.453640938E0,-2.045265198E0,3.649054468E-2
2.577183214E1,2.605544662E1,-3.293630600E1,1.474816227E1
2.582183214E1,1.701536179E1,-5.302494812E1,1.362712502E0
2.587183214E1,5.030610561E0,-4.135096550E0,1.736291885E0
2.592183214E1,-2.376671076E0,1.945663929E0,-6.772286415E0
2.597183214E1,-4.680061817E0,4.490729809E0,-1.024606609E1
2.602183214E1,-6.288637161E0,6.391528606E0,-1.043539906E1
2.607183214E1,5.224429131E0,1.938485503E0,3.694877243E1
2.612183214E1,-1.823629975E0,-7.975277901E0,-1.834547234E1
2.617183214E1,-4.328017831E-1,-1.532273865E1,-1.187647629E1
2.622183214E1,1.070459080E1,-3.274697495E1,-6.147460461E0
2.627183214E1,4.054936981E1,-5.128925705E1,-1.229551888E1
2.632183214E1,7.228417873E0,-1.339322662E1,2.667698145E0
2.637183214E1,4.721637249E0,9.879964828E0,8.913862228E0
2.642183214E1,8.049455643E0,-2.567199707E0,-8.757730722E-1
2.647183214E1,3.040978432E0,3.382254839E0,6.998407841E0
2.652183214E1,-4.876273632E0,-2.733799815E-1,1.571187139E0
2.657183214E1,7.017550468E0,-8.056633949E0,6.281159073E-2
2.662183214E1,3.425295639E1,-5.613262939E1,1.415922928E1
2.667183214E1,3.469592810E0,-3.750420380E1,-2.168495417E0
2.672183214E1,4.089632988E0,1.821237087E0,-2.680858612E0
2.677183214E1,-1.842772484E0,3.525824070E0,-1.048086262E1
2.682183214E1,-6.130710602E0,1.074407291E1,-1.272413349E1
2.687183214E1,-6.956832886E0,3.614358664E0,-1.100997543E1
2.692183214E1,2.162513494E0,-7.400701523E0,2.028096581E1
2.697183214E1,-1.836491376E-1,-2.497508526E0,-1.162283707E1
2.702183214E1,-3.789333820E0,-2.729821777E1,-8.311768532E0
2.707183214E1,1.340997601E1,-3.731008530E1,-4.019044876E0
2.712183214E1,4.804758072E1,-4.183282089E1,1.527817249E0
2.717183214E1,1.827219248E0,-8.635995865E0,-4.194019794E0
2.722183214E1,5.360819817E0,9.403493881E0,4.824528694E0
2.727183214E1,7.125526905E0,-3.709174156E0,-2.084746838E0
2.732183214E1,3.543770313E0,1.986641049E0,7.625626564E0
2.737183214E1,-5.003093243E0,8.590233326E-1,2.682054996E0
2.742183214E1,7.869993687E0,-2.502294302E0,-6.640082598E-2
2.747183214E1,2.731257439E1,-4.413591385E1,2.034796524E1
2.752183214E1,9.100502968E0,-5.184229660E1,3.560520172E0
2.757183214E1,4.367499352E0,-5.444868088E0,1.559223056E0
2.762183214E1,1.465603858E-1,1.179661512E0,-4.507479668E0
2.767183214E1,-6.195316792E0,1.241874933E0,-5.206781864E0
2.772183214E1,-2.633002281E0,4.931308270E0,-7.052545547E0
2.777183214E1,-4.363910198E0,5.481956482E0,-1.524527073E0
2.782183214E1,-9.379864931E-1,-1.117866898E1,-1.336570930E1
2.787183214E1,-3.052045345E0,-1.134377384E1,-1.003071213E1
2.792183214E1,4.161417484E0,-3.367120361E1,-5.625525951E0
2.797183214E1,2.822932434E1,-3.404478073E1,-2.131167412E1
2.802183214E1,2.364467621E1,-8.822935104E0,4.098994827E1
2.807183214E1,-2.745464802E0,2.630609512E0,5.064109802E0
2.812183214E1,9.818648338E0,-1.283749342E0,-1.888535261E0
2.817183214E1,4.585246563E0,3.918546200E0,7.980063438E0
2.822183214E1,-4.114757538E0,4.495515525E-1,5.315356255E0
2.827183214E1,9.487541914E-1,-6.517450809E-1,8.694919348E-1
2.832183214E1,2.579941368E1,-2.809532738E1,5.976074696E0
2.837183214E1,1.958435631E1,-5.677659607E1,1.424925923E0
2.842183214E1,4.435695112E-1,-9.160323143E0,-4.397409916E0
2.847183214E1,-2.601895571E0,3.693620920E0,-4.328018188E0
2.852183214E1,-3.853940010E0,4.780560493E0,-1.130907822E1
2.857183214E1,-5.749952793E0,6.133103371E0,-8.950951576E0
2.862183214E1,-7.585247755E-1,1.019342422E0,1.917488480E1
2.867183214E1,6.476473808E0,-1.583031654E1,5.782256126E0
2.872183214E1,-4.244269371E0,7.869395614E-1,-5.889035702E0
2.877183214E1,8.862416744E-1,-5.066682434E1,-2.533610344E1
2.882183214E1,2.085793495E1,-3.528964615E1,4.642673969E0
2.887183214E1,3.656801224E1,-1.254078388E1,6.896982574E1
2.892183214E1,-3.865904093E0,-4.685744762E0,-1.967498422E0
2.897183214E1,8.724530220E0,5.625525951E0,7.458128929E0
2.902183214E1,7.582555771E0,-1.001396298E0,-3.267399311E0
2.907183214E1,1.365105271E0,7.917252183E-1,3.347558975E0
2.912183214E1,1.757827282E0,1.525424421E-1,2.229512453E0
2.917183214E1,1.950778580E1,-2.307488632E1,3.708875179E0
2.922183214E1,1.904088593E1,-6.113392639E1,-2.235494614E0
2.927183214E1,1.906182289E0,-1.569153309E1,-3.422932863E0
2.932183214E1,-6.400800496E-2,3.626322746E0,-9.475577474E-1
2.937183214E1,-2.673680305E0,4.686941206E-1,-7.648657799E0
2.942183214E1,-2.678465843E0,7.516753197E0,-8.955737114E0
2.947183214E1,-3.700799227E0,3.336791277E0,-5.893821239E0
2.952183214E1,7.218846798E0,-2.125304985E1,2.825086021E1
2.957183214E1,-1.227517962E0,2.602194548E-1,-9.243174553E0
2.962183214E1,-9.164510965E-1,-4.196203232E1,-2.099342918E1
2.967183214E1,2.052981949E1,-3.736063385E1,-2.029711723E0
2.972183214E1,3.905295944E1,-1.272054386E1,7.477062225E1
2.977183214E1,-3.987937927E0,-6.074479580E0,-3.686442375E0
2.982183214E1,9.929018021E0,7.928617954E0,7.015157700E0
2.987183214E1,6.605985165E0,1.980060786E-1,-2.869891644E0
2.992183214E1,2.097907305E0,2.493919373E0,2.782553673E0
2.997183214E1,-2.194816589E0,-2.162513494E0,3.062513828E0
3.002183214E1,1.914377785E1,-2.691028214E1,7.003193855E0
3.007183214E1,2.231127739E1,-6.530431366E1,-4.806881428E0
3.012183214E1,1.176072359E0,-1.613928986E1,-4.926223755E-1
3.017183214E1,2.167299032E0,5.189733028E0,-3.418147087E0
3.022183214E1,-2.611466885E0,3.142972469E0,-1.108654594E1
3.027183214E1,-5.175376415E0,5.357530117E0,-1.076560783E1
3.032183214E1,-5.381458282E0,3.770191193E0,-4.239483356E0
3.037183214E1,6.687341213E0,-1.132941723E1,3.164567757E1
3.042183214E1,-1.282552958E0,-2.260619164E0,-7.732406139E0
3.047183214E1,-1.450349569E0,-4.350391006E1,-1.886022758E1
3.052183214E1,1.822433472E1,-3.299373245E1,-8.925228715E-1
3.057183214E1,4.771736908E1,-2.367099762E1,7.825157928E1
3.062183214E1,-1.534098387E0,-7.319345474E0,1.420140266E0
3.067183214E1,9.543474197E0,7.911868095E0,4.151846409E0
3.072183214E1,7.168597698E0,1.573280841E-1,-3.312862873E0
3.077183214E1,1.872682810E0,1.957628012E0,3.553341627E0
3.082183214E1,-2.865106106E0,-1.190429211E0,1.669292927E0
3.087183214E1,1.567717552E1,-2.228734779E1,7.795815945E0
3.092183214E1,2.549283409E1,-7.031279755E1,-5.362315655E0
3.097183214E1,1.925324917E0,-2.343889427E1,-3.801297903E0
3.102183214E1,2.490330219E0,4.694119930E0,-3.801297903E0
3.107183214E1,-2.216351986E0,3.372683525E0,-1.162283707E1
3.112183214E1,-6.281458378E0,1.015035343E1,-4.593621254E0
3.117183214E1,-4.368695736E0,4.622334957E0,-6.375077724E0
3.122183214E1,2.298904419E0,-1.655085564E1,3.042713356E1
3.127183214E1,-3.037688255E0,-1.192822099E0,-8.383553505E0
3.132183214E1,-4.258625984E0,-3.563690567E1,-1.646860123E1
3.137183214E1,1.242592812E1,-3.539253998E1,-8.925228715E-1
3.142183214E1,5.497869110E1,-3.686023712E1,5.669524002E1
3.147183214E1,3.280559778E0,-8.013563156E0,3.364308596E0
3.152183214E1,4.958825588E0,9.010771751E0,4.712066174E0
3.157183214E1,8.741280556E0,-1.188036442E0,-2.034497499E0
3.162183214E1,2.169692039E0,2.539682150E0,6.019145489E0
3.167183214E1,-1.469492197E0,-1.978266120E0,1.662114382E0
3.172183214E1,1.450170135E1,-1.868884277E1,8.407780528E-1
3.177183214E1,2.031446648E1,-7.089215851E1,2.375474691E0
3.182183214E1,2.528615236E0,-2.180369949E1,-4.466801643E0
3.187183214E1,4.683351994E0,7.631907940E0,2.727518797E0
3.192183214E1,-2.194816589E0,1.584347725E0,-9.101698875E0
3.197183214E1,-2.800499916E0,7.816154957E0,-7.816154957E0
3.202183214E1,-4.847559452E0,5.242375374E0,-5.711667538E0
3.207183214E1,1.133420277E1,-1.863619995E1,1.049850941E1
3.212183214E1,-5.838786125E0,1.718345761E0,-4.110270977E0
3.217183214E1,-4.328018188E0,-4.813880539E1,-1.812533188E1
3.222183214E1,1.569631863E1,-3.071457100E1,4.759922504E0
3.227183214E1,5.549105072E1,-2.463111877E1,2.101825523E1
3.232183214E1,2.935694218E0,-4.077668667E0,5.921039581E0
3.237183214E1,6.890730858E0,7.301399231E0,8.329714775E0
3.242183214E1,7.639983654E0,-2.658126831E0,-1.455135226E0
3.247183214E1,-5.835496187E-1,1.215553880E0,6.124728680E0
3.252183214E1,-1.723131418E0,-9.631111026E-1,1.540080428E0
3.257183214E1,1.325892925E1,-1.588295841E1,1.214357495E0
3.262183214E1,2.675474739E1,-6.777281189E1,4.338785648E0
3.267183214E1,5.526223660E0,-2.182523537E1,-1.272981644E0
3.272183214E1,2.789732218E0,3.238685369E0,2.829512656E-1
3.277183214E1,-3.451646566E0,1.287338614E0,-1.178315639E1
3.282183214E1,-4.466801643E0,8.608478546E0,-1.006181908E1
3.287183214E1,-6.401398659E0,6.355636120E0,-6.564110756E0
3.292183214E1,8.348856926E0,-1.770509338E1,4.251028824E1
3.297183214E1,-3.696013689E0,1.357926875E-1,-1.040429211E1
3.302183214E1,-4.318446636E0,-3.827977753E1,-1.660499191E1
3.307183214E1,1.958674812E1,-3.548825073E1,-1.083948612E0
3.312183214E1,5.360909653E1,-3.545714569E1,7.331967163E1
3.317183214E1,2.466402054E0,-5.430510998E0,-2.408077002E0
3.322183214E1,9.742077827E0,7.873582840E0,7.716853142E0
3.327183214E1,8.099704742E0,1.481456280E0,-6.768696904E-1
3.332183214E1,1.345962733E-1,1.268195987E0,3.457628727E0
3.337183214E1,9.125627279E-1,-1.817647934E0,1.982752681E0
3.342183214E1,1.877019882E1,-2.452344131E1,5.724828243E0
3.347183214E1,1.689093590E1,-6.362605286E1,-4.186841488E0
3.352183214E1,1.075573802E0,-1.561256981E1,-3.466003656E0
3.357183214E1,3.203989506E0,6.116353989E0,1.393819153E-1
3.362183214E1,-2.347957134E0,2.805285454E0,-1.344227982E1
3.367183214E1,-3.363112211E0,5.577669621E0,-7.859225750E0
3.372183214E1,-4.076472282E0,3.868296862E0,-4.790132046E0
3.377183214E1,1.728814393E-1,-1.994357872E1,2.206930161E1
3.382183214E1,-2.963211775E0,2.448455811E0,-8.062914848E0
3.387183214E1,4.130311012E0,-3.595515060E1,-1.819711685E1
3.392183214E1,3.218196869E1,-4.451397705E1,-2.755036116E0
3.397183214E1,1.581835270E1,-1.151157093E1,5.480371475E1
3.402183214E1,-5.886642933E0,-3.079263687E0,7.529913902E0
3.407183214E1,1.132463169E1,2.776571512E0,5.023432255E0
3.412183214E1,6.596413612E0,4.531407833E0,6.929016113E0
3.417183214E1,-3.147758245E0,7.390831113E-1,6.057729721E0
3.422183214E1,4.697709084E0,-5.892325878E0,1.851147413E0
3.427183214E1,3.049413109E1,-4.366183472E1,1.961067772E1
3.432183214E1,1.152084255E1,-4.756183624E1,2.222334146E0
3.437183214E1,3.273381472E0,-3.021835804E0,5.919244885E-1
3.442183214E1,2.837588549E0,4.521836758E0,-5.800501347E0
3.447183214E1,-2.225923300E0,5.563312531E0,-1.557069492E1
3.452183214E1,-5.407779217E0,5.055735111E0,-7.931010723E0
3.457183214E1,3.558127165E0,-5.249254704E-1,4.159084702E1
3.462183214E1,5.105685592E-1,-8.585746765E0,-7.205686092E0
3.467183214E1,-6.194419861E-1,-3.926921129E0,-8.419445992E0
3.472183214E1,6.914659023E0,-3.944568253E1,-1.129950714E1
3.477183214E1,2.824607468E1,-4.116223145E1,-4.217947960E0
3.482183214E1,2.160240364E1,-1.089601707E1,2.429343033E1
3.487183214E1,-9.116654396E-1,5.723631859E0,1.469312763E1
3.492183214E1,1.075244808E1,-2.172084808E0,1.355534077E0
3.497183214E1,3.979563236E0,4.581656933E0,1.104915810E1
3.502183214E1,-5.936892033E0,-1.441675574E-1,4.645066738E0
3.507183214E1,6.002694607E0,-3.819244146E0,4.001995921E-1
3.512183214E1,2.870818901E1,-4.820580673E1,2.096322060E1
3.517183214E1,6.337689877E0,-3.909632874E1,1.547258973E0
3.522183214E1,2.650948286E0,-1.465902925E0,-3.889832258E0
3.527183214E1,2.327618122E0,5.742774487E0,-5.115555763E0
3.532183214E1,-3.789333820E0,5.259125233E0,-1.591556072E1
3.537183214E1,-4.787738800E0,2.412563324E0,-7.629515171E0
3.542183214E1,7.125526905E0,-6.503093719E0,3.203121948E1
3.547183214E1,-2.175673962E0,-4.366901144E-2,-5.984748363E0
3.552183214E1,-3.853940010E0,-1.925863266E1,-1.263799191E1
3.557183214E1,9.675079346E0,-4.107130432E1,-7.351648331E0
3.562183214E1,3.738904953E1,-3.977619171E1,-2.028934097E1
3.567183214E1,1.817169380E1,-7.441379547E0,1.758515358E1
3.572183214E1,-1.936391711E0,5.168197632E0,6.445366859E0
3.577183214E1,7.441379547E0,-1.875075698E0,-2.988037169E-1
3.582183214E1,7.166204929E0,3.696013689E0,8.183453560E0
3.587183214E1,-1.861915112E0,1.703988791E0,5.947360516E0
3.592183214E1,5.260321617E0,-4.101597309E0,5.129613280E-1
3.597183214E1,2.848087120E1,-3.871796417E1,2.161915207E1
3.602183214E1,1.266281700E1,-5.228526688E1,-6.161518395E-2
3.607183214E1,1.824527234E-1,-5.308177948E0,-2.869891644E0
3.612183214E1,1.920240223E-1,3.336791277E0,-3.547658682E0
3.617183214E1,-4.569693089E0,2.472383976E0,-9.891928673E0
3.622183214E1,-6.848856449E0,4.234697819E0,-5.012664318E0
3.627183214E1,4.814957142E0,-6.281159073E-2,3.973311996E1
3.632183214E1,-1.392921925E0,-3.546163082E0,-1.257577896E1
3.637183214E1,-3.073580742E0,-1.131745243E1,-6.619145870E0
3.642183214E1,1.023529911E1,-4.324039841E1,-5.862714767E0
3.647183214E1,3.194747162E1,-3.595754242E1,-1.065075302E1
3.652183214E1,1.527727509E1,-6.177370548E0,2.753839731E0
3.657183214E1,-3.068794966E0,4.629513741E0,9.847362518E0
3.662183214E1,1.061127090E1,-4.616353035E0,1.128215909E0
3.667183214E1,4.764708042E0,3.413361549E0,6.098407745E0
3.672183214E1,-3.111865759E0,1.713560104E0,5.253142834E0
3.677183214E1,7.051050186E0,-4.616353035E0,3.403790295E-1
3.682183214E1,3.054198837E1,-5.077450180E1,2.553590393E1
3.687183214E1,7.707281590E0,-3.723351669E1,1.140179992E0
3.692183214E1,2.890230656E0,3.969094455E-1,-2.376671076E0
3.697183214E1,-6.074778438E-1,2.479562521E0,-3.712763548E0
3.702183214E1,-4.100400925E0,4.028615952E0,-1.747149277E1
3.707183214E1,-4.222733974E0,4.320839405E0,-4.876273632E0
3.712183214E1,5.147858620E0,-6.902695179E0,3.006312370E1
3.717183214E1,-4.902295470E-1,7.175477147E-1,-7.667799950E0
3.722183214E1,-2.633002281E0,-1.396062469E1,-5.395814896E0
3.727183214E1,1.301007557E1,-4.188307190E1,-6.180960178E0
3.732183214E1,2.929472923E1,-3.511975861E1,-2.101017952E1
3.737183214E1,9.813862801E0,-1.241874981E1,-2.228316069E0
3.742183214E1,-6.146563292E-1,6.312565327E0,1.213609695E1
3.747183214E1,1.206670570E1,-4.657031059E0,6.326025128E-1
3.752183214E1,1.336391449E0,5.955137610E-1,-3.961616993E0
3.757183214E1,-2.386242390E0,8.614161611E-1,4.977968216E0
3.762183214E1,3.950849295E0,-1.901396751E0,-3.227319419E-1
3.767183214E1,2.816950417E1,-5.008267593E1,2.096561241E1
3.772183214E1,5.190929413E0,-4.483731079E1,7.402794957E-1
3.777183214E1,4.640281200E0,-5.629115105E0,-4.639084816E0
3.782183214E1,2.583650351E0,4.356731892E0,-8.773882866E0
3.787183214E1,-5.060520649E0,8.201698303E0,-1.297059441E1
3.792183214E1,-5.498706341E0,4.105186462E0,-1.215434265E1
3.797183214E1,4.345963955E0,-3.828815222E0,4.452594376E1
3.802183214E1,-2.616252422E0,-6.165406704E0,-1.073450184E1
3.807183214E1,-3.324826956E0,-9.045467377E0,-9.259924889E0
3.812183214E1,7.470093250E0,-3.970919037E1,-7.940581799E0
3.817183214E1,4.615156555E1,-4.992474747E1,-1.441675663E1
3.822183214E1,1.533470345E1,-6.534200668E0,1.877976990E1
3.827183214E1,-6.097211361E0,4.406980991E0,7.759923935E0
3.832183214E1,1.083141041E1,5.667998791E-1,2.341975212E0
3.837183214E1,8.669495583E0,4.605585575E0,1.234935760E1
3.842183214E1,-4.540979385E0,-1.243071318E0,4.463212490E0
3.847183214E1,2.217548370E0,-4.927719116E0,1.400997639E0
3.852183214E1,2.740589523E1,-3.667329788E1,7.484450340E0
3.857183214E1,1.185613728E1,-4.867749023E1,-1.555633783E0
3.862183214E1,2.991028363E-3,-1.223689461E1,-3.224328518E0
3.867183214E1,1.140179992E0,4.912165642E0,-1.407278776E0
3.872183214E1,-3.703192234E0,2.034497499E0,-1.187169075E1
3.877183214E1,-5.865107536E0,2.740679264E0,-4.473979950E0
3.882183214E1,-1.910070658E0,3.873082638E0,1.671685696E0
3.887183214E1,-9.595218897E-1,-7.465307713E0,-2.917748213E0
3.892183214E1,-1.330708504E0,-5.267499924E0,-2.625823736E0
3.897183214E1,3.548556089E0,-3.439413452E1,-1.530509186E1
3.902183214E1,2.572045135E1,-3.633112335E1,-1.225125194E0
3.907183214E1,2.540669250E1,-8.025527000E0,3.377648544E1
3.912183214E1,-1.491027594E0,-4.439284325E0,4.463212490E0
3.917183214E1,1.015872860E1,3.921238184E-1,8.384749413E0
3.922183214E1,5.423332691E0,-1.369891018E-1,9.556335211E-1
3.927183214E1,-2.443969250E0,1.270588875E0,4.302594185E0
3.932183214E1,2.737090111E0,-8.434699774E-1,6.281159073E-2
3.937183214E1,2.138226318E1,-3.254119110E1,1.603609848E1
3.942183214E1,1.604566956E1,-5.324538803E1,5.490331650E0
3.947183214E1,2.442473650E0,-6.771090031E0,-4.986343384E0
3.952183214E1,6.759724021E-2,4.416552544E0,-4.074079514E0
3.957183214E1,-5.053342342E0,1.349551916E0,-1.023888779E1
3.962183214E1,-5.199304581E0,5.673382282E0,-7.203293324E0
3.967183214E1,2.258226395E0,-3.263810158E0,4.442544556E1
3.972183214E1,-5.285146832E-1,-3.938885212E0,-1.397857094E1
3.977183214E1,-1.677667737E0,-7.175776005E0,-8.390731812E0
3.982183214E1,9.229715347E0,-4.318058014E1,-1.012642574E1
3.987183214E1,3.240958786E1,-4.338157654E1,-1.522343636E1
3.992183214E1,2.032642937E1,-6.165406704E0,-2.968296528E0
3.997183214E1,-6.578467846E0,4.402195454E0,1.194467163E1
4.002183214E1,1.192552853E1,-1.853540182E0,3.910171270E0
4.007183214E1,4.999503613E0,2.924926519E0,1.341177106E0
4.012183214E1,-2.893819809E0,4.965107143E-2,6.804589272E0
4.017183214E1,5.336891651E0,-5.356333256E0,8.575277925E-1
4.022183214E1,3.083181953E1,-4.773890686E1,1.895713806E1
4.027183214E1,7.319345474E0,-4.245764542E1,3.978067636E-1
4.032183214E1,2.823231697E0,-3.783351660E0,-3.894618034E0
4.037183214E1,6.014958024E-1,4.351946354E0,-6.856035233E0
4.042183214E1,-5.067699432E0,7.485646725E0,-1.470150185E1
4.047183214E1,-5.661418438E0,5.438885689E0,-1.338963699E1
4.052183214E1,2.267797709E0,-7.724031448E0,3.552653503E1
4.057183214E1,-1.727917075E0,4.184448719E-1,-9.820143700E0
4.062183214E1,-3.779762506E0,-2.445165634E1,-1.018863869E1
4.067183214E1,1.397498131E1,-3.590250778E1,-4.703989983E0
4.072183214E1,3.795166397E1,-4.108566284E1,-1.530239964E1
4.077183214E1,7.168597698E0,-1.202363491E1,3.308077157E-1
4.082183214E1,2.341975212E0,9.736096382E0,1.459262848E1
4.087183214E1,1.041236782E1,-6.160621166E0,-2.333002165E-2
4.092183214E1,3.026621580E0,2.896212816E0,1.017547798E1
4.097183214E1,-4.737489700E0,-6.041877344E-2,3.632304668E0
4.102183214E1,8.578568459E0,-8.370392799E0,-2.501396894E0
4.107183214E1,2.781985283E1,-6.142824554E1,1.625653839E1
4.112183214E1,4.930111885E0,-3.145664406E1,-2.637787819E0
4.117183214E1,6.407081604E0,5.594419479E0,-1.275673628E0
4.122183214E1,-1.380957723E0,1.481456280E0,-1.015753174E1
4.127183214E1,-6.178566933E0,6.034997940E0,-1.268345547E1
4.132183214E1,-6.659823418E0,4.354339123E0,-7.399505138E0
4.137183214E1,-3.394817114E-1,-9.576973915E0,1.279950714E1
4.142183214E1,-1.016949654E0,1.286142170E-1,-8.158627510E0
4.147183214E1,-6.896713257E0,-2.419054031E1,-1.571905041E1
4.152183214E1,1.697468376E1,-3.597190094E1,-3.542873144E0
4.157183214E1,3.690330887E1,-3.715216064E1,-1.799582100E1
4.162183214E1,5.801398277E0,-9.342476845E0,-3.851547241E0
4.167183214E1,3.428914785E0,1.074646568E1,1.286411381E1
4.172183214E1,9.991230965E0,-5.123930454E0,-2.916252613E-1
4.177183214E1,2.753839731E0,2.130210400E0,8.264809608E0
4.182183214E1,-2.391027927E0,-3.143570721E-1,1.542473316E0
4.187183214E1,1.153280735E1,-1.650778389E1,5.887540340E0
4.192183214E1,1.972074699E1,-7.003044128E1,-7.728816867E-1
4.197183214E1,2.126621008E0,-2.471008110E1,-3.798905134E0
4.202183214E1,4.408177376E0,5.893821239E0,-4.710869491E-1
4.207183214E1,-3.092723370E0,2.948854923E0,-8.235198021E0
4.212183214E1,-5.220839977E0,7.224828720E0,-9.477671623E0
4.217183214E1,-5.877071381E0,4.473979950E0,-6.556932449E0
4.222183214E1,4.384249210E0,-1.313210964E1,3.284747314E1
4.227183214E1,-1.660917997E0,6.936194897E-1,-4.677669048E0
4.232183214E1,-3.827618837E0,-3.598386383E1,-1.955683899E1
4.237183214E1,1.348176098E1,-3.132264709E1,-4.131806374E0
4.242183214E1,3.857678604E1,-3.948875046E1,-1.133061314E1
4.247183214E1,1.132463169E1,-5.511867046E0,-8.590233326E-1
4.252183214E1,4.985146999E0,1.207298660E1,8.434998512E0
4.257183214E1,7.625626564E0,-2.093121529E0,-1.548455358E0
4.262183214E1,1.034895778E0,3.969094455E-1,4.089632988E0
4.267183214E1,1.556830287E0,-3.452843189E0,1.805683732E0
4.272183214E1,2.305095863E1,-3.197379303E1,1.013958549E1
4.277183214E1,1.389841080E1,-5.716453171E1,-3.540480137E0
4.282183214E1,4.052843451E-1,-1.020897770E1,-6.202495575E0
4.287183214E1,3.917349815E0,5.079663277E0,-4.780560493E0
4.292183214E1,-2.374278307E0,3.913760424E0,-1.476640797E1
4.297183214E1,-6.073283195E0,1.974676847E0,-7.926225185E0
4.302183214E1,-1.854437590E-2,1.366301775E0,3.639483213E0
4.307183214E1,2.796910524E0,-8.815756798E0,6.632306099E0
4.312183214E1,-5.003093243E0,-4.339981973E-1,-3.923331738E0
4.317183214E1,-2.077568293E0,-4.271846390E1,-2.182403755E1
4.322183214E1,2.233520508E1,-3.865814209E1,4.534996986E0
4.327183214E1,3.399184036E1,-1.378594875E1,7.825157928E1
4.332183214E1,-4.665405750E0,-3.409772158E0,5.533402443E0
4.337183214E1,1.241157150E1,6.013462543E0,8.554639816E0
4.342183214E1,6.730412006E0,-2.709871531E-1,-3.241078377E0
4.347183214E1,-1.550848126E0,1.083948612E0,6.091228962E0
4.352183214E1,3.515056372E0,-3.361915827E0,1.974078640E-2
4.357183214E1,2.785574532E1,-4.386522293E1,1.726930046E1
4.362183214E1,9.004789352E0,-4.817230606E1,-2.783750057E0
4.367183214E1,-1.021735311E0,-1.192792225E1,-5.316852093E0
4.372183214E1,-2.916252613E-1,3.640679598E0,-5.929713726E0
4.377183214E1,-5.553741455E0,5.747560024E0,-1.720589066E1
4.382183214E1,-5.841179371E0,3.868296862E0,-6.808178425E0
4.387183214E1,4.329214573E0,-6.936194420E0,4.212953186E1
4.392183214E1,1.635793328E0,-1.721935034E0,-7.071688175E0
4.397183214E1,-2.676073074E0,-1.165992546E1,-9.276674271E0
4.402183214E1,7.391129971E0,-4.102105713E1,-5.388636589E0
4.407183214E1,3.522982788E1,-4.126781464E1,-1.708864212E1
4.412183214E1,2.042453575E1,-4.997110844E0,1.041236782E1
4.417183214E1,-4.873880386E0,5.546562672E0,8.854042053E0
4.422183214E1,1.009890842E1,-4.903790951E0,-7.728816867E-1
4.427183214E1,5.162215710E0,3.140579700E0,9.751649857E0
4.432183214E1,-3.547359467E0,-8.937192559E-1,4.025026798E0
4.437183214E1,1.157827091E1,-1.234935760E1,-4.299304008E0
4.442183214E1,2.608415985E1,-6.900093079E1,1.255035496E1
4.447183214E1,3.785744429E0,-2.913919640E1,-4.826024055E0
4.452183214E1,3.881457329E0,6.973283291E0,-2.314457655E0
4.457183214E1,-1.471885085E0,4.213162422E0,-1.053589725E1
4.462183214E1,-7.663014412E0,9.082556725E0,-1.154387379E1
4.467183214E1,-5.213661671E0,3.815654755E0,-6.317350864E0
4.472183214E1,2.753839731E0,-1.736740494E1,2.573002243E1
4.477183214E1,-3.323032558E-1,-3.062513828E0,-3.686442375E0
4.482183214E1,-8.192127228E0,-3.287409210E1,-2.076102638E1
4.487183214E1,1.370429325E1,-2.878236580E1,-4.040580273E0
4.492183214E1,4.928796005E1,-4.571577454E1,-1.534576988E1
4.497183214E1,1.087448120E1,-7.355237484E0,2.392224550E0
4.502183214E1,-1.645065546E-1,1.236491108E1,1.345065403E1
4.507183214E1,8.245965958E0,-2.389831543E0,-6.505486369E-1
4.512183214E1,1.628614902E0,1.067198873E0,5.636293888E0
4.517183214E1,-4.088735580E-1,-4.575675011E0,9.484550953E-1
4.522183214E1,2.161676025E1,-2.634527588E1,4.668995380E0
4.527183214E1,1.860987854E1,-6.637450409E1,-3.538087368E0
4.532183214E1,1.262213945E0,-1.491835213E1,-3.597908020E0
4.537183214E1,2.184048891E0,5.249553680E0,-4.617549419E0
4.542183214E1,-4.759025097E0,4.301696777E0,-1.923859406E1
4.547183214E1,-7.404290676E0,4.488337040E0,-7.306184769E0
4.552183214E1,-3.573979616E0,1.136590719E0,1.078116131E1
4.557183214E1,-1.756630898E0,-6.756732941E0,-1.327717495E1
4.562183214E1,-1.941177368E0,-3.404986620E0,-4.579264164E0
4.567183214E1,2.444866419E0,-4.330500412E1,-8.263912201E0
4.572183214E1,4.076472473E1,-4.416223526E1,-1.032293606E1
4.577183214E1,2.145165443E1,-5.324927807E0,1.609352684E1
4.582183214E1,-5.072484970E0,3.717549086E0,1.273460197E1
4.587183214E1,1.165035439E1,-3.366701365E0,2.470589429E-1
4.592183214E1,4.235595226E0,2.843570709E0,1.125284672E1
4.597183214E1,-6.863213539E0,-8.650053740E-1,1.879861236E0
4.602183214E1,4.858027935E0,-3.986741543E0,1.259821177E0
4.607183214E1,3.242873001E1,-4.002265167E1,1.401326656E1
4.612183214E1,1.239482117E1,-4.935734940E1,2.839981318E0
4.617183214E1,3.919742584E0,-1.899003863E0,-1.469492197E0
4.622183214E1,-1.775773525E0,4.328018188E0,-7.174579620E0
4.627183214E1,-6.944868565E0,6.398706913E0,-1.558265972E1
4.632183214E1,-6.101996899E0,4.380660057E0,-4.615156651E0
4.637183214E1,1.456032634E0,-1.061366367E1,2.037428665E1
4.642183214E1,-2.671287298E0,-1.602293849E0,-9.628418922E0
4.647183214E1,-5.393422127E0,-1.655354691E1,-1.541994762E1
4.652183214E1,7.702496052E0,-3.317559052E1,-7.009474754E0
4.657183214E1,4.223481369E1,-4.866791916E1,-3.093829918E1
4.662183214E1,1.800898170E1,-8.968897820E0,2.176302147E1
4.667183214E1,-3.047259569E0,8.180163383E0,1.094865894E1
4.672183214E1,8.451748848E0,2.252244234E0,1.561316848E-1
4.677183214E1,3.555734396E0,2.053640127E0,5.583651543E0
4.682183214E1,-4.109972000E0,-3.649054468E-2,3.235096216E0
4.687183214E1,1.196620655E1,-1.065434170E1,-3.837190151E0
4.692183214E1,2.926123047E1,-5.053043365E1,4.293023109E0
4.697183214E1,8.480463028E0,-3.812663651E1,-1.031306505E0
4.702183214E1,1.875075698E0,-2.057229280E0,-2.084746838E0
4.707183214E1,-2.633002281E0,2.604288340E0,-7.584051132E0
4.712183214E1,-5.682953835E0,8.005187988E0,-1.448136234E1
4.717183214E1,-5.718846321E0,4.143471718E0,-5.328815937E0
4.722183214E1,9.750752449E-1,-1.148255730E1,2.151386833E1
4.727183214E1,-1.388136268E0,-1.290927768E0,-8.543871880E0
4.732183214E1,-4.893023014E0,-1.594995785E1,-1.549651718E1
4.737183214E1,1.188006496E1,-3.776263046E1,-2.956033230E0
4.742183214E1,3.994607925E1,-4.558656311E1,-8.318946838E0
4.747183214E1,1.367079353E1,-5.229214668E0,2.253440619E0
4.752183214E1,-2.644966364E0,3.595216036E0,7.388737202E0
4.757183214E1,1.065912724E1,-2.952444077E0,2.689233541E0
4.762183214E1,4.149453640E0,3.329612732E0,4.221238136E0
4.767183214E1,-3.343969584E0,-6.999006122E-2,4.865206718E0
4.772183214E1,1.040997505E1,-9.440582275E0,-6.322136402E0
4.777183214E1,3.345076370E1,-5.084897614E1,8.686244965E0
4.782183214E1,5.128716469E0,-3.712823105E1,-2.656930447E0
4.787183214E1,7.737790346E-1,-1.932503343E0,-2.381456852E0
4.792183214E1,-2.111067772E0,4.605585575E0,-7.399505138E0
4.797183214E1,-8.426624298E0,6.111567974E0,-8.895915985E0
4.802183214E1,-4.275375843E0,1.864308000E0,-3.473181963E0
4.807183214E1,3.888336942E-2,-1.228235817E1,1.098455143E1
4.812183214E1,-2.376671076E0,-2.991028363E-3,-4.778167725E0
4.817183214E1,-4.706383228E0,-1.793959045E1,-1.235055447E1
4.822183214E1,1.450170135E1,-3.572783279E1,-6.300601006E0
4.827183214E1,3.830370712E1,-3.661347580E1,-2.024387741E1
4.832183214E1,1.090080261E1,-1.058495045E1,8.082955360E0
4.837183214E1,-5.452644825E-1,8.081758499E0,8.877969742E0
4.842183214E1,1.036929703E1,-3.993920088E0,6.326025128E-1
4.847183214E1,3.883850336E0,2.388635159E0,7.343273640E0
4.852183214E1,-1.699203134E0,-3.215355575E-1,1.607079506E0
4.857183214E1,1.464287853E1,-1.658226013E1,-1.567597985E0
4.862183214E1,2.635963249E1,-6.444738770E1,3.979563236E0
4.867183214E1,1.707578063E0,-2.523919487E1,-3.550051451E0
4.872183214E1,4.185346127E0,7.612765312E0,-3.538386524E-1
4.877183214E1,-4.117150307E0,1.316052437E0,-8.802596092E0
4.882183214E1,-6.829713821E0,5.876772404E0,-6.463612080E0
4.887183214E1,-3.827618837E0,2.877070189E0,-4.356731892E0
4.892183214E1,5.569294930E0,-1.493031597E1,1.302682590E1
4.897183214E1,-4.983950615E0,2.429313183E0,-3.540480137E0
4.902183214E1,-3.849453330E-1,-4.601996231E1,-1.632473373E1
4.907183214E1,2.653191566E1,-3.590011597E1,-3.513859987E0
4.912183214E1,4.344857407E1,-1.807119560E1,7.825157928E1
4.917183214E1,-8.374879360E-1,-3.821636915E0,-4.907380104E0
4.922183214E1,1.175563812E1,7.001997471E0,8.137989998E0
4.927183214E1,8.370392799E0,9.906286001E-1,2.991028363E-3
4.932183214E1,7.716853172E-2,2.194816589E0,5.439783096E0
4.937183214E1,4.362713814E0,-2.253440619E0,1.776969910E0
4.942183214E1,2.749203682E1,-3.552175140E1,1.832483482E1
4.947183214E1,1.337647724E1,-5.336024475E1,-3.830011845E0
4.952183214E1,7.809575200E-1,-8.741579056E0,-3.092723370E0
4.957183214E1,-5.787639618E-1,4.979164600E0,-6.030212402E0
4.962183214E1,-5.776273727E0,3.616751432E0,-1.764407539E1
4.967183214E1,-6.844070911E0,3.066103220E0,-5.225924492E0
4.972183214E1,5.499902725E0,-1.390319729E1,3.264408112E1
4.977183214E1,-2.623430967E0,-8.889335990E-1,-3.853940010E0
4.982183214E1,-1.238644600E1,-2.529183578E1,-1.764168358E1
4.987183214E1,1.439372540E1,-3.668526077E1,-3.643371582E0
4.992183214E1,4.196681976E1,-4.471288300E1,-1.233141136E1
4.997183214E1,8.748458862E0,-5.147858620E0,-8.590233326E-1
5.002183214E1,5.784648895E0,1.035852909E1,1.187527943E1
5.007183214E1,9.294321060E0,-1.662114382E0,-2.616252422E0
5.012183214E1,1.650150299E0,1.926521301E0,6.531508446E0
5.017183214E1,3.649054468E-2,-6.924230456E-1,1.561615825E0
5.022183214E1,1.798266029E1,-1.901217270E1,-1.335494161E0
5.027183214E1,2.351546478E1,-7.305168152E1,-7.481160164E0
5.032183214E1,1.839183331E0,-2.030728722E1,-5.264209747E0
5.037183214E1,2.176870346E0,6.446563244E0,-2.297708035E0
5.042183214E1,-2.359921217E0,2.635395050E0,-1.247737408E1
5.047183214E1,-6.255137444E0,4.631906509E0,-7.361219883E0
5.052183214E1,6.045765400E0,4.200899124E0,6.695865631E1
5.057183214E1,-2.940180898E-1,-1.201167011E1,9.208179474E0
5.062183214E1,-3.942474365E0,-3.436093330E0,-3.803690672E0
5.067183214E1,5.967101455E-1,-3.903890228E1,-1.718674850E1
5.072183214E1,3.414527893E1,-4.464588165E1,-3.899403572E0
5.077183214E1,3.077199745E1,-8.128418922E0,5.189733124E1
5.082183214E1,-5.783452511E0,-1.728814393E-1,5.461617470E0
5.087183214E1,1.312253857E1,2.594717026E0,9.797113419E0
5.092183214E1,6.924230576E0,8.276175261E-1,-2.367099762E0
5.097183214E1,-2.604288340E0,-3.717848063E-1,6.009573936E0
5.102183214E1,2.145763636E0,-4.360321045E0,1.183250785E0
5.107183214E1,2.577309227E1,-3.079831886E1,5.693721294E0
5.112183214E1,1.657956886E1,-5.275456238E1,2.071287155E0
5.117183214E1,4.292125702E-1,-1.120499039E1,-4.112663746E0
5.122183214E1,-8.793623000E-2,5.345565796E0,-3.870689631E0
5.127183214E1,-6.473183632E0,3.434896946E0,-1.409342670E1
5.132183214E1,-6.564110756E0,1.412064433E0,-5.117948532E0
5.137183214E1,3.809672832E0,-3.529413462E0,3.237578583E1
5.142183214E1,-4.232304990E-1,-5.722435474E0,-1.045932674E1
5.147183214E1,-5.000699997E0,-1.153071308E1,-6.032605171E0
5.152183214E1,8.533104897E0,-3.338376236E1,-9.264710426E0
5.157183214E1,4.155734634E1,-4.365465546E1,-1.931037712E1
5.162183214E1,8.092526436E0,-1.414965725E1,2.082204437E1
5.167183214E1,-4.447659016E0,5.328516960E0,9.102895737E0
5.172183214E1,8.887541771E0,-2.009372711E0,2.095514536E0
5.177183214E1,8.356036186E0,4.933701038E0,1.073809052E1
5.182183214E1,-2.053640127E0,1.531705618E0,6.766304016E0
5.187183214E1,7.388737202E0,-4.561318398E0,5.057829022E-1
5.192183214E1,3.394876862E1,-5.640092468E1,2.427428818E1
5.197183214E1,6.512365818E0,-4.562484741E1,8.240283132E-1
5.202183214E1,3.381058455E0,5.069792867E-1,-2.395813704E0
5.207183214E1,-1.526919961E0,2.187638044E0,-9.606884003E0
5.212183214E1,-5.359922886E0,5.977570057E0,-1.783550262E1
5.217183214E1,-6.221638203E0,6.521039963E0,-7.665407181E0
5.222183214E1,9.043074608E0,-2.199751854E1,3.241197968E1
5.227183214E1,-6.348457813E0,1.558026671E0,-9.884750366E0
5.232183214E1,-4.371088982E0,-2.011586189E1,-1.201316643E1
5.237183214E1,2.000309944E1,-4.258207321E1,-6.511468410E0
5.242183214E1,4.288356781E1,-3.869643021E1,-1.568555069E1
5.247183214E1,3.103191853E0,-7.072884560E0,-1.270499134E1
5.252183214E1,7.960920811E0,1.126122189E1,9.442975044E0
5.257183214E1,9.919445992E0,-3.728316784E0,-1.371386528E0
5.262183214E1,1.745863199E0,2.783750057E0,5.825326920E0
5.267183214E1,1.721935034E0,-8.195417374E-2,1.982752681E0
5.272183214E1,2.019721794E1,-2.595016098E1,6.984051228E0
5.277183214E1,1.704646873E1,-6.437320709E1,-7.524230957E0
5.282183214E1,8.195417374E-2,-1.425494194E1,-4.682454586E0
5.287183214E1,2.179263115E0,5.000699997E0,-2.719143867E0
5.292183214E1,-2.331207514E0,3.942474365E0,-1.633430481E1
5.297183214E1,-7.538587570E0,3.377469063E0,-9.470493317E0
5.302183214E1,2.598007202E0,-1.393819153E-1,4.606542587E1
5.307183214E1,-1.596311808E0,-6.847660065E0,-1.300170135E1
5.312183214E1,-2.206780672E0,-7.048956394E0,-9.405886650E0
5.317183214E1,2.480758905E0,-3.287887955E1,-1.317667580E1
5.322183214E1,3.530639648E1,-4.351587296E1,-2.934497833E0
5.327183214E1,2.561965370E1,-6.548557281E0,2.563161659E1
5.332183214E1,-5.297709465E0,5.247160912E0,1.632832336E1
5.337183214E1,1.052034378E1,-2.959622622E0,-8.087740541E-1
5.342183214E1,3.675375462E0,3.250649452E0,1.158066368E1
5.347183214E1,-4.004687786E0,-4.866403043E-1,3.098406315E0
5.352183214E1,1.060648537E1,-9.014361382E0,-2.916252613E-1
5.357183214E1,4.014229202E1,-5.296512985E1,1.365882969E1
5.362183214E1,5.552545071E0,-4.628795624E1,-2.812463999E0
5.367183214E1,-5.739783049E-1,9.451649189E-1,-7.872386575E-1
5.372183214E1,-4.268197536E0,6.762714863E0,-7.981259823E0
5.377183214E1,-7.495516777E0,6.913462639E0,-1.092144108E1
5.382183214E1,-4.790132046E0,2.700001240E0,-6.482754707E0
5.387183214E1,3.302095175E0,-1.686461449E1,3.017110062E1
5.392183214E1,-3.265006542E0,-1.506580949E0,-7.538587570E0
5.397183214E1,-6.176174164E0,-2.856940460E1,-1.822343826E1
5.402183214E1,1.470030594E1,-3.102803040E1,-6.925725937E0
5.407183214E1,4.812923431E1,-4.564638138E1,-1.811576080E1
5.412183214E1,7.915457249E0,-4.288536549E0,-7.490731239E0
5.417183214E1,6.112764359E0,1.216152096E1,1.044826031E1
5.422183214E1,9.699007034E0,-2.591127872E0,-3.475574970E0
5.427183214E1,1.417747378E0,1.210768223E0,4.542175770E0
5.432183214E1,1.855933070E0,-4.513461590E0,1.085145116E0
5.437183214E1,2.389592361E1,-3.726462173E1,1.234457207E1
5.442183214E1,1.223689461E1,-6.265426636E1,-2.424826622E0
5.447183214E1,-7.585247755E-1,-1.327597809E1,-6.961618423E0
5.452183214E1,2.196012974E0,7.950153351E0,-2.697608471E0
5.457183214E1,-2.137388945E0,7.696514130E0,-1.459861088E1
5.462183214E1,-6.755536556E0,2.640180588E0,-7.926225185E0
5.467183214E1,2.353939295E0,-1.705185294E0,3.149971581E1
5.472183214E1,3.948456526E0,-7.843672752E0,9.412766099E-1
5.477183214E1,-2.994318485E0,-9.894321561E-1,-5.811567903E-1
5.482183214E1,2.751446962E0,-5.572794342E1,-1.393550014E1
5.487183214E1,2.800918579E1,-3.128196907E1,-7.232007504E0
5.492183214E1,1.995285034E1,-1.091037369E1,5.861218929E0
5.497183214E1,-6.947261333E0,8.276175261E-1,8.988039970E0
5.502183214E1,8.152346611E0,-3.311068416E-1,1.647757530E0
5.507183214E1,6.486044884E0,4.026223183E0,6.098407745E0
5.512183214E1,-7.704889178E-1,1.337587833E0,8.525926590E0
5.517183214E1,9.407083511E0,-1.294307709E1,-5.728417397E0
5.522183214E1,1.816690826E1,-7.835716248E1,5.727221012E0
5.527183214E1,1.906182289E0,-2.279971123E1,-1.936391711E0
5.532183214E1,7.482057095E0,4.179363728E0,-3.985545158E0
5.537183214E1,2.191227436E0,6.722036839E0,-1.063878822E1
5.542183214E1,-1.957927108E0,7.045367241E0,-1.530239964E1
5.547183214E1,-6.984050870E-1,-2.818445921E0,-6.026921868E-1
5.552183214E1,5.201398134E-1,-8.437391281E0,9.940682411E0
5.557183214E1,-8.625527382E0,-6.225227356E0,-2.163979149E1
5.562183214E1,-1.935195327E-1,-2.234716797E1,-1.502243996E1
5.567183214E1,9.291928291E0,-2.757817841E1,6.141478539E0
5.572183214E1,2.683849716E1,-3.752334595E1,-1.803889084E1
5.577183214E1,2.042573214E0,-5.128716469E0,1.087687397E1
5.582183214E1,-6.792625189E-1,1.009771109E0,1.042433167E1
5.587183214E1,4.013062477E0,-8.383852243E-1,1.044467092E0
5.592183214E1,9.702895880E-1,4.040580273E0,9.317052960E-1
5.597183214E1,5.825326920E0,-2.761018276E0,1.403390527E0
5.602183214E1,2.281646156E1,-5.001089096E1,1.726690674E1
5.607183214E1,6.019444466E0,-3.573979568E1,-7.441678643E-1
5.612183214E1,3.713660717E0,-1.410868049E0,-1.459920883E0
5.617183214E1,-7.848458290E-1,2.199602127E0,-5.209175110E0
5.622183214E1,-1.770987868E0,9.570991516E0,-1.886501312E1
5.627183214E1,-2.015354872E0,1.017667484E1,-7.260721207E0
5.632183214E1,6.790232658E0,-1.452084446E1,4.749453735E1
5.637183214E1,-6.840481758E-1,-3.268595695E0,-1.021017456E1
5.642183214E1,4.962115884E-1,-3.232344437E1,-1.359302711E1
5.647183214E1,1.735065651E1,-3.127957535E1,4.603192508E-1
5.652183214E1,1.976142502E1,-3.487538910E1,7.825157928E1
5.657183214E1,-4.462016106E0,-7.355237484E0,2.136192322E0
5.662183214E1,3.701696634E0,9.032307625E0,1.489891052E1
5.667183214E1,6.572485447E0,-2.670090914E0,1.513460279E-1
5.672183214E1,-1.837986946E0,1.004985452E0,8.269894600E0
5.677183214E1,7.838887215E0,-5.349154949E0,1.446461320E0
5.682183214E1,2.420011139E1,-4.292424774E1,9.914361954E0
5.687183214E1,1.219143152E0,-4.376712036E1,5.368895531E-1
5.692183214E1,4.896612644E0,-4.264608383E0,-4.869094849E0
5.697183214E1,3.251846075E0,6.247959137E0,-4.545764923E0
5.702183214E1,2.279163599E-1,9.032307625E0,-1.537926960E1
5.707183214E1,-3.296113253E0,7.571788311E0,-1.338485146E1
5.712183214E1,2.255833626E0,-1.417119312E1,6.873981476E1
5.717183214E1,-4.916951656E0,-5.827719688E0,-1.951855278E1
5.722183214E1,-1.529312730E0,-1.738894081E1,-1.877647972E1
5.727183214E1,1.662264061E1,-3.570151138E1,-4.631906509E0
5.732183214E1,3.910350800E1,-4.864398956E1,-5.149055004E0
5.737183214E1,6.163013935E0,-1.231825066E1,-8.733802438E-1
5.742183214E1,9.463613629E-1,8.096115112E0,1.077159023E1
5.747183214E1,9.301499367E0,-3.412165165E0,-5.141577721E-1
5.752183214E1,2.576471806E0,3.169293642E0,1.781755567E0
5.757183214E1,-2.557329237E-1,1.751845241E0,3.064906597E0
5.762183214E1,1.250489140E1,-1.535145283E1,7.118049145E0
5.767183214E1,1.829851341E1,-7.835716248E1,6.505187511E0
5.772183214E1,2.887837887E0,-2.402782822E1,-4.928915501E0
5.777183214E1,3.833600998E0,6.142674923E0,-2.525325298E0
5.782183214E1,-1.739881158E0,3.214757204E0,-1.094297600E1
5.787183214E1,-3.449253798E0,8.512765884E0,-1.480708599E1
5.792183214E1,-1.682453394E0,4.584050179E0,1.441675663E0
5.797183214E1,-3.746263027E0,-1.272054386E1,4.374678135E0
5.802183214E1,-3.028116941E0,-3.764209032E0,-1.287727451E1
5.807183214E1,1.080269718E1,-3.655844116E1,-1.770150375E1
5.812183214E1,3.180390358E1,-4.269932175E1,-1.675574112E1
5.817183214E1,1.677607918E1,-1.736740494E1,1.194467163E1
5.822183214E1,-3.669692516E0,2.324028969E0,1.031665516E1
5.827183214E1,1.001276588E1,3.343969584E0,5.171787262E0
5.832183214E1,5.911468506E0,2.290529490E0,7.838887215E0
5.837183214E1,-4.615156651E0,1.136590727E-2,2.619542599E0
5.842183214E1,5.025825024E0,-3.895814419E0,1.113858938E0
5.847183214E1,2.828675270E1,-4.392265320E1,1.488933849E1
5.852183214E1,8.851649284E0,-4.447808456E1,2.399402857E0
5.857183214E1,2.854338408E0,-3.199203968E0,-2.118246317E0
5.862183214E1,-2.151745796E0,3.348755360E0,-5.132305622E0
5.867183214E1,-5.391029358E0,4.696512699E0,-1.674856186E1
5.872183214E1,-5.364708424E0,5.654240131E0,-8.659027100E0
5.877183214E1,-8.075776696E-2,-8.480463028E0,2.034557343E1
5.882183214E1,-1.636989832E0,-1.477867126E0,-1.034447098E1
5.887183214E1,-7.291827679E0,-3.775066376E1,-1.505833244E1
5.892183214E1,1.075005436E1,-2.936412048E1,-2.166102648E0
5.897183214E1,5.627380371E1,-3.539971542E1,5.214170074E1
5.902183214E1,4.958825588E0,-6.086443424E0,1.044586754E1
5.907183214E1,-1.818844318E0,8.326125145E0,2.031446648E1
5.912183214E1,9.574581146E0,-2.229512453E0,-1.648056656E-1
5.917183214E1,-9.523434043E-1,2.091925144E0,4.956432819E0
5.922183214E1,1.631007791E0,-2.160120726E0,2.124228239E0
5.927183214E1,2.294328117E1,-2.693660355E1,5.478367329E0
5.932183214E1,1.603131294E1,-5.352534866E1,3.812065601E0
5.937183214E1,7.977072597E-1,-1.658704567E1,-4.617549419E0
5.942183214E1,1.058824062E0,4.457230568E0,-1.263410330E0
5.947183214E1,-3.013760090E0,4.809274197E0,-9.032307625E0
5.952183214E1,-3.212364435E0,7.761120319E0,-8.608778000E0
5.957183214E1,-2.683251381E0,2.714358091E0,-3.265006542E0
5.962183214E1,-2.575574398E0,-6.402296066E0,-1.275045490E1
5.967183214E1,-1.462313771E0,-5.602794170E0,-6.231209278E0
5.972183214E1,2.318047047E0,-3.762863159E1,-6.291029930E0
5.977183214E1,2.721177673E1,-3.554089355E1,-5.283352375E0
5.982183214E1,2.803789902E1,-5.870790482E0,7.776673794E0
5.987183214E1,7.956135273E-2,-2.665305376E0,-9.930213690E-1
5.992183214E1,8.214560509E0,2.070389748E0,1.069262695E1
5.997183214E1,5.178965569E0,1.308874011E0,-5.553741455E0
6.002183214E1,-2.932105064E0,1.861915112E0,6.488437653E0
6.007183214E1,3.474378586E0,-1.841576099E0,2.198405743E0
6.012183214E1,2.734128952E1,-3.468875122E1,1.196859932E1
6.017183214E1,1.358465195E1,-5.127729034E1,3.620340586E0
6.022183214E1,2.739482880E0,-6.399903297E0,-2.137388945E0
6.027183214E1,-4.375874400E-1,3.315255880E0,-4.445266247E0
6.032183214E1,-3.990330935E0,4.955236435E0,-1.956401634E1
6.037183214E1,-6.542575359E0,5.496313572E0,-8.637491226E0
6.042183214E1,2.720340252E0,-6.651448727E0,3.013012314E1
6.047183214E1,-3.217149973E0,-1.573580027E0,-1.017906761E1
6.052183214E1,-4.646263599E0,-2.831546593E1,-9.219246864E0
6.057183214E1,1.681197166E1,-3.506681442E1,-5.977570057E0
6.062183214E1,3.415245819E1,-3.838745499E1,-2.104367828E1
6.067183214E1,5.624329567E0,-1.028794098E1,-7.776673436E-1
6.072183214E1,-1.869093537E0,1.032981491E1,1.847827339E1
6.077183214E1,7.982456207E0,-3.893421650E0,-4.247260094E-2
6.082183214E1,2.808874607E0,2.953640461E0,6.364010811E0
6.087183214E1,2.997907639E0,3.993022740E-1,1.453639746E0
6.092183214E1,2.183002090E1,-2.398475647E1,5.076074123E0
6.097183214E1,1.544716549E1,-6.677680206E1,-3.528516054E0
6.102183214E1,1.211964726E0,-1.836820412E1,-5.558526993E0
6.107183214E1,6.520441920E-2,5.438885689E0,-1.364207983E0
6.112183214E1,-3.664906979E0,4.100400925E0,-9.116056442E0
6.117183214E1,-4.066901207E0,8.766703606E0,-3.899403572E0
6.122183214E1,9.726824164E-1,-1.374676585E0,3.920161438E1
6.127183214E1,-2.326421738E0,-2.009372711E0,-1.019103146E1
6.132183214E1,-2.362314224E0,-6.505486488E0,-8.072485924E0
6.137183214E1,5.993123531E0,-4.511966324E1,-6.602396011E0
6.142183214E1,2.443221474E1,-3.399213791E1,-2.920140982E0
6.147183214E1,2.707060051E1,-6.689733982E0,2.113311005E1
6.152183214E1,1.247856975E0,-1.499402523E0,2.143370867E0
6.157183214E1,9.892826080E0,4.109972000E0,6.203691959E0
6.162183214E1,4.937290192E0,6.720840335E-1,-5.163412094E0
6.167183214E1,-1.893320918E0,3.480360508E0,7.269095898E0
6.172183214E1,4.108775616E0,-2.851945400E0,3.122334480E0
6.177183214E1,2.117408752E1,-5.014010239E1,9.801898956E0
6.182183214E1,9.866504669E0,-4.973093033E1,1.590329766E0
6.187183214E1,1.896311939E-1,-4.101597309E0,-4.790132046E0
6.192183214E1,1.853540182E0,5.697310925E0,-2.982653379E0
6.197183214E1,-2.534896374E0,3.873082638E0,-1.764646912E1
6.202183214E1,-4.914558411E0,6.341279030E0,-1.181186962E1
6.207183214E1,1.080030441E1,-7.996813297E0,7.825157928E1
6.212183214E1,-4.680061817E0,-4.101597309E0,-1.421097374E1
6.217183214E1,-7.385148048E0,-2.330250359E1,-9.710074425E0
6.222183214E1,1.867927170E1,-3.554089355E1,-4.095914364E0
6.227183214E1,3.748745346E1,-4.183282089E1,-1.619791412E1
6.232183214E1,3.780958891E0,-1.148016453E1,-9.082556725E0
6.237183214E1,3.523431420E-1,1.175683498E1,2.163111687E1
6.242183214E1,8.358428955E0,-3.713959932E0,-5.261218548E-1
6.247183214E1,1.887039781E0,4.167399883E0,8.142775536E0
6.252183214E1,-4.639084935E-1,6.146563292E-1,2.746661186E0
6.257183214E1,1.280429268E1,-1.569871140E1,1.810469389E0
6.262183214E1,2.296720886E1,-6.641279602E1,1.308664608E1
6.267183214E1,3.407379389E0,-2.531576538E1,-5.637490273E0
6.272183214E1,1.719542146E0,5.881557941E0,-8.709874153E-1
6.277183214E1,-3.142972469E0,2.314457655E0,-8.146663666E0
6.282183214E1,-3.396611691E0,9.398708344E0,-1.218784237E1
6.287183214E1,-2.838784933E0,2.304886341E0,-4.392624378E0
6.292183214E1,3.728017569E0,-1.582074547E1,1.239242840E1
6.297183214E1,-3.226721287E0,-8.383852243E-1,-4.136591911E0
6.302183214E1,3.308077157E-1,-4.221567154E1,-1.754327774E1
6.307183214E1,2.675953293E1,-3.258904648E1,-1.484058475E1
6.312183214E1,4.118616104E1,-1.723340797E1,7.825157928E1
6.317183214E1,2.895016193E0,-5.895017624E0,-6.183352947E0
6.322183214E1,8.356036186E0,7.523931503E0,6.850052834E0
6.327183214E1,8.185846329E0,2.542074919E0,-1.069591761E0
6.332183214E1,-8.973084688E-1,3.006282568E0,6.991229534E0
6.337183214E1,3.617947817E0,-2.976372242E0,1.393819213E0
6.342183214E1,2.823410988E1,-3.734627914E1,1.126959610E1
6.347183214E1,1.196381378E1,-5.500261688E1,5.892325878E0
6.352183214E1,2.062014818E0,-5.964409351E0,-2.776571512E0
6.357183214E1,-1.835594058E0,3.614358664E0,-4.703989983E0
6.362183214E1,-2.326421738E0,6.226423740E0,-1.601845169E1
6.367183214E1,-4.904987335E0,6.671787739E0,-5.893821239E0
6.372183214E1,1.460818172E0,-7.259524822E0,2.552154732E1
6.377183214E1,-1.634596944E0,-9.655039310E-1,-9.637990952E0
6.382183214E1,-4.619942188E0,-1.348654652E1,-1.409342670E1
6.387183214E1,1.205234814E1,-3.967568970E1,-6.355935097E0
6.392183214E1,4.056133652E1,-4.362833405E1,-1.409103298E1
6.397183214E1,8.921041489E0,-8.875576973E0,1.117627621E1
6.402183214E1,-4.747061253E0,4.998307228E0,1.367079353E1
6.407183214E1,8.269894600E0,-2.600699186E0,-3.394817114E-1
6.412183214E1,2.097907305E0,1.785344839E0,3.912564039E0
6.417183214E1,5.584250093E-1,-1.561316848E-1,3.512663603E0
6.422183214E1,1.488455296E1,-1.662533188E1,2.480758905E0
6.427183214E1,2.200230408E1,-5.745645905E1,7.281060219E0
6.432183214E1,3.287738323E0,-2.557688141E1,-2.216351986E0
6.437183214E1,1.547258973E0,2.711965322E0,-1.974676847E0
6.442183214E1,-4.454837322E0,1.455135226E0,-6.964011192E0
6.447183214E1,-3.250649452E0,7.813762188E0,-1.140748310E1
6.452183214E1,-3.619443417E0,4.232305050E0,-4.675276279E0
6.457183214E1,5.167001247E0,-1.228235817E1,6.739983082E0
6.462183214E1,-3.583550930E0,-5.964409351E0,-7.267899513E0
6.467183214E1,4.746761918E-1,-3.630001831E1,-1.177119160E1
6.472183214E1,2.497807693E1,-3.808117294E1,-2.213959217E0
6.477183214E1,2.240220451E1,-1.108534908E1,3.043431091E1
6.482183214E1,-3.477967739E0,-5.847460628E-1,-7.513462901E-1
6.487183214E1,1.032622623E1,9.990034252E-2,1.674078584E0
6.492183214E1,6.096014977E0,3.889832258E0,-1.246660590E0
6.497183214E1,-7.438687682E-1,3.061317444E0,6.141478539E0
6.502183214E1,4.142275333E0,-5.933302879E0,6.206383705E-1
6.507183214E1,2.851197815E1,-4.649164581E1,1.711585999E1
6.512183214E1,9.737292290E0,-4.341268158E1,4.525425911E0
6.517183214E1,1.729113460E0,-1.473081470E0,-1.636989832E0
6.522183214E1,-2.190030813E0,1.124626637E0,-7.954938889E0
6.527183214E1,-5.003093243E0,6.008676529E0,-1.543908978E1
6.532183214E1,-6.066104412E0,5.778666496E0,-8.931808472E0
6.537183214E1,5.317749023E0,-1.032622623E1,3.647230148E1
6.542183214E1,-1.127019525E0,-6.062814593E-1,-9.341280937E0
6.547183214E1,-8.745168686E0,-4.124358749E1,-1.901815414E1
6.552183214E1,1.024487019E1,-3.102085114E1,-8.446664214E-1
6.557183214E1,5.743970871E1,-4.313272095E1,1.256231871E-2
6.562183214E1,5.267499924E0,-4.963611603E0,8.851649284E0
6.567183214E1,-1.371386528E0,8.314161301E0,6.151049614E0
6.572183214E1,8.698209763E0,-1.575972795E0,-2.144567251E0
6.577183214E1,3.379862010E-1,1.833201289E0,4.506283283E0
6.582183214E1,-9.308080077E-1,-1.336391449E0,2.272583246E0
6.587183214E1,1.887787437E1,-2.371885490E1,6.656234264E0
6.592183214E1,2.071675873E1,-6.994669342E1,-3.114258766E0
6.597183214E1,6.326025128E-1,-1.907677841E1,-4.818845749E0
6.602183214E1,8.694919348E-1,5.331208706E0,-2.106282234E0
6.607183214E1,-3.430111170E0,5.852844238E0,-1.156301594E1
6.612183214E1,-4.351946354E0,1.032502937E1,-1.342313671E1
6.617183214E1,-1.462313771E0,-7.735995770E0,5.207948685E1
6.622183214E1,-2.295315027E0,-9.629615784E0,-7.105187893E0
6.627183214E1,-3.624228954E0,-3.493520975E0,-4.684847832E0
6.632183214E1,5.171787262E0,-3.931886292E1,-1.064596748E1
6.637183214E1,3.839941788E1,-4.304418564E1,-5.793322563E0
6.642183214E1,1.879173279E1,-9.789935112E0,2.246262312E0
6.647183214E1,-3.961616993E0,3.162115097E0,3.086441994E0
6.652183214E1,1.087208843E1,4.912165642E0,8.135597229E0
6.657183214E1,6.929016113E0,2.580360174E0,7.266703129E0
6.662183214E1,-3.066402197E0,-2.318047047E0,2.586043119E0
6.667183214E1,1.328554916E1,-1.735783386E1,3.179762125E0
6.672183214E1,2.710170746E1,-4.606781769E1,8.623134494E-1
6.677183214E1,5.483152866E0,-3.409024429E1,-3.085544825E0
6.682183214E1,2.456830740E0,1.632204175E0,-2.892324328E-1
6.687183214E1,-2.496611357E0,6.400800496E-2,-8.082057953E0
6.692183214E1,-3.497110367E0,1.126840019E1,-1.230748367E1
6.697183214E1,-4.986343384E0,6.786643028E0,-9.745966911E0
6.702183214E1,6.924230576E0,-2.072632980E1,5.090132141E1
6.707183214E1,-2.898605585E0,-4.716851711E0,-7.816154957E0
6.712183214E1,-1.443171144E0,-3.869882202E1,-1.292991638E1
6.717183214E1,2.455454826E1,-3.416202927E1,-5.651846886E0
6.722183214E1,5.089922714E1,-1.539691639E1,7.825157928E1
6.727183214E1,2.432902336E0,-7.211369276E-1,-2.936890602E0
6.732183214E1,8.635995865E0,5.513063431E0,3.383451223E0
6.737183214E1,6.076872349E0,4.629513741E0,7.635198116E0
6.742183214E1,-2.848356247E0,3.768695518E-2,5.502295494E0
6.747183214E1,6.285048008E0,-5.916553020E0,-6.640082598E-2
6.752183214E1,3.603650665E1,-4.755465698E1,1.456391525E1
6.757183214E1,5.183751106E0,-4.120530319E1,6.062814593E-1
6.762183214E1,3.062513828E0,-2.542374134E-1,-2.458326101E0
6.767183214E1,-2.044068813E0,3.219542980E0,-8.053343773E0
6.772183214E1,-6.152245998E0,8.680263519E0,-9.666704178E0
6.777183214E1,-5.716453075E0,4.495515347E0,-8.201698303E0
6.782183214E1,6.366403580E0,-1.481037617E1,4.006571960E1
6.787183214E1,-3.547359467E0,-6.613163352E-1,-9.001200676E0
6.792183214E1,-5.654240131E0,-4.143770599E1,-2.105803490E1
6.797183214E1,1.429322720E1,-3.033620453E1,-4.435695171E0
6.802183214E1,5.030281448E1,-4.005136490E1,3.640769196E1
6.807183214E1,3.381058455E0,-6.385546207E0,6.282654762E0
6.812183214E1,-2.587538481E0,9.159127235E0,7.376772881E0
6.817183214E1,7.036693096E0,-2.377867460E0,-8.805587292E-1
6.822183214E1,2.322832584E0,2.707179785E0,6.584449768E0
6.827183214E1,1.058823988E-1,-2.172084808E0,1.930110574E0
6.832183214E1,2.481536484E1,-2.565105820E1,4.939683437E0
6.837183214E1,2.313949203E1,-5.769364548E1,-3.025724173E0
6.842183214E1,1.106680512E0,-2.372364044E1,-4.806881428E0
6.847183214E1,-2.892324328E-1,2.194816589E0,-3.387040377E0
6.852183214E1,-3.348755360E0,4.119543076E0,-1.467039585E1
6.857183214E1,-7.014260292E0,9.398708344E0,-5.637490273E0
6.862183214E1,-4.184448719E-1,3.085245609E0,2.414268303E1
6.867183214E1,1.506580949E0,-1.440598869E1,1.168624687E1
6.872183214E1,-3.360719442E0,9.786644578E-1,-4.605585575E0
6.877183214E1,2.638086975E-1,-4.459533310E1,-2.428535461E1
6.882183214E1,1.655324745E1,-3.291955566E1,-6.625127792E-1
6.887183214E1,5.004917526E1,-3.084856796E1,6.001827240E1
6.892183214E1,4.673780918E0,-5.021039009E0,-3.102294445E0
6.897183214E1,4.812564373E0,1.089721298E1,7.858029366E0
6.902183214E1,6.900302410E0,-2.088335991E0,-8.685946465E-1
6.907183214E1,1.331605792E0,3.774976730E0,5.904289722E0
6.912183214E1,2.732304335E0,-1.034895778E-1,2.758625507E0
6.917183214E1,2.219133568E1,-2.716392136E1,8.140382767E0
6.922183214E1,1.596192169E1,-6.503392792E1,3.440878868E0
6.927183214E1,-9.068797827E-1,-1.274925804E1,-4.545764923E0
6.932183214E1,1.633101404E-1,4.320839405E0,-3.605086327E0
6.937183214E1,-3.410968781E0,5.618347645E0,-1.443350601E1
6.942183214E1,-4.280161381E0,7.095616341E0,-6.286244392E0
6.947183214E1,4.326821327E0,-7.522735119E0,4.246452713E1
6.952183214E1,-9.236295223E-1,-2.464009047E0,-1.335135174E1
6.957183214E1,-4.435695171E0,-1.070219803E1,-9.793823242E0
6.962183214E1,9.102895737E0,-3.950071716E1,-6.190531254E0
6.967183214E1,3.752813339E1,-4.310639954E1,-1.040189934E1
6.972183214E1,1.734587097E1,-8.025527000E0,5.454140186E0
6.977183214E1,-5.266602516E0,7.038188934E0,1.330439281E1
6.982183214E1,8.301000595E0,-1.288534999E0,-2.437688112E-1
6.987183214E1,2.535793781E0,2.426920414E0,6.220441341E0
6.992183214E1,-3.451646566E0,-8.458628058E-1,3.342773199E0
6.997183214E1,1.534666729E1,-1.513609886E1,8.001000881E-1
7.002183214E1,2.292174530E1,-6.294618988E1,-9.212366939E-1
7.007183214E1,4.001098633E0,-2.677149773E1,-2.812463999E0
7.012183214E1,3.457628727E0,5.666203976E0,-7.609176040E-1
7.017183214E1,-1.117448211E0,2.558824778E0,-1.045214844E1
7.022183214E1,-5.472385406E0,7.074080944E0,-1.580040646E1
7.027183214E1,-5.359922886E0,3.205185890E0,-4.861916542E0
7.032183214E1,8.102097511E0,-1.265593815E1,2.437688112E0
7.037183214E1,-3.085544825E0,-3.486342669E0,-4.639084816E0
7.042183214E1,-9.810572863E-1,-3.873471451E1,-1.005942631E1
7.047183214E1,3.022852898E1,-3.473181915E1,-2.685644388E0
7.052183214E1,3.458077240E1,-1.387448311E1,7.745686340E1
7.057183214E1,1.609173268E-1,1.241874933E0,7.737790346E-1
7.062183214E1,7.482057095E0,4.758726120E0,-1.381855011E-1
7.067183214E1,8.497212410E0,5.041378021E0,1.358943844E1
7.072183214E1,-1.357029557E0,2.642573595E0,3.675375462E0
7.077183214E1,8.659924507E0,-4.982754230E0,1.707578063E0
7.082183214E1,3.099692345E1,-5.230441284E1,2.855744171E1
7.087183214E1,5.952146530E0,-4.810052109E1,-2.915355206E0
7.092183214E1,7.522436380E-1,3.597608805E0,-2.843570709E0
7.097183214E1,-6.314060688E-1,4.392624378E0,-6.662216663E0
7.102183214E1,-2.644966364E0,1.237448215E1,-1.338006592E1
7.107183214E1,-2.822035313E0,5.149055004E0,-6.956832886E0
7.112183214E1,4.036991119E0,-1.431745434E1,3.012294579E1
7.117183214E1,-4.526622295E0,-2.054836512E0,-2.151745796E0
7.122183214E1,-9.092726111E-1,-4.654668045E1,-1.579801369E1
7.127183214E1,1.646710587E1,-3.032663345E1,1.030110121E0
7.132183214E1,5.344638443E1,-2.868665314E1,3.856482315E1
7.137183214E1,3.929313898E0,-5.741578102E0,2.658126831E0
7.142183214E1,4.611567497E0,9.853643417E0,1.092712402E1
7.147183214E1,6.988836765E0,-2.794517756E0,-9.140582681E-1
7.152183214E1,1.147358418E0,3.114258766E0,5.990431309E0
7.157183214E1,3.713660717E0,-8.192426562E-1,1.161715388E0
7.162183214E1,2.924208641E1,-3.505963898E1,1.341236877E1
7.167183214E1,1.088166046E1,-5.982684708E1,-2.331207514E0
7.172183214E1,-8.662018180E-1,-1.163839054E1,-6.353542328E0
7.177183214E1,-2.811566554E-2,5.711667538E0,-2.475075960E0
7.182183214E1,-4.780560493E0,6.600003242E0,-1.673659706E1
7.187183214E1,-5.996712685E0,6.655037880E0,-6.530611038E0
7.192183214E1,-2.572284266E-2,-7.812565804E0,2.144926262E1
7.197183214E1,-2.402992249E0,-9.104689956E-1,-1.194855976E1
7.202183214E1,-2.359921217E0,-1.545942879E1,-1.235773277E1
7.207183214E1,1.244985580E1,-3.571108246E1,-5.273781300E0
7.212183214E1,4.088466644E1,-4.493302155E1,-1.586261940E1
7.217183214E1,1.276840115E1,-6.253941059E0,3.249453068E0
7.222183214E1,-2.891427040E0,7.126723289E0,9.232108116E0
7.227183214E1,8.533104897E0,-2.052443504E0,1.202393398E-1
7.232183214E1,3.302095175E0,3.707977772E0,6.055336952E0
7.237183214E1,4.746761918E-1,9.762716293E-1,2.952444077E0
7.242183214E1,1.404198074E1,-1.358704472E1,2.566302419E-1
7.247183214E1,2.912962532E1,-6.693711853E1,3.172583818E0
7.252183214E1,1.963610053E0,-2.484647179E1,-4.220340729E0
7.257183214E1,1.748256087E0,5.603990555E0,-3.203391433E-1
7.262183214E1,-2.647359133E0,1.471885085E0,-8.285447121E0
7.267183214E1,-5.235197067E0,9.235696793E0,-6.283851147E0
7.272183214E1,-3.803690672E0,1.921735644E0,-1.459920883E0
7.277183214E1,2.035394669E0,-1.471226978E1,5.382355213E0
7.282183214E1,-3.913760424E0,7.797610760E-1,-4.612763882E0
7.287183214E1,4.962115884E-1,-4.091337967E1,-1.231944752E1
7.292183214E1,2.109004021E1,-3.301048279E1,-1.194018483E0
7.297183214E1,5.079603577E1,-1.541605854E1,7.820372772E1
7.302183214E1,1.460818172E0,-2.174477577E0,-5.898606777E0
7.307183214E1,5.358427048E0,9.051449776E0,6.411867142E0
7.312183214E1,8.434998512E0,2.633002281E0,2.749054193E0
7.317183214E1,-1.514955878E0,9.834501147E-1,5.205286503E0
7.322183214E1,4.740779877E0,-3.721138239E0,2.224726915E0
7.327183214E1,3.145664406E1,-4.078656006E1,1.841845322E1
7.332183214E1,1.112124157E1,-5.473701477E1,1.245464206E0
7.337183214E1,-1.668993831E-1,-3.577269793E0,-2.455933332E0
7.342183214E1,-1.064806104E0,3.506681681E0,-7.303792000E0
7.347183214E1,-3.186043262E0,8.769096375E0,-1.856082535E1
7.352183214E1,-5.790630817E0,5.180161953E0,-7.567301750E0
7.357183214E1,3.347558975E0,-1.019222832E1,2.319931221E1
7.362183214E1,-6.649056077E-1,1.860419661E-1,-7.318149090E0
7.367183214E1,-3.497110367E0,-1.189202976E1,-8.146663666E0
7.372183214E1,9.940981865E0,-3.527529144E1,-8.170592308E0
7.377183214E1,3.828695679E1,-4.377669144E1,-1.660020638E1
7.382183214E1,1.774786377E1,-9.634401321E0,2.140858459E1
7.387183214E1,-6.026921868E-1,5.920142174E0,1.123370457E1
7.392183214E1,8.887541771E0,-1.290927768E0,1.585544109E0
7.397183214E1,2.952444077E0,2.889034271E0,2.985943556E0
7.402183214E1,-3.897309899E-1,1.739881158E0,2.394617319E0
7.407183214E1,1.405155182E1,-1.202602768E1,1.523031592E0
7.412183214E1,3.367359543E1,-5.052803802E1,1.063998508E1
7.417183214E1,5.336891651E0,-3.714498138E1,-8.255237937E-1
7.422183214E1,1.104287624E0,3.789333820E0,-2.575574398E0
7.427183214E1,-2.340778828E0,2.032104731E0,-8.165806770E0
7.432183214E1,-5.747560024E0,1.141675472E1,-9.288638115E0
7.437183214E1,-5.132305622E0,4.576871395E0,-5.682953835E0
7.442183214E1,4.997110844E0,-2.070240211E1,2.718545532E1
7.447183214E1,-3.664906979E0,4.725824669E-2,-6.659823418E0
7.452183214E1,1.221535921E0,-4.216302872E1,-1.500808239E1
7.457183214E1,2.030489540E1,-3.180629539E1,-1.711167336E0
7.462183214E1,5.130600739E1,-2.580419922E1,7.825157928E1
7.467183214E1,2.648555517E0,-3.421736479E0,-4.375874519E0
7.472183214E1,9.495617867E0,8.596514702E0,6.637091637E0
7.477183214E1,7.448557854E0,2.508276224E0,-1.357926875E-1
7.482183214E1,-1.514955878E0,2.371885538E0,5.025825024E0
7.487183214E1,5.353641510E0,-3.388236761E0,2.890230656E0
7.492183214E1,2.935215759E1,-4.613481522E1,1.884437561E1
7.497183214E1,6.761518478E0,-5.098775864E1,-8.075776696E-2
7.502183214E1,1.417747378E0,-8.578268886E-1,-2.276172638E0
7.507183214E1,-2.441576481E0,3.236292601E0,-6.415755749E0
7.512183214E1,-3.219542980E0,1.047129059E1,-1.849382782E1
7.517183214E1,-5.797809124E0,6.774679184E0,-1.231705475E1
7.522183214E1,3.840779543E0,-1.483191109E1,4.494977188E1
7.527183214E1,-2.046461582E0,-2.148156643E0,-9.120841980E0
7.532183214E1,-4.292125702E0,-3.628326797E1,-1.633430481E1
7.537183214E1,2.159522438E1,-3.584747314E1,-1.493420482E0
7.542183214E1,4.310879517E1,-2.384836578E1,7.825157928E1
7.547183214E1,-3.035893738E-1,-6.883552551E0,-7.153044224E0
7.552183214E1,8.047062874E0,1.088046360E1,1.151127148E1
7.557183214E1,6.378367901E0,-1.257428288E0,-4.306482315E0
7.562183214E1,1.214357495E0,3.777369738E0,7.316952705E0
7.567183214E1,3.838386536E0,-1.468295813E0,1.214357495E0
7.572183214E1,2.816232681E1,-3.759513092E1,1.560539150E1
7.577183214E1,1.176281738E1,-6.002545166E1,4.127619043E-2
7.582183214E1,1.226321578E0,-8.082955360E0,-2.711965322E0
7.587183214E1,-1.706381679E0,4.112364769E0,-5.627918720E0
7.592183214E1,-2.606681108E0,6.300601006E0,-1.809153366E1
7.597183214E1,-6.595217228E0,7.686942577E0,-1.241037464E1
7.602183214E1,5.799604058E-1,-9.909874916E0,3.503570938E1
7.607183214E1,-1.998605132E0,-1.106680512E0,-1.316949749E1
7.612183214E1,-7.538587570E0,-2.952713203E1,-1.442872047E1
7.617183214E1,1.524377537E1,-3.411895752E1,-3.949652910E0
7.622183214E1,4.720979309E1,-4.675246429E1,-2.082802582E1
7.627183214E1,5.909075737E0,-7.568199158E0,4.783850670E0
7.632183214E1,1.362712502E0,1.273370457E1,1.062323570E1
7.637183214E1,8.772386551E0,-2.313261271E0,-3.634099364E-1
7.642183214E1,2.133799553E0,2.326421738E0,3.617947817E0
7.647183214E1,7.522436380E-1,9.750752151E-2,1.853540182E0
7.652183214E1,1.757079506E1,-1.932563210E1,6.421438694E0
7.657183214E1,2.721656227E1,-7.477780151E1,-7.220043182E0
7.662183214E1,1.695613980E0,-1.673779488E1,-8.901300430E-1
7.667183214E1,6.661019921E-1,3.717549086E0,-3.090330362E0
7.672183214E1,-3.492324591E0,1.419242978E0,-9.518349648E0
7.677183214E1,-8.678169250E0,9.908679008E0,-7.670193195E0
7.682183214E1,-1.852343798E0,3.693620920E0,2.490629196E1
7.687183214E1,3.579662561E0,-1.492792320E1,7.498806953E0
7.692183214E1,-7.680960894E-1,-4.475176334E0,-7.363612652E0
7.697183214E1,3.574877024E0,-3.719044495E1,-1.503679657E1
7.702183214E1,2.507408905E1,-4.005375671E1,-1.395314693E0
7.707183214E1,2.898336411E1,-8.808578491E0,2.469811630E1
7.712183214E1,-1.414457321E0,8.108677864E-1,5.042574406E0
7.717183214E1,1.090319538E1,-4.387838542E-1,2.447259426E0
7.722183214E1,3.397808075E0,1.330409408E0,4.625924587E0
7.727183214E1,-4.814060211E0,-2.757728100E-1,4.096811295E0
7.732183214E1,5.765506268E0,-5.566901684E0,5.967101455E-1
7.737183214E1,3.636701584E1,-4.928796005E1,2.085554314E1
7.742183214E1,8.451748848E0,-4.502155685E1,-1.103091240E0
7.747183214E1,5.225326419E-1,-1.034895778E-1,-2.106282234E0
7.752183214E1,-2.661715984E0,2.575574398E0,-5.867500305E0
7.757183214E1,-4.380660057E0,8.366803169E0,-1.532184124E1
7.762183214E1,-5.728417397E0,7.246364117E0,-8.697312355E0
7.767183214E1,4.798207760E0,-1.725494385E1,3.963232040E1
7.772183214E1,-3.636193037E0,5.309075117E-1,-6.384648800E0
7.777183214E1,-5.546562672E0,-4.469613266E1,-1.677727509E1
7.782183214E1,2.056810570E1,-3.126761246E1,-1.306421375E1
7.787183214E1,5.802385712E1,-2.891187859E1,7.820372772E1
7.792183214E1,4.230809689E0,-3.701995850E0,-4.854738235E0
7.797183214E1,9.646365166E0,9.331708908E0,8.461319923E0
7.802183214E1,8.837292671E0,-1.418046474E0,-3.162115097E0
7.807183214E1,-2.916252613E-1,2.469991207E0,5.047360420E0
7.812183214E1,3.457628727E0,-1.755434513E0,9.556335211E-1
7.817183214E1,2.772653389E1,-3.125325394E1,9.155537605E0
7.822183214E1,1.573938942E1,-5.859125519E1,-2.940180898E-1
7.827183214E1,2.205584288E0,-9.248857498E0,-4.035794258E0
7.832183214E1,-3.753740489E-1,3.774976730E0,-6.001498222E0
7.837183214E1,-8.596514702E0,5.055735111E0,-1.546301842E1
7.842183214E1,-8.733204842E0,3.930510283E0,-5.798108578E0
7.847183214E1,8.718847632E-1,-5.957231045E0,2.340509605E1
7.852183214E1,-1.689631939E0,-3.318845034E0,-1.388285828E1
7.857183214E1,-5.763711333E-1,-5.801398277E0,-1.254227924E1
7.862183214E1,1.087926769E1,-4.172962952E1,-1.285813141E1
7.867183214E1,3.813142395E1,-4.219174576E1,-2.052652931E1
7.872183214E1,1.273250866E1,-7.508378506E0,1.189442253E1
7.877183214E1,-3.846761465E0,4.191328049E0,9.064610481E0
7.882183214E1,1.027597713E1,-2.523829699E0,2.277369022E0
7.887183214E1,4.168596268E0,2.690429926E0,6.584449768E0
7.892183214E1,-1.524527073E0,2.343171597E0,4.261916161E0
7.897183214E1,5.059324265E0,-1.001515961E1,-4.007977992E-2
7.902183214E1,3.741806412E1,-5.953223038E1,1.457827187E1
7.907183214E1,3.119941711E0,-3.710190964E1,-5.857928753E0
7.912183214E1,1.932503343E0,6.137889385E0,-2.844468057E-1
7.917183214E1,-1.150947690E0,2.690429926E0,-1.110329533E1
7.922183214E1,-5.994319916E0,1.127797127E1,-1.233858967E1
7.927183214E1,-3.272184849E0,3.537788391E0,-3.509074450E0
7.932183214E1,4.326821327E0,-1.590210152E1,8.193024635E0
7.937183214E1,-5.335994720E0,1.368694544E0,-3.375076294E0
7.942183214E1,-2.824428082E0,-4.569663239E1,-2.495803833E1
7.947183214E1,2.420968246E1,-3.876581955E1,3.158226728E0
7.952183214E1,4.993671417E1,-1.860030746E1,7.825157928E1
7.957183214E1,2.480758905E0,-1.731506228E0,-3.178864956E0
7.962183214E1,1.007976532E1,6.638288021E0,4.393820763E0
7.967183214E1,5.746363640E0,2.395813704E0,-5.941677570E0
7.972183214E1,7.809575200E-1,4.289732933E0,5.930611134E0
7.977183214E1,2.284547329E0,6.577271223E-1,4.770690203E-1
7.982183214E1,2.500439835E1,-2.958216667E1,4.937290192E0
7.987183214E1,2.110678864E1,-6.263273239E1,-3.712763548E0
7.992183214E1,1.123430252E0,-1.128873920E1,-9.595218897E-1
7.997183214E1,-9.379864931E-1,2.391027927E0,-8.074878693E0
8.002183214E1,-3.597908020E0,5.132305622E0,-1.413889027E1
8.007183214E1,-8.970093727E0,6.781857491E0,-9.575777054E0
8.012183214E1,2.064407825E0,-7.060920715E0,2.698445892E1
8.017183214E1,-3.394218922E0,-3.622733593E0,-1.472064495E1
8.022183214E1,-3.748655796E0,-1.412812233E1,-1.042582703E1
8.027183214E1,1.317278767E1,-3.748027802E1,-8.747561455E0
8.032183214E1,4.202185440E1,-4.767669296E1,-1.250638676E1
8.037183214E1,1.129591751E1,-9.742077827E0,1.394866085E1
8.042183214E1,2.063809484E-1,8.790632248E0,1.382393456E1
8.047183214E1,8.193024635E0,-2.349153519E0,8.958129883E-1
8.052183214E1,2.746661186E0,4.304089546E0,4.099204063E0
8.057183214E1,-9.284151793E-1,3.011965454E-1,3.151048422E0
8.062183214E1,1.655085564E1,-1.607229042E1,3.177369356E0
8.067183214E1,3.263211823E1,-6.919714355E1,3.092723191E-1
8.072183214E1,-4.950151742E-1,-2.715435028E1,-4.912165642E0
8.077183214E1,-4.950151742E-1,3.298506021E0,-3.997509241E0
8.082183214E1,-5.019842625E0,6.932605267E0,-1.908275986E1
8.087183214E1,-7.631907940E0,1.184297657E1,-1.112243748E1
8.092183214E1,-2.532503605E0,-5.538187981E0,4.452115631E1
8.097183214E1,-1.694417477E0,-6.131906986E0,-1.424686623E1
8.102183214E1,-3.018545866E0,-1.221775246E1,-8.972486496E0
8.107183214E1,1.005583763E1,-4.074588013E1,-6.779464722E0
8.112183214E1,3.913222122E1,-4.143052673E1,-1.495544052E1
8.117183214E1,1.162642574E1,-1.048445129E1,4.621138573E0
8.122183214E1,-3.480360508E0,5.680561066E0,1.446341610E1
8.127183214E1,1.000319481E1,-4.759922504E0,3.523431420E-1
8.132183214E1,3.967599154E0,2.917748213E0,7.980063438E0
8.137183214E1,-7.561319470E-1,-8.673982024E-1,2.859123945E0
8.142183214E1,1.719721603E1,-1.963699722E1,5.238786221E0
8.147183214E1,2.601237488E1,-6.807431030E1,-4.890630245E0
8.152183214E1,3.547359705E-1,-2.251705933E1,-3.743870020E0
8.157183214E1,2.801696301E0,6.891927242E0,-1.251446247E0
8.162183214E1,-1.675274968E0,5.548955917E0,-1.237687492E1
8.167183214E1,-6.777071953E0,6.597609997E0,-1.158455181E1
8.172183214E1,-1.284945726E0,-4.508676052E0,6.364040756E1
8.177183214E1,-3.614657640E0,-3.330809116E0,-1.712692642E1
8.182183214E1,-3.537788391E0,-1.467877007E1,-1.287727451E1
8.187183214E1,6.486044884E0,-3.269194031E1,-7.806583881E0
8.192183214E1,4.220370865E1,-4.821537781E1,-1.330828094E1
8.197183214E1,1.291914845E1,-1.079791164E1,2.066650963E1
8.202183214E1,-4.220340729E0,6.640681267E0,1.490369606E1
8.207183214E1,9.699007034E0,-2.416152716E0,4.124628007E-1
8.212183214E1,4.728815556E0,3.255435228E0,5.861218929E0
8.217183214E1,-1.246660590E0,2.532503605E0,2.124228239E0
8.222183214E1,1.439611816E1,-9.416654587E0,-1.246660590E0
8.227183214E1,3.532553864E1,-5.361896896E1,9.976874352E0
8.232183214E1,8.284251213E0,-3.906761551E1,-2.206780672E0
8.237183214E1,1.360319614E0,1.897807479E0,1.728814393E-1
8.242183214E1,-4.763810635E0,1.617847204E0,-1.642313766E1
8.247183214E1,-9.439386368E0,9.868000984E0,-4.540979385E0
8.252183214E1,-7.346862793E0,5.749952793E0,4.660650253E1
8.257183214E1,-6.580262445E-3,-1.319462204E1,4.475176334E0
8.262183214E1,-3.482753277E0,9.643075466E-1,-6.233602047E0
8.267183214E1,9.870393276E-1,-4.808616257E1,-1.568794346E1
8.272183214E1,2.511955261E1,-3.861267853E1,-2.640180588E0
8.277183214E1,4.092534256E1,-9.258428574E0,5.008745956E1
8.282183214E1,1.915753603E0,-2.176870346E0,-2.781357288E0
8.287183214E1,8.923434258E0,9.171091080E0,1.317518044E1
8.292183214E1,8.315358162E0,1.766202211E0,-3.533301830E0
8.297183214E1,-2.422134638E0,3.056531906E0,8.301000595E0
8.302183214E1,3.393022537E0,-3.443271875E0,2.236690998E0
8.307183214E1,3.311816025E1,-3.822474289E1,1.091994476E1
8.312183214E1,1.323739433E1,-5.622834015E1,-3.841975927E0
8.317183214E1,-1.426421404E0,-1.071655560E1,-1.261017561E0
8.322183214E1,-2.182852507E0,3.997509241E0,-4.692026138E0
8.327183214E1,-5.022235394E0,7.801798344E0,-1.539362621E1
8.332183214E1,-6.051747799E0,7.423433304E0,-4.828416824E0
8.337183214E1,-7.151548862E-1,-6.883552551E0,1.767847252E1
8.342183214E1,-1.380957723E0,-8.407780528E-1,-1.449571991E1
8.347183214E1,-2.783750057E0,-1.041266727E1,-1.109850979E1
8.352183214E1,1.445145226E1,-3.909154510E1,-6.600003242E0
8.357183214E1,4.393222427E1,-4.278067780E1,-1.486929893E1
8.362183214E1,1.104706383E1,-5.729613781E0,4.328915119E0
8.367183214E1,-3.315255880E0,8.840881348E0,1.410180092E1
8.372183214E1,8.885149002E0,-3.560520172E0,1.010967568E-1
8.377183214E1,3.871886253E0,2.676073074E0,7.599305630E0
8.382183214E1,-2.893819809E0,-3.390629768E0,3.802494287E0
8.387183214E1,1.341715431E1,-1.391755390E1,-3.396611691E0
8.392183214E1,2.742025185E1,-5.362854004E1,5.535795212E0
8.397183214E1,3.785744429E0,-2.952234650E1,-2.149353027E0
8.402183214E1,1.142572761E0,4.495515347E0,-1.330708504E0
8.407183214E1,-2.678465843E0,3.908974886E0,-9.745966911E0
8.412183214E1,-5.062913418E0,7.031010151E0,-5.752345562E0
8.417183214E1,-2.776571512E0,3.693620920E0,-5.944070339E0
8.422183214E1,4.496711731E0,-2.152343941E1,1.872712708E1
8.427183214E1,-4.739882469E0,1.952842355E0,-8.614161611E-1
8.432183214E1,-2.920140982E0,-3.895724487E1,-1.564965820E1
8.437183214E1,1.956999969E1,-3.277568817E1,3.012264490E0
8.442183214E1,4.573491669E1,-2.599323273E1,7.825157928E1
8.447183214E1,3.649054468E-2,-6.605985165E0,-7.896314859E-1
8.452183214E1,1.052034378E1,1.097408295E1,1.426929855E1
8.457183214E1,6.924230576E0,-2.926122904E0,-1.864607096E0
8.462183214E1,7.019943595E-1,3.159722328E0,7.745566845E0
8.467183214E1,3.594019651E0,-9.918249846E-1,1.540080428E0
8.472183214E1,2.735325241E1,-3.783201981E1,1.625175285E1
8.477183214E1,1.245224857E1,-5.423422241E1,5.033003330E0
8.482183214E1,4.076771438E-1,-5.887540340E0,-3.614657640E0
8.487183214E1,-1.155733347E0,4.749154568E0,-7.133901596E0
8.492183214E1,-5.003093243E0,1.010488987E1,-1.694716644E1
8.497183214E1,-4.842773914E0,6.046961784E0,-7.622336388E0
8.502183214E1,-4.854438901E-1,-1.056102180E1,2.378106689E1
8.507183214E1,-3.288934708E0,-3.646063507E-1,-1.478555012E1
8.512183214E1,-2.767000198E0,-1.391755390E1,-1.269781208E1
8.517183214E1,1.226321602E1,-3.634069443E1,-8.302197456E0
8.522183214E1,4.623770905E1,-4.498566437E1,-2.634647369E1
8.527183214E1,7.757531166E0,-9.282656670E0,8.006384850E0
8.532183214E1,-3.612264872E0,6.903891563E0,1.901935005E1
8.537183214E1,9.531510353E0,-2.454437733E0,7.881359458E-1
8.542183214E1,5.557330608E0,6.178566933E0,7.151847839E0
8.547183214E1,-7.597211748E-2,2.307279348E0,5.236393452E0
8.552183214E1,1.507388496E1,-1.409222984E1,4.555336237E-1
8.557183214E1,3.104717255E1,-6.269015884E1,8.549854279E0
8.562183214E1,4.226023674E0,-2.683371162E1,-1.239482164E0
8.567183214E1,2.938086987E0,4.713262558E0,-4.280161560E-1
8.572183214E1,1.520937920E0,-1.274178028E-1,-1.155105209E1
8.577183214E1,-5.453242779E0,7.785048485E0,-1.565922928E1
8.582183214E1,-3.535395384E0,3.387040377E0,-6.085247040E0
8.587183214E1,4.999503613E0,-2.127458572E1,2.646252441E1
8.592183214E1,-5.034199715E0,1.474277854E0,-3.961616993E0
8.597183214E1,-2.206780672E0,-3.838506317E1,-1.612852287E1
8.602183214E1,2.586641312E1,-3.974508286E1,-1.330708504E0
8.607183214E1,4.785615540E1,-2.320409775E1,7.825157928E1
8.612183214E1,-2.174477577E-1,-3.254238844E0,-2.246262282E-1
8.617183214E1,7.750352383E0,9.061020851E0,1.090080261E1
8.622183214E1,6.045765400E0,-1.559223056E0,-2.728715181E0
8.627183214E1,2.854338408E0,4.893023014E0,6.177370548E0
8.632183214E1,3.656233072E0,1.246660590E0,1.894218206E0
8.637183214E1,2.346043015E1,-2.696053123E1,5.992824078E0
8.642183214E1,1.870319939E1,-7.072944641E1,-1.996212244E0
8.647183214E1,5.847460628E-1,-1.043659496E1,-1.172483087E0
8.652183214E1,-1.505384564E0,2.530110836E0,-7.416254520E0
8.657183214E1,-5.659025669E0,1.004985523E1,-2.066052818E1
8.662183214E1,-8.055736542E0,9.041878700E0,-7.275078297E0
8.667183214E1,-1.237089276E0,-9.371191025E0,1.419751358E1
8.672183214E1,-3.401397467E0,-3.000001311E-1,-1.196770287E1
8.677183214E1,-2.182852507E0,-6.174977779E0,-1.034447098E1
8.682183214E1,1.340758324E1,-4.564877319E1,-6.712465763E0
8.687183214E1,3.699423599E1,-4.024308777E1,-3.817090607E1
8.692183214E1,1.149212933E1,-1.005823040E1,2.811267614E0
8.697183214E1,1.446461320E0,8.948558807E0,1.595474339E1
8.702183214E1,1.032861900E1,-3.474378586E0,-3.346960545E-1
8.707183214E1,3.146262646E0,2.805285454E0,7.427022457E0
8.712183214E1,-8.494520187E-1,1.026520967E0,2.576471806E0
8.717183214E1,1.380000687E1,-1.801376724E1,3.862314939E0
8.722183214E1,2.945026207E1,-7.419365692E1,2.327020019E-1
8.727183214E1,7.402794957E-1,-2.025464630E1,-5.331208706E0
8.732183214E1,8.120641708E-1,7.758727551E0,-2.700898647E-1
8.737183214E1,-3.751048565E0,-1.298106313E-1,-1.245105267E1
8.742183214E1,-7.485945702E0,6.025426388E0,-5.089234829E0
8.747183214E1,-1.388136268E0,2.884248495E0,3.030509949E1
8.752183214E1,4.046562195E0,-9.828518867E0,-4.710869491E-1
8.757183214E1,-2.192423820E0,2.206780672E0,1.367498159E0
8.762183214E1,-2.032104731E0,-4.514837646E1,-2.075624084E1
8.767183214E1,2.062583160E1,-3.287648392E1,1.791326880E0
8.772183214E1,4.552674103E1,-2.159761810E1,7.825157928E1
8.777183214E1,-1.854736686E0,-6.931408882E0,-1.663310885E0
8.782183214E1,1.276840115E1,8.898308754E0,1.568674660E1
8.787183214E1,7.893921852E0,-6.804589629E-1,-4.069293976E0
8.792183214E1,9.391828775E-1,3.401397467E0,5.858826160E0
8.797183214E1,-2.294118702E-1,6.161518395E-2,1.954038739E0
8.802183214E1,1.810469437E1,-2.120758629E1,2.784946442E0
8.807183214E1,2.528226471E1,-7.225696564E1,-8.306982994E0
8.812183214E1,-4.232304990E-1,-2.035514450E1,-2.654537678E0
8.817183214E1,-1.926820397E0,4.895416260E0,-4.031008720E0
8.822183214E1,-3.669692516E0,7.236793041E0,-1.425883007E1
8.827183214E1,-7.995616913E0,6.920641422E0,-8.120343208E0
8.832183214E1,-1.239482164E0,3.131606579E-1,-1.440778375E0
8.837183214E1,2.296511650E0,-1.807119560E1,1.505952835E1
8.842183214E1,-5.079663277E0,-2.576770782E0,-2.963510752E0
8.847183214E1,-6.816553473E-1,-3.607479095E1,-1.358345604E1
8.852183214E1,2.923490906E1,-4.026701736E1,-2.652144909E0
8.857183214E1,3.980968857E1,-1.829402733E1,7.825157928E1
8.862183214E1,-1.024128079E0,-4.738387108E0,-6.947261333E0
8.867183214E1,1.303400421E1,8.924630165E0,1.281625748E1
8.872183214E1,6.696912289E0,-2.006979942E0,-2.912962437E0
8.877183214E1,2.976372242E0,5.199304581E0,7.977670670E0
8.882183214E1,3.668197155E0,-1.767398596E0,2.234298229E0
8.887183214E1,2.895225716E1,-4.211996078E1,1.703689766E1
8.892183214E1,1.643121338E1,-6.419583893E1,-4.064807594E-1
8.897183214E1,1.113858938E0,-6.462415695E0,-3.846761465E0
8.902183214E1,-2.844468057E-1,3.157329559E0,-5.496313572E0
8.907183214E1,-4.129413605E0,4.610371113E0,-2.222154617E1
8.912183214E1,-1.009292603E1,2.807678223E0,-5.745167255E0
8.917183214E1,1.372283816E0,-8.030312538E0,2.490150642E1
8.922183214E1,-1.948355794E0,-3.334996700E-1,-1.276481152E1
8.927183214E1,-3.820440531E0,-5.976373672E0,-9.319745064E0
8.932183214E1,1.151844978E1,-4.020719528E1,-9.197710991E0
8.937183214E1,4.782743835E1,-4.812684250E1,-1.202991581E1
8.942183214E1,1.441077423E1,-7.190133095E0,9.603294373E0
8.947183214E1,-2.848356247E0,8.381160736E0,1.520549107E1
8.952183214E1,1.080987549E1,1.103091240E0,9.197412133E-1
8.957183214E1,3.977170229E0,2.245065928E0,5.863611698E0
8.962183214E1,-2.485544533E-1,-1.585244983E-1,9.125627279E-1
8.967183214E1,1.904806519E1,-1.873191261E1,-2.748754919E-1
8.972183214E1,2.228017044E1,-5.529005432E1,-2.053640127E0
8.977183214E1,1.504188180E0,-2.619692230E1,-2.738286495E0
8.982183214E1,1.755434513E0,4.495515347E0,-1.345065475E0
8.987183214E1,-4.371088982E0,2.934497833E0,-8.673383713E0
8.992183214E1,-5.158626556E0,5.726024628E0,-8.649456024E0
8.997183214E1,-2.352742910E0,4.007080555E0,-3.576372623E0
9.002183214E1,1.994716763E0,-1.544028664E1,1.680479431E1
9.007183214E1,-1.510170221E0,1.191625714E0,-5.261816978E0
9.012183214E1,-2.000998020E0,-3.620430374E1,-2.192932129E1
9.017183214E1,2.204058838E1,-3.585465240E1,2.794517756E0
9.022183214E1,4.228027725E1,-2.654627419E1,7.825157928E1
9.027183214E1,2.871088028E0,-4.286143780E0,-5.546562672E0
9.032183214E1,6.000301838E0,1.109850979E1,1.170538902E1
9.037183214E1,6.940980434E0,-7.713862062E-1,-2.451147795E0
9.042183214E1,4.387838542E-1,2.695215702E0,9.395118713E0
9.047183214E1,6.907480717E0,-4.817649364E0,2.685943544E-1
9.052183214E1,2.646491814E1,-4.567270279E1,1.484626770E1
9.057183214E1,1.218425274E1,-4.427708817E1,-1.251446247E0
9.062183214E1,-1.636989832E0,-3.390629768E0,-5.862714767E0
9.067183214E1,-1.617847204E0,6.109175205E0,-5.043771267E0
9.072183214E1,-5.975177288E0,5.551348686E0,-1.726092529E1
9.077183214E1,-4.098007679E0,3.279363394E0,-3.391826153E0
9.082183214E1,5.799005508E0,-1.662533188E1,2.760928535E1
9.087183214E1,-1.445564032E0,-3.693920076E-1,-3.217149973E0
9.092183214E1,-5.340780258E0,-2.814318275E1,-1.438086414E1
9.097183214E1,1.154716396E1,-3.381476974E1,-3.614657640E0
9.102183214E1,3.199293518E1,-4.239543152E1,-1.087119102E1
9.107183214E1,6.964908600E0,-9.636794090E0,9.498010635E0
9.112183214E1,-1.501496136E-1,6.259922981E0,9.770792007E0
9.117183214E1,7.855636597E0,-5.847460628E-1,1.477568030E0
9.122183214E1,4.767100811E0,7.641479015E0,5.186143875E0
9.127183214E1,1.757827282E0,-3.462414265E0,-7.752745152E-1
9.132183214E1,2.763411045E0,-3.430320740E1,7.115656137E-1
9.137183214E1,1.180110264E1,-2.942633438E1,2.650649309E0
9.142183214E1,7.247560501E0,-1.495663738E1,7.307082415E-1
9.147183214E1,5.100002289E0,-5.368895531E-1,1.674078584E0
9.152183214E1,-5.548357368E-1,1.747059584E0,-6.509075642E0
9.157183214E1,-1.828415632E0,8.900702477E0,-1.083769226E1
9.162183214E1,-1.589133382E0,3.736691713E0,-4.244269371E0
9.167183214E1,-2.012962103E0,-1.335494137E1,-1.526919961E0
9.172183214E1,-4.160520554E0,-1.046530914E1,-1.333938789E1
9.177183214E1,2.942872763E0,-2.222992134E1,-3.638586044E0
9.182183214E1,2.922772980E1,-3.571826172E1,-3.446980667E1
9.187183214E1,1.495873070E1,-1.313450241E1,2.371885490E1
9.192183214E1,1.408176184E0,-6.684948206E-1,2.928515911E0
9.197183214E1,5.344070435E0,2.534896374E0,3.738785386E-1
9.202183214E1,3.531806231E0,4.174578190E0,-3.224328518E0
9.207183214E1,1.968395710E0,3.102294445E0,-2.010569334E0
9.212183214E1,1.233021545E1,-1.278036499E1,4.304986954E0
9.217183214E1,1.849502373E1,-7.372435760E1,1.465603858E-1
9.222183214E1,5.021039009E0,-2.138704872E1,-1.696810365E0
9.227183214E1,6.281159073E-2,-1.312463164E0,-1.330708504E0
9.232183214E1,-4.696811676E0,2.671287298E0,-5.747560024E0
9.237183214E1,-4.524229527E0,1.052393341E1,-9.137890816E0
9.242183214E1,-3.494717360E0,6.061318874E0,-3.037688255E0
9.247183214E1,3.215953588E0,-2.682653236E1,1.936631012E1
9.252183214E1,1.513460279E-1,-4.865505695E0,-9.676275253E0
9.257183214E1,-2.988037169E-1,-3.433192062E1,-9.484849930E0
9.262183214E1,1.918206215E1,-3.460499954E1,-4.684847832E0
9.267183214E1,3.150928688E1,-1.103988552E1,4.568227386E1
9.272183214E1,6.541379094E-1,-4.637888432E0,3.701696634E0
9.277183214E1,4.075275898E0,7.205686092E0,1.127198887E1
9.282183214E1,5.250750065E0,-1.259821177E0,-1.117448211E0
9.287183214E1,3.020938635E-1,3.492324591E0,3.950849295E0
9.292183214E1,5.317749023E0,-1.425225019E0,3.244667530E0
9.297183214E1,2.456651115E1,-3.552175140E1,1.314646626E1
9.302183214E1,1.437697601E1,-4.943631363E1,5.823532343E-1
9.307183214E1,5.123930454E0,-4.769493580E0,4.172484577E-1
9.312183214E1,9.415757060E-1,2.731107950E0,-4.117449760E0
9.317183214E1,-2.106282234E0,3.796512127E0,-1.181426239E1
9.322183214E1,-4.555335999E0,7.954938889E0,-1.403121281E1
9.327183214E1,4.363910258E-1,-7.580461979E0,6.685576630E1
9.332183214E1,-4.651049137E0,-3.168097258E0,-2.502742958E1
9.337183214E1,3.909274042E-1,-5.801398277E0,-8.728418350E0
9.342183214E1,9.378369331E0,-3.856482315E1,-5.670989513E0
9.347183214E1,3.658715439E1,-4.683142853E1,-1.783071709E1
9.352183214E1,7.233203888E0,-9.655936241E0,6.850052834E0
9.357183214E1,-3.018545866E0,-4.722833633E-1,4.477569580E0
9.362183214E1,8.781958580E0,-4.028915167E-1,3.649054527E0
9.367183214E1,3.716053486E0,2.032104731E0,-1.038485050E0
9.372183214E1,-1.553241014E0,1.840379715E0,5.162215710E0
9.377183214E1,1.057777119E1,-8.293822289E0,3.571287692E-1
9.382183214E1,2.351067924E1,-5.554369354E1,1.035254669E1
9.387183214E1,5.212464809E0,-3.708276749E1,-9.332008362E-1
9.392183214E1,1.889432549E0,7.007979155E-1,-1.390529037E0
9.397183214E1,-1.852343798E0,2.910569668E0,-4.194019794E0
9.402183214E1,-3.947260141E0,8.764310837E0,-1.281506062E1
9.407183214E1,-3.279363394E0,8.948558807E0,-7.444968700E0
9.412183214E1,4.664209366E0,-1.491117382E1,4.129862213E1
9.417183214E1,-3.286541939E0,-3.334996700E-1,-9.774680138E0
9.422183214E1,-2.621038198E0,-3.867967987E1,-1.694477272E1
9.427183214E1,1.441795254E1,-3.188286591E1,-8.973084688E-1
9.432183214E1,4.981707382E1,-4.414787674E1,3.972115326E1
9.437183214E1,4.511068821E0,-7.336095333E0,-1.811665893E0
9.442183214E1,5.679962635E-1,1.106261730E1,1.157827091E1
9.447183214E1,6.890730858E0,-7.211369276E-1,2.039881349E-1
9.452183214E1,7.522436380E-1,1.730309844E0,4.609174728E0
9.457183214E1,3.460021496E0,-1.855933070E0,1.611865163E0
9.462183214E1,2.743221664E1,-3.311098099E1,1.326850033E1
9.467183214E1,1.052752209E1,-6.231657791E1,6.227620125E0
9.472183214E1,3.309273720E0,-5.138287544E0,-3.221935749E0
9.477183214E1,2.327020019E-1,5.893821239E0,-3.025724173E0
9.482183214E1,-1.548455358E0,8.989236832E0,-1.555873108E1
9.487183214E1,-3.839582920E0,8.613264084E0,-1.420140266E1
9.492183214E1,8.192426562E-1,-7.472486019E0,5.475585938E1
9.497183214E1,-2.434098721E0,-7.510771275E0,-1.204427242E1
9.502183214E1,-1.761416554E0,-7.132705212E0,-1.033489990E1
9.507183214E1,5.758327484E0,-3.820560074E1,-6.379863262E0
9.512183214E1,3.416202927E1,-3.817210007E1,-9.188139915E0
9.517183214E1,1.962264061E1,-6.991229534E0,-2.506182671E0
9.522183214E1,-3.920938969E0,8.757730722E-1,5.401497841E0
9.527183214E1,1.139641571E1,-7.426723242E-1,3.177369356E0
9.532183214E1,5.574080467E0,2.860320330E0,6.649055958E0
9.537183214E1,-1.720738530E0,9.308080077E-1,2.906980515E0
9.542183214E1,7.472486019E0,-1.031904793E1,1.913360834E0
9.547183214E1,2.911287498E1,-5.206273651E1,1.419272804E1
9.552183214E1,7.422236919E0,-3.223221970E1,-6.840481758E-1
9.557183214E1,3.330809116E0,4.241876125E0,-2.341975123E-1
9.562183214E1,-1.045663476E0,1.646561027E0,-7.069295406E0
9.567183214E1,-1.768594980E0,9.748060226E0,-1.874537277E1
9.572183214E1,-3.540181160E0,6.844070911E0,-6.870391846E0
9.577183214E1,1.114995575E1,-2.298874474E1,1.609352684E1
9.582183214E1,-3.729513168E0,-8.645566940E0,-1.433599830E0
9.587183214E1,-5.443671346E-2,-3.172015381E1,-1.258774281E1
9.592183214E1,2.678106880E1,-3.401128006E1,-1.584587002E1
9.597183214E1,2.626391983E1,-1.540888023E1,6.870153046E1
9.602183214E1,9.391828626E-2,-3.898207188E0,7.211369276E-1
9.607183214E1,1.172692490E1,1.916949987E0,4.554139614E0
9.612183214E1,5.538187981E0,2.630609512E0,-1.634596944E0
9.617183214E1,-1.512562990E0,2.554039001E0,5.889933109E0
9.622183214E1,2.499901533E0,-9.152546525E-1,1.121037364E0
9.627183214E1,2.978316498E1,-3.314448166E1,1.250249863E1
9.632183214E1,1.162164021E1,-5.717649841E1,5.056931496E0
9.637183214E1,-2.413759828E-1,-7.462914944E0,-1.969891191E0
9.642183214E1,-2.032104731E0,5.115555763E0,-2.005783558E0
9.647183214E1,-5.479563713E0,3.466003656E0,-7.765905857E0
9.652183214E1,-6.676573277E0,5.580062389E0,-6.992724895E0
9.657183214E1,5.698507309E0,-2.789732218E0,3.531596756E1
9.662183214E1,3.451646566E-1,3.586242795E-1,-1.088076305E1
9.667183214E1,-4.009473324E0,-2.224666977E1,-1.284616756E1
9.672183214E1,1.250010586E1,-3.312294769E1,1.489532113E0
9.677183214E1,3.253640747E1,-3.519871902E1,-2.186471558E1
9.682183214E1,1.810469389E0,-1.078594685E1,1.681257010E0
9.687183214E1,4.542175770E0,9.041878700E0,1.226321602E1
9.692183214E1,1.015633583E1,-1.259821177E0,2.325225353E0
9.697183214E1,-2.093719877E-2,1.962413669E0,4.223630905E0
9.702183214E1,9.798609018E-1,-2.217548370E0,1.669292927E0
9.707183214E1,2.566062927E1,-2.569173622E1,2.988336325E0
9.712183214E1,1.059930706E1,-6.099274826E1,7.689933777E-1
9.717183214E1,5.273182988E-1,-1.623978806E1,-6.207281113E0
9.722183214E1,2.121835470E0,7.344470024E0,-7.872386575E-1
9.727183214E1,-4.735096931E0,2.714358091E0,-6.872784615E0
9.732183214E1,-3.487539053E0,4.014258862E0,-5.941677570E0
9.737183214E1,-8.255237937E-1,1.296909928E0,-1.002592683E0
9.742183214E1,-2.941676378E0,-3.036192894E0,-1.539123344E1
9.747183214E1,-1.953141451E0,-3.936492443E0,-3.712763548E0
9.752183214E1,8.909076691E0,-4.065704727E1,-7.425826073E0
9.757183214E1,3.344597626E1,-4.168416595E1,-9.104091644E0
9.762183214E1,1.450887966E1,-1.103749275E1,8.575277925E-1
9.767183214E1,-4.007080555E0,3.387040377E0,1.100369358E1
9.772183214E1,1.156630611E1,-3.232703447E0,1.238285661E0
9.777183214E1,4.695316315E0,3.298506021E0,8.525926590E0
9.782183214E1,-2.259422779E0,1.244267821E0,2.609971285E0
9.787183214E1,8.193024635E0,-1.109970570E1,1.592722535E0
9.792183214E1,2.716631317E1,-5.319753265E1,1.705364609E1
9.797183214E1,2.978765011E0,-3.132025337E1,-4.960022449E0
9.802183214E1,5.157430172E0,6.190531254E0,8.599206209E-1
9.807183214E1,-2.437688112E-1,2.350350142E0,-7.306184769E0
9.812183214E1,-1.919641972E0,9.673882484E0,-1.626491356E1
9.817183214E1,-3.643371582E0,4.304089546E0,-7.945367813E0
9.822183214E1,5.593223095E0,-1.776012802E1,4.672375107E1
9.827183214E1,-6.375077724E0,-3.637090445E0,2.921337366E0
9.832183214E1,-3.116651535E0,-3.583311844E1,-1.665763474E1
9.837183214E1,1.835863304E1,-3.096581650E1,-6.006283760E0
9.842183214E1,5.020949554E1,-3.642922974E1,4.911777115E1
9.847183214E1,5.487938881E0,-6.749554634E0,-2.144567251E0
9.852183214E1,7.156633377E0,8.692227364E0,1.113559818E1
9.857183214E1,5.425725460E0,1.289731383E0,-3.858725548E0
9.862183214E1,-5.907281041E-1,3.126222849E0,7.515556812E0
9.867183214E1,4.025026798E0,-1.427617788E0,1.776969910E0
9.872183214E1,2.554786873E1,-3.387698364E1,1.564367580E1
9.877183214E1,1.582792377E1,-5.038447189E1,7.618148923E-1
9.882183214E1,7.235297561E-1,-7.611568928E0,-1.943570137E0
9.887183214E1,-1.665703654E0,3.068495989E0,-5.182554722E0
9.892183214E1,-4.847559452E0,4.567300320E0,-1.623380661E1
9.897183214E1,-5.989534378E0,3.947260141E0,-4.476373196E0
9.902183214E1,6.852445602E-1,-7.494021416E0,1.670190239E1
9.907183214E1,-7.800601721E-1,7.271189690E-1,-1.103390312E1
9.912183214E1,-5.766702652E0,-2.277817535E1,-1.186929798E1
9.917183214E1,1.498774338E1,-3.477010727E1,-3.016152859E0
9.922183214E1,4.083441544E1,-4.487798691E1,-1.491715527E1
9.927183214E1,7.194918633E0,-9.169894218E0,7.307381153E0
9.932183214E1,-5.548955917E0,7.787441254E0,1.372104359E1
9.937183214E1,7.048657417E0,-8.841479421E-1,1.300499082E0
9.942183214E1,3.364308596E0,2.355135679E0,5.581258774E0
9.947183214E1,8.096713424E-1,-9.272187948E-1,1.666900039E0
9.952183214E1,2.255534363E1,-2.342214394E1,6.397510529E0
9.957183214E1,1.706561089E1,-5.905336761E1,-5.544169903E0
9.962183214E1,1.223928809E0,-2.283081818E1,-5.096413136E0
9.967183214E1,2.205584288E0,6.250351906E0,2.662015259E-1
9.972183214E1,-4.148556232E0,3.030210733E0,-8.266304970E0
9.977183214E1,-4.699204445E0,6.099604130E0,-4.064508438E0
9.982183214E1,-6.098706722E-1,1.586740494E0,1.092951679E1
9.987183214E1,-2.173281193E0,-2.682054996E0,-9.729216576E0
9.992183214E1,-2.407777786E0,-4.860720158E0,-7.165008068E0
9.997183214E1,6.969694138E0,-3.866292953E1,-8.280661583E0
1.000218321E2,3.202643585E1,-4.061876297E1,-3.094308472E1
1.000718321E2,1.474816227E1,-1.153549862E1,1.589252949E1
1.001218321E2,-5.706882000E0,4.220340729E0,9.605687141E0
1.001718321E2,9.859326363E0,-4.651049078E-1,1.489532113E0
1.002218321E2,6.665805817E0,3.236292601E0,1.184417343E1
1.002718321E2,-1.280160069E0,1.692921966E-1,2.686840773E0
1.003218321E2,1.816930008E1,-1.744636917E1,1.106680512E0
1.003718321E2,2.089861298E1,-5.379125214E1,4.673780918E0
1.004218321E2,2.985943556E0,-2.714477921E1,-4.066901207E0
1.004718321E2,7.111169815E0,5.577669621E0,5.560321808E-1
1.005218321E2,5.033900738E-1,7.247261405E-1,-8.027022362E0
1.005718321E2,-7.035795689E0,7.179365158E0,-1.297059441E1
1.006218321E2,-4.861916542E0,3.193221807E0,-6.092425346E0
1.006718321E2,2.521436930E0,-1.693400574E1,1.440808201E1
1.007218321E2,-6.671787739E0,1.689631939E0,-5.369493961E0
1.007718321E2,-3.410968781E0,-4.060680008E1,-1.514447403E1
1.008218321E2,1.915095520E1,-3.373102188E1,-5.443671346E-2
1.008718321E2,5.496912003E1,-3.272783279E1,7.620243073E1
1.009218321E2,2.162513494E0,-3.929313898E0,-4.277768612E0
1.009718321E2,4.384249210E0,1.206820107E1,1.210020542E1
1.010218321E2,6.359225273E0,-8.096713424E-1,-4.806881428E0
1.010718321E2,2.478366137E0,3.839582920E0,8.418249130E0
1.011218321E2,5.799005508E0,-3.206382275E0,2.504687071E0
1.011718321E2,2.405175591E1,-3.681238174E1,1.347697544E1
1.012218321E2,9.960124016E0,-6.676483917E1,2.737090111E0
1.012718321E2,5.057829022E-1,-7.036992073E0,-2.944069147E0
1.013218321E2,1.934896231E0,4.976771832E0,-1.241874933E0
1.013718321E2,-7.414759398E-1,6.731608391E0,-2.076820564E1
1.014218321E2,-3.947260141E0,7.023831844E0,-7.849654675E0
1.014718321E2,6.519544601E0,-8.935398102E0,4.345336151E1
1.015218321E2,-3.712763548E0,-2.940479994E0,-9.978070259E0
1.015718321E2,-9.274281502E0,-3.213650513E1,-1.671027756E1
1.016218321E2,1.280668545E1,-3.353720474E1,-4.399802685E-1
1.016718321E2,4.075276184E1,-3.877060699E1,7.283452988E0
1.017218321E2,5.310570717E0,-7.855636597E0,6.520441920E-2
1.017718321E2,-3.157329559E0,1.106740284E1,1.124806118E1
1.018218321E2,8.990432739E0,-3.562912941E0,-4.567300081E-1
1.018718321E2,4.831707001E0,2.671287298E0,8.691030502E0
1.019218321E2,5.085645199E0,-9.104689956E-1,2.401795626E0
1.019718321E2,2.214348030E1,-2.528465843E1,4.853242397E0
1.020218321E2,1.379522038E1,-6.796184540E1,4.366901144E-2
1.020718321E2,2.030609131E0,-1.822672844E1,-5.335994720E0
1.021218321E2,3.292523861E0,6.741179466E0,3.170489892E-2
1.021718321E2,-2.743072033E0,2.979961395E0,-8.814560890E0
1.022218321E2,-4.509872437E0,8.742775917E0,-6.705287457E0
1.022718321E2,-2.549253464E0,2.793321371E0,-2.331207514E0
1.023218321E2,-2.379063845E0,-8.051848412E0,-1.354995632E1
1.023718321E2,-1.883749604E0,-8.289036751E0,-4.916951656E0
1.024218321E2,1.894218206E0,-3.410699463E1,-4.631906509E0
1.024718321E2,3.143032455E1,-3.622105408E1,-7.133901596E0
1.025218321E2,2.268455696E1,-7.934599876E0,3.502374649E1
1.025718321E2,-2.402992249E0,-1.030110121E0,-1.648056656E-1
1.026218321E2,1.077398300E1,3.870689631E0,7.403094292E0
1.026718321E2,7.175776005E0,3.272184849E0,-1.620239973E0
1.027218321E2,-2.252244234E0,2.039283037E0,5.949753284E0
1.027718321E2,5.298606873E0,-3.560520172E0,1.460818172E0
1.028218321E2,2.860051155E1,-4.511726761E1,2.210040855E1
1.028718321E2,1.001276588E1,-5.114089966E1,1.128215909E0
1.029218321E2,2.351546526E0,-4.130311012E0,-1.936391711E0
1.029718321E2,-2.326421738E0,2.991925716E0,-6.032605171E0
1.030218321E2,-3.040081263E0,9.427422523E0,-1.689930916E1
1.030718321E2,-6.054140568E0,7.677371502E0,-8.785846710E0
1.031218321E2,-1.124626637E0,-9.636794090E0,1.634028625E1
1.031718321E2,-3.719941854E0,-1.741077542E0,-1.159890842E1
1.032218321E2,-4.651049137E0,-2.730300331E1,-1.254945755E1
1.032718321E2,1.499252892E1,-3.351327515E1,-5.235496044E0
1.033218321E2,4.377190399E1,-3.995804596E1,-2.099821472E1
1.033718321E2,5.743970871E0,-1.019222832E1,1.142752266E1
1.034218321E2,-1.806880236E0,5.125126839E0,1.067587757E1
1.034718321E2,8.253144264E0,-3.366701365E0,5.488536954E-1
1.035218321E2,4.005884171E0,3.351148129E0,6.112764359E0
1.035718321E2,-7.079764009E-1,1.177268744E0,1.925324917E0
1.036218321E2,1.385294724E1,-1.432463264E1,1.456032634E0
1.036718321E2,2.762364197E1,-5.706882095E1,7.328916550E0
